Name: Chiastolic Slate
Type:  Rocks
Class:  Metamorphic 
Subclass: Slate
Particle Size:  500-1500 Micrometer
Sample No.:   slate3.doc
Owner:  JHU
Wavelength Range:  All
Origin:  Sample No. 462, The Hunt and Salisbury Collection at the U.S. 
Geological Survey, Denver, Co.
Description: This dark lineated rock is composed of porphyroblasts of chiastolic 
andalusite set in a matrix of angular quartz fragments, abundant carbonaceous 
granules, and either muscovite or illite (hydromuscovite) with a few biotite grains 
present as well.  The phyllosilicate shows typical 001 cleavage and nearly 
parallel extinction, but unlike muscovite the birefringence is gray, possibly due 
either to the thinness of the crystals or abundant small carbonaceous material.  
Measurement:  Directional (10 Degree) Hemispherical Reflectance
First Column:  X
Second Column:  Y  
X Units:  Wavelength (micrometers)
Y Units:  Reflectance (percent)
First X Value: 14.0112	
Last X Value:  0.4
Number of X Values: 2844
Additional Information:  None

14.0112	2.5311
13.9734	2.5572
13.9359	2.578
13.8985	2.5954
13.8614	2.6115
13.8244	2.6283
13.7876	2.6455
13.7511	2.6627
13.7147	2.6797
13.6785	2.6976
13.6425	2.7187
13.6067	2.7466
13.5711	2.7833
13.5356	2.8268
13.5004	2.8721
13.4653	2.9125
13.4304	2.9417
13.3957	2.9558
13.3612	2.956
13.3269	2.9476
13.2927	2.9367
13.2587	2.9269
13.2249	2.9196
13.1912	2.9149
13.1577	2.9111
13.1244	2.908
13.0913	2.9081
13.0583	2.9153
13.0255	2.934
12.9929	2.9649
12.9604	3.0067
12.9281	3.0541
12.8959	3.0989
12.8639	3.1312
12.8321	3.1438
12.8004	3.134
12.7688	3.1046
12.7375	3.0642
12.7063	3.0237
12.6752	2.9933
12.6443	2.9766
12.6135	2.9697
12.5829	2.9624
12.5524	2.9424
12.5221	2.899
12.4919	2.829
12.4619	2.7357
12.432	2.6296
12.4023	2.5249
12.3727	2.4347
12.3432	2.3682
12.3139	2.3294
12.2847	2.317
12.2557	2.3253
12.2268	2.3483
12.198	2.3791
12.1694	2.4138
12.1409	2.4495
12.1125	2.4844
12.0843	2.5177
12.0562	2.5483
12.0282	2.5773
12.0003	2.6057
11.9726	2.6354
11.945	2.6684
11.9176	2.705
11.8903	2.7443
11.8631	2.7843
11.836	2.8235
11.809	2.8627
11.7822	2.9027
11.7555	2.9453
11.7289	2.991
11.7024	3.0391
11.676	3.0871
11.6498	3.1314
11.6237	3.1702
11.5977	3.2036
11.5718	3.2333
11.546	3.2615
11.5203	3.2907
11.4948	3.3228
11.4694	3.3565
11.444	3.39
11.4188	3.4219
11.3937	3.4503
11.3688	3.4755
11.3439	3.4982
11.3191	3.52
11.2944	3.5424
11.2699	3.5656
11.2455	3.59
11.2211	3.6156
11.1969	3.6431
11.1727	3.6735
11.1487	3.707
11.1248	3.7437
11.101	3.7809
11.0773	3.8152
11.0536	3.8415
11.0301	3.8578
11.0067	3.8637
10.9834	3.8631
10.9602	3.8611
10.937	3.8649
10.914	3.8795
10.8911	3.9064
10.8682	3.9439
10.8455	3.9874
10.8229	4.0315
10.8003	4.0712
10.7779	4.1044
10.7555	4.1325
10.7332	4.1585
10.7111	4.1861
10.689	4.2181
10.667	4.2552
10.6451	4.2961
10.6233	4.3382
10.6015	4.3803
10.5799	4.4224
10.5584	4.4664
10.5369	4.5148
10.5155	4.5703
10.4942	4.6325
10.473	4.6997
10.4519	4.7682
10.4309	4.8335
10.4099	4.8935
10.3891	4.949
10.3683	5.0036
10.3476	5.0632
10.327	5.1326
10.3065	5.2156
10.286	5.3115
10.2656	5.4166
10.2454	5.5249
10.2251	5.6309
10.205	5.7305
10.185	5.8216
10.165	5.9056
10.1451	5.9834
10.1253	6.0568
10.1056	6.1264
10.0859	6.1927
10.0663	6.2573
10.0468	6.3219
10.0274	6.3894
10.008	6.4609
9.9887	6.5363
9.9695	6.6109
9.9504	6.6779
9.9313	6.7303
9.9123	6.7633
9.8934	6.7765
9.8746	6.7739
9.8558	6.7633
9.8371	6.7547
9.8185	6.7571
9.7999	6.777
9.7814	6.82
9.763	6.8894
9.7447	6.9863
9.7264	7.1095
9.7082	7.2536
9.69	7.4096
9.6719	7.5651
9.6539	7.7062
9.636	7.8213
9.6181	7.9017
9.6003	7.9438
9.5825	7.9481
9.5649	7.9187
9.5472	7.862
9.5297	7.7871
9.5122	7.7051
9.4948	7.6294
9.4774	7.5758
9.4601	7.5583
9.4429	7.5864
9.4257	7.6629
9.4086	7.7831
9.3916	7.9348
9.3746	8.102
9.3577	8.2685
9.3408	8.4205
9.324	8.5475
9.3073	8.6432
9.2906	8.7045
9.274	8.7329
9.2574	8.7329
9.2409	8.7121
9.2245	8.6801
9.2081	8.6456
9.1918	8.6147
9.1755	8.5874
9.1593	8.5597
9.1431	8.525
9.127	8.4774
9.111	8.4142
9.095	8.3378
9.0791	8.2539
9.0632	8.1697
9.0474	8.0917
9.0316	8.0239
9.0159	7.9682
9.0003	7.9247
8.9847	7.8916
8.9691	7.8684
8.9536	7.8529
8.9382	7.8426
8.9228	7.8337
8.9075	7.8208
8.8922	7.7979
8.877	7.7598
8.8618	7.7034
8.8467	7.6292
8.8316	7.5409
8.8166	7.4448
8.8016	7.3475
8.7867	7.255
8.7718	7.1676
8.757	7.0823
8.7422	6.9895
8.7275	6.8779
8.7129	6.738
8.6982	6.5667
8.6837	6.3735
8.6692	6.1791
8.6547	6.012
8.6403	5.9016
8.6259	5.8666
8.6116	5.9104
8.5973	6.0188
8.583	6.1647
8.5688	6.3174
8.5547	6.4504
8.5406	6.5478
8.5266	6.6047
8.5126	6.6248
8.4986	6.6172
8.4847	6.5903
8.4708	6.5521
8.457	6.5088
8.4432	6.465
8.4295	6.4231
8.4158	6.3853
8.4022	6.3526
8.3886	6.3255
8.375	6.3038
8.3615	6.2865
8.3481	6.2736
8.3347	6.2645
8.3213	6.2583
8.3079	6.2545
8.2946	6.252
8.2814	6.2501
8.2682	6.2465
8.255	6.2387
8.2419	6.2231
8.2288	6.1954
8.2158	6.1501
8.2028	6.0815
8.1898	5.9851
8.1769	5.8579
8.164	5.7003
8.1512	5.5156
8.1384	5.3108
8.1256	5.0942
8.1129	4.8739
8.1002	4.6574
8.0876	4.4504
8.075	4.2566
8.0624	4.0791
8.0499	3.9197
8.0374	3.7786
8.025	3.6537
8.0126	3.5419
8.0002	3.4386
7.9879	3.3395
7.9756	3.2426
7.9634	3.1482
7.9512	3.0572
7.939	2.972
7.9268	2.8938
7.9147	2.8225
7.9027	2.7579
7.8906	2.6995
7.8786	2.6485
7.8667	2.6067
7.8548	2.5751
7.8429	2.5539
7.831	2.5409
7.8192	2.5325
7.8075	2.5252
7.7957	2.5161
7.784	2.5053
7.7723	2.4933
7.7607	2.4819
7.7491	2.4718
7.7375	2.4622
7.726	2.4526
7.7145	2.4416
7.7031	2.4294
7.6916	2.417
7.6802	2.4057
7.6689	2.3962
7.6575	2.3881
7.6462	2.3806
7.635	2.3735
7.6238	2.3665
7.6126	2.3602
7.6014	2.3557
7.5903	2.3536
7.5792	2.3534
7.5681	2.3543
7.5571	2.3555
7.5461	2.3557
7.5351	2.3541
7.5242	2.3507
7.5133	2.3461
7.5024	2.3414
7.4916	2.338
7.4807	2.3363
7.47	2.3371
7.4592	2.3397
7.4485	2.3431
7.4378	2.3456
7.4272	2.3466
7.4165	2.3449
7.4059	2.3401
7.3954	2.3318
7.3848	2.321
7.3743	2.3091
7.3639	2.2986
7.3534	2.2911
7.343	2.2887
7.3326	2.2916
7.3223	2.299
7.3119	2.3093
7.3016	2.3212
7.2914	2.3345
7.2811	2.3483
7.2709	2.3632
7.2607	2.3778
7.2506	2.3906
7.2404	2.3997
7.2303	2.404
7.2203	2.4029
7.2102	2.3969
7.2002	2.3876
7.1902	2.3768
7.1803	2.3655
7.1703	2.355
7.1604	2.3464
7.1506	2.3414
7.1407	2.3411
7.1309	2.3459
7.1211	2.3547
7.1113	2.3653
7.1016	2.374
7.0919	2.3775
7.0822	2.3741
7.0725	2.3645
7.0629	2.3504
7.0533	2.3356
7.0437	2.3232
7.0341	2.3144
7.0246	2.3096
7.0151	2.3079
7.0056	2.3076
6.9962	2.3081
6.9867	2.3096
6.9773	2.3124
6.9679	2.3174
6.9586	2.3251
6.9493	2.3356
6.94	2.3491
6.9307	2.3639
6.9214	2.3796
6.9122	2.3942
6.903	2.406
6.8938	2.4143
6.8847	2.4196
6.8755	2.4228
6.8664	2.4253
6.8573	2.4294
6.8483	2.4359
6.8393	2.4437
6.8302	2.4519
6.8213	2.4586
6.8123	2.4631
6.8034	2.4663
6.7944	2.4691
6.7855	2.4739
6.7767	2.4819
6.7678	2.4933
6.759	2.5069
6.7502	2.5209
6.7414	2.5325
6.7327	2.5405
6.7239	2.5438
6.7152	2.5433
6.7065	2.5405
6.6979	2.5366
6.6892	2.533
6.6806	2.5302
6.672	2.528
6.6634	2.527
6.6549	2.5273
6.6464	2.5294
6.6378	2.5342
6.6294	2.5418
6.6209	2.5514
6.6124	2.5615
6.604	2.5701
6.5956	2.5758
6.5872	2.5785
6.5789	2.5783
6.5705	2.5768
6.5622	2.5758
6.5539	2.5763
6.5456	2.5783
6.5374	2.5808
6.5292	2.5833
6.5209	2.5847
6.5128	2.5856
6.5046	2.5873
6.4964	2.5919
6.4883	2.6005
6.4802	2.612
6.4721	2.624
6.464	2.6333
6.456	2.6366
6.448	2.6338
6.4399	2.6263
6.432	2.6187
6.424	2.6151
6.416	2.618
6.4081	2.6273
6.4002	2.6399
6.3923	2.6517
6.3844	2.6586
6.3766	2.6586
6.3687	2.6529
6.3609	2.6442
6.3531	2.6361
6.3454	2.6316
6.3376	2.6321
6.3299	2.6369
6.3221	2.6434
6.3144	2.649
6.3068	2.6515
6.2991	2.6498
6.2914	2.6442
6.2838	2.6366
6.2762	2.6278
6.2686	2.6191
6.2611	2.6103
6.2535	2.6012
6.246	2.5914
6.2385	2.5821
6.231	2.574
6.2235	2.5687
6.216	2.5672
6.2086	2.5701
6.2011	2.5768
6.1937	2.5868
6.1863	2.5997
6.179	2.6148
6.1716	2.6314
6.1643	2.6469
6.157	2.6596
6.1496	2.667
6.1424	2.6684
6.1351	2.6648
6.1278	2.6596
6.1206	2.6567
6.1134	2.6583
6.1062	2.6656
6.099	2.6761
6.0918	2.6859
6.0847	2.6919
6.0776	2.6924
6.0704	2.6887
6.0633	2.6849
6.0563	2.6849
6.0492	2.6917
6.0421	2.7058
6.0351	2.7244
6.0281	2.744
6.0211	2.7612
6.0141	2.7735
6.0071	2.7805
6.0002	2.7828
5.9932	2.7821
5.9863	2.7802
5.9794	2.7775
5.9725	2.7747
5.9657	2.7718
5.9588	2.7697
5.952	2.7687
5.9451	2.7692
5.9383	2.772
5.9315	2.7768
5.9247	2.7825
5.918	2.7883
5.9112	2.7931
5.9045	2.7969
5.8978	2.8007
5.8911	2.8065
5.8844	2.8163
5.8777	2.8306
5.8711	2.8489
5.8644	2.8678
5.8578	2.8842
5.8512	2.896
5.8446	2.9025
5.838	2.9053
5.8314	2.9075
5.8249	2.912
5.8184	2.9201
5.8118	2.9309
5.8053	2.9419
5.7988	2.95
5.7923	2.9531
5.7859	2.9518
5.7794	2.9472
5.773	2.9428
5.7666	2.9415
5.7602	2.944
5.7538	2.9505
5.7474	2.9589
5.741	2.967
5.7347	2.9735
5.7283	2.9768
5.722	2.9775
5.7157	2.9766
5.7094	2.9757
5.7031	2.9759
5.6969	2.9783
5.6906	2.9821
5.6844	2.9862
5.6782	2.9886
5.6719	2.9881
5.6657	2.9843
5.6596	2.9775
5.6534	2.9699
5.6472	2.9644
5.6411	2.9624
5.6349	2.9654
5.6288	2.9725
5.6227	2.9825
5.6166	2.9928
5.6106	3.0014
5.6045	3.0074
5.5984	3.0099
5.5924	3.0087
5.5864	3.0044
5.5804	2.9981
5.5744	2.9914
5.5684	2.9857
5.5624	2.9828
5.5564	2.9835
5.5505	2.9883
5.5445	2.9964
5.5386	3.007
5.5327	3.0187
5.5268	3.0305
5.5209	3.0417
5.5151	3.0522
5.5092	3.061
5.5033	3.0685
5.4975	3.0738
5.4917	3.0776
5.4859	3.0804
5.4801	3.0838
5.4743	3.0881
5.4685	3.0939
5.4628	3.0998
5.457	3.105
5.4513	3.1077
5.4455	3.1072
5.4398	3.1046
5.4341	3.101
5.4284	3.0989
5.4228	3.0998
5.4171	3.1046
5.4114	3.1115
5.4058	3.1189
5.4002	3.1242
5.3945	3.1249
5.3889	3.1206
5.3833	3.1115
5.3778	3.0998
5.3722	3.0876
5.3666	3.0773
5.3611	3.0701
5.3555	3.067
5.35	3.067
5.3445	3.0701
5.339	3.0747
5.3335	3.0804
5.328	3.0869
5.3225	3.0936
5.3171	3.1008
5.3116	3.108
5.3062	3.1153
5.3008	3.1235
5.2954	3.1321
5.29	3.1415
5.2846	3.1513
5.2792	3.1608
5.2738	3.1699
5.2684	3.178
5.2631	3.1852
5.2578	3.1915
5.2524	3.1974
5.2471	3.2034
5.2418	3.2099
5.2365	3.217
5.2312	3.225
5.226	3.2326
5.2207	3.24
5.2154	3.2467
5.2102	3.2522
5.205	3.2567
5.1998	3.2609
5.1945	3.2652
5.1893	3.2695
5.1842	3.2738
5.179	3.2776
5.1738	3.2806
5.1686	3.2828
5.1635	3.2848
5.1584	3.2874
5.1532	3.2914
5.1481	3.2974
5.143	3.3044
5.1379	3.3108
5.1328	3.3151
5.1277	3.3161
5.1227	3.3135
5.1176	3.3085
5.1126	3.3025
5.1075	3.2977
5.1025	3.2955
5.0975	3.2965
5.0925	3.3003
5.0875	3.3065
5.0825	3.3147
5.0775	3.3238
5.0726	3.3336
5.0676	3.3429
5.0627	3.351
5.0577	3.3573
5.0528	3.3606
5.0479	3.3616
5.043	3.3603
5.038	3.3587
5.0332	3.3578
5.0283	3.3589
5.0234	3.3635
5.0185	3.3714
5.0137	3.3814
5.0088	3.3922
5.004	3.4015
4.9992	3.408
4.9944	3.4111
4.9896	3.4116
4.9848	3.4111
4.98	3.4109
4.9752	3.4118
4.9704	3.4139
4.9657	3.4169
4.9609	3.4192
4.9562	3.4214
4.9514	3.4235
4.9467	3.4262
4.942	3.4302
4.9373	3.4358
4.9326	3.4424
4.9279	3.4494
4.9232	3.4559
4.9186	3.4619
4.9139	3.4673
4.9092	3.473
4.9046	3.479
4.9	3.485
4.8953	3.4906
4.8907	3.4949
4.8861	3.4979
4.8815	3.4996
4.8769	3.5004
4.8723	3.5015
4.8678	3.5034
4.8632	3.507
4.8586	3.5115
4.8541	3.5166
4.8495	3.5211
4.845	3.5253
4.8405	3.5286
4.836	3.5317
4.8315	3.5348
4.827	3.5372
4.8225	3.5389
4.818	3.5394
4.8135	3.5389
4.809	3.5386
4.8046	3.5402
4.8001	3.5451
4.7957	3.553
4.7913	3.5628
4.7868	3.5721
4.7824	3.5795
4.778	3.5836
4.7736	3.585
4.7692	3.585
4.7648	3.585
4.7605	3.5857
4.7561	3.5869
4.7517	3.5882
4.7474	3.5884
4.7431	3.5877
4.7387	3.5865
4.7344	3.5855
4.7301	3.5855
4.7258	3.5872
4.7215	3.5905
4.7172	3.595
4.7129	3.6003
4.7086	3.6061
4.7043	3.6118
4.7	3.6176
4.6958	3.6224
4.6915	3.6259
4.6873	3.629
4.6831	3.6315
4.6788	3.6343
4.6746	3.6383
4.6704	3.6436
4.6662	3.6501
4.662	3.6561
4.6578	3.6609
4.6536	3.664
4.6495	3.6662
4.6453	3.668
4.6411	3.6707
4.637	3.675
4.6328	3.6807
4.6287	3.6872
4.6246	3.6934
4.6205	3.6991
4.6163	3.7039
4.6122	3.7082
4.6081	3.7123
4.604	3.7167
4.6	3.7216
4.5959	3.7266
4.5918	3.7314
4.5877	3.7351
4.5837	3.7367
4.5796	3.7358
4.5756	3.7324
4.5716	3.7274
4.5675	3.7231
4.5635	3.721
4.5595	3.7218
4.5555	3.7257
4.5515	3.7313
4.5475	3.7367
4.5435	3.7408
4.5395	3.7432
4.5356	3.7444
4.5316	3.7456
4.5276	3.7472
4.5237	3.7499
4.5197	3.7537
4.5158	3.7578
4.5119	3.7616
4.508	3.7643
4.504	3.7652
4.5001	3.7638
4.4962	3.76
4.4923	3.7544
4.4884	3.7487
4.4846	3.7454
4.4807	3.7456
4.4768	3.7506
4.473	3.7597
4.4691	3.7714
4.4652	3.7834
4.4614	3.7932
4.4576	3.799
4.4537	3.8006
4.4499	3.7982
4.4461	3.7937
4.4423	3.7887
4.4385	3.7852
4.4347	3.7844
4.4309	3.7862
4.4271	3.7896
4.4233	3.7937
4.4196	3.7977
4.4158	3.8018
4.412	3.8061
4.4083	3.8111
4.4045	3.8174
4.4008	3.8236
4.3971	3.8284
4.3934	3.8307
4.3896	3.8302
4.3859	3.8284
4.3822	3.8262
4.3785	3.8255
4.3748	3.8272
4.3711	3.8315
4.3674	3.8372
4.3638	3.8422
4.3601	3.8458
4.3564	3.8465
4.3528	3.8446
4.3491	3.8408
4.3455	3.8362
4.3418	3.8327
4.3382	3.8315
4.3346	3.8337
4.331	3.8393
4.3273	3.848
4.3237	3.8589
4.3201	3.8705
4.3165	3.881
4.3129	3.8893
4.3094	3.8944
4.3058	3.8968
4.3022	3.8971
4.2986	3.8963
4.2951	3.8958
4.2915	3.8966
4.288	3.8978
4.2844	3.8984
4.2809	3.8973
4.2774	3.8941
4.2738	3.8898
4.2703	3.8858
4.2668	3.8843
4.2633	3.8863
4.2598	3.8908
4.2563	3.8953
4.2528	3.8975
4.2493	3.8963
4.2458	3.8925
4.2424	3.888
4.2389	3.886
4.2354	3.8886
4.232	3.8951
4.2285	3.9042
4.2251	3.913
4.2216	3.9202
4.2182	3.9243
4.2148	3.9265
4.2113	3.9276
4.2079	3.9291
4.2045	3.931
4.2011	3.9329
4.1977	3.9343
4.1943	3.9351
4.1909	3.9348
4.1875	3.9341
4.1841	3.9336
4.1808	3.9336
4.1774	3.9331
4.174	3.9324
4.1707	3.9315
4.1673	3.932
4.164	3.9353
4.1606	3.9422
4.1573	3.9532
4.154	3.9655
4.1506	3.9763
4.1473	3.9817
4.144	3.9808
4.1407	3.9741
4.1374	3.9645
4.1341	3.9552
4.1308	3.9489
4.1275	3.9472
4.1242	3.9494
4.1209	3.954
4.1177	3.959
4.1144	3.964
4.1111	3.9681
4.1079	3.9716
4.1046	3.9748
4.1014	3.9779
4.0981	3.981
4.0949	3.9839
4.0917	3.9867
4.0884	3.9901
4.0852	3.9942
4.082	3.9992
4.0788	4.0052
4.0756	4.0111
4.0724	4.0161
4.0692	4.0186
4.066	4.0174
4.0628	4.0131
4.0596	4.0066
4.0565	4.0007
4.0533	3.997
4.0501	3.9972
4.047	4.0013
4.0438	4.0071
4.0406	4.0118
4.0375	4.0138
4.0344	4.0121
4.0312	4.0073
4.0281	4.0013
4.025	3.996
4.0218	3.993
4.0187	3.992
4.0156	3.9922
4.0125	3.9932
4.0094	3.9942
4.0063	3.9949
4.0032	3.9965
4.0001	3.9997
3.997	4.005
3.994	4.0121
3.9909	4.0205
3.9878	4.0284
3.9847	4.0351
3.9817	4.0399
3.9786	4.0425
3.9756	4.0432
3.9725	4.0425
3.9695	4.0413
3.9665	4.0399
3.9634	4.0382
3.9604	4.0365
3.9574	4.0351
3.9544	4.0344
3.9513	4.0344
3.9483	4.0351
3.9453	4.0365
3.9423	4.038
3.9393	4.0387
3.9363	4.0387
3.9333	4.0377
3.9304	4.0365
3.9274	4.0367
3.9244	4.0392
3.9214	4.0451
3.9185	4.0538
3.9155	4.0645
3.9126	4.0745
3.9096	4.0825
3.9067	4.0863
3.9037	4.0855
3.9008	4.082
3.8979	4.0774
3.8949	4.0743
3.892	4.0743
3.8891	4.0782
3.8862	4.085
3.8833	4.093
3.8804	4.0996
3.8775	4.1035
3.8746	4.1037
3.8717	4.1004
3.8688	4.0944
3.8659	4.0875
3.863	4.0805
3.8601	4.0743
3.8573	4.0695
3.8544	4.0664
3.8515	4.0657
3.8487	4.0674
3.8458	4.0717
3.843	4.0772
3.8401	4.0832
3.8373	4.088
3.8344	4.0913
3.8316	4.0932
3.8288	4.094
3.8259	4.0944
3.8231	4.0951
3.8203	4.0968
3.8175	4.0994
3.8147	4.1031
3.8119	4.1076
3.8091	4.1126
3.8063	4.1169
3.8035	4.1197
3.8007	4.1207
3.7979	4.1195
3.7951	4.1174
3.7924	4.1147
3.7896	4.1131
3.7868	4.1126
3.7841	4.1131
3.7813	4.1142
3.7785	4.115
3.7758	4.1155
3.773	4.115
3.7703	4.114
3.7676	4.1126
3.7648	4.1109
3.7621	4.1086
3.7594	4.1056
3.7566	4.1028
3.7539	4.1001
3.7512	4.0989
3.7485	4.0994
3.7458	4.1021
3.7431	4.1061
3.7404	4.1109
3.7377	4.1157
3.735	4.1197
3.7323	4.1232
3.7296	4.126
3.7269	4.1288
3.7242	4.1315
3.7216	4.1334
3.7189	4.1339
3.7162	4.1322
3.7136	4.1288
3.7109	4.1243
3.7083	4.1202
3.7056	4.1176
3.703	4.1174
3.7003	4.1197
3.6977	4.1233
3.695	4.1272
3.6924	4.1296
3.6898	4.1296
3.6872	4.1282
3.6845	4.126
3.6819	4.1245
3.6793	4.125
3.6767	4.127
3.6741	4.1296
3.6715	4.1313
3.6689	4.13
3.6663	4.126
3.6637	4.1197
3.6611	4.1131
3.6585	4.1081
3.656	4.1064
3.6534	4.1086
3.6508	4.1131
3.6482	4.1181
3.6457	4.1215
3.6431	4.1217
3.6406	4.1193
3.638	4.1157
3.6355	4.1134
3.6329	4.1134
3.6304	4.1162
3.6278	4.1207
3.6253	4.1255
3.6227	4.1288
3.6202	4.1308
3.6177	4.1318
3.6152	4.1327
3.6127	4.1341
3.6101	4.1356
3.6076	4.1353
3.6051	4.1327
3.6026	4.1275
3.6001	4.1205
3.5976	4.1142
3.5951	4.1099
3.5926	4.1086
3.5901	4.1097
3.5876	4.1126
3.5852	4.1157
3.5827	4.1184
3.5802	4.1202
3.5777	4.1212
3.5753	4.1212
3.5728	4.1195
3.5704	4.1167
3.5679	4.1129
3.5654	4.1087
3.563	4.1054
3.5605	4.1031
3.5581	4.1004
3.5557	4.0966
3.5532	4.091
3.5508	4.0843
3.5484	4.0784
3.5459	4.076
3.5435	4.0793
3.5411	4.0887
3.5387	4.1023
3.5363	4.1169
3.5338	4.1286
3.5314	4.1348
3.529	4.1351
3.5266	4.1313
3.5242	4.1262
3.5218	4.1227
3.5195	4.1232
3.5171	4.1282
3.5147	4.136
3.5123	4.1456
3.5099	4.1542
3.5075	4.16
3.5052	4.1619
3.5028	4.1597
3.5004	4.1535
3.4981	4.1451
3.4957	4.1363
3.4934	4.1288
3.491	4.1245
3.4887	4.1232
3.4863	4.1238
3.484	4.1253
3.4816	4.1265
3.4793	4.1277
3.477	4.1296
3.4746	4.1332
3.4723	4.1384
3.47	4.1444
3.4677	4.1487
3.4653	4.1494
3.463	4.1459
3.4607	4.1391
3.4584	4.1315
3.4561	4.125
3.4538	4.1215
3.4515	4.1207
3.4492	4.1219
3.4469	4.124
3.4446	4.1267
3.4423	4.1296
3.44	4.133
3.4378	4.1365
3.4355	4.1403
3.4332	4.1439
3.4309	4.1463
3.4287	4.1471
3.4264	4.1461
3.4241	4.1437
3.4219	4.1394
3.4196	4.1339
3.4174	4.1275
3.4151	4.12
3.4129	4.1114
3.4106	4.1011
3.4084	4.0903
3.4061	4.0803
3.4039	4.0729
3.4017	4.0707
3.3994	4.0745
3.3972	4.0843
3.395	4.0973
3.3928	4.1097
3.3906	4.1184
3.3883	4.1212
3.3861	4.1188
3.3839	4.1126
3.3817	4.1052
3.3795	4.0985
3.3773	4.0937
3.3751	4.0906
3.3729	4.0893
3.3707	4.0891
3.3685	4.0891
3.3663	4.089
3.3641	4.087
3.362	4.0827
3.3598	4.075
3.3576	4.0649
3.3554	4.0549
3.3533	4.0475
3.3511	4.0449
3.3489	4.0475
3.3468	4.054
3.3446	4.0619
3.3425	4.0684
3.3403	4.0717
3.3382	4.0719
3.336	4.0705
3.3339	4.0684
3.3317	4.0657
3.3296	4.0624
3.3274	4.0581
3.3253	4.053
3.3232	4.0482
3.321	4.0456
3.3189	4.0465
3.3168	4.0501
3.3147	4.0549
3.3126	4.0583
3.3104	4.0578
3.3083	4.053
3.3062	4.0447
3.3041	4.0362
3.302	4.0307
3.2999	4.0301
3.2978	4.0341
3.2957	4.0401
3.2936	4.0447
3.2915	4.0451
3.2894	4.0401
3.2874	4.0307
3.2853	4.0196
3.2832	4.01
3.2811	4.0042
3.279	4.0035
3.277	4.0078
3.2749	4.0174
3.2728	4.0302
3.2708	4.0451
3.2687	4.059
3.2666	4.0693
3.2646	4.0736
3.2625	4.0705
3.2605	4.0616
3.2584	4.0508
3.2564	4.0415
3.2543	4.0362
3.2523	4.036
3.2503	4.0387
3.2482	4.0408
3.2462	4.0399
3.2442	4.0351
3.2421	4.0284
3.2401	4.0226
3.2381	4.0214
3.2361	4.0262
3.234	4.036
3.232	4.0478
3.23	4.0576
3.228	4.0628
3.226	4.0631
3.224	4.059
3.222	4.0535
3.22	4.049
3.218	4.0465
3.216	4.0463
3.214	4.047
3.212	4.049
3.21	4.0516
3.208	4.0559
3.206	4.0621
3.204	4.0693
3.2021	4.0747
3.2001	4.0757
3.1981	4.07
3.1961	4.0578
3.1942	4.0418
3.1922	4.0257
3.1902	4.0145
3.1883	4.0102
3.1863	4.0128
3.1844	4.0203
3.1824	4.0294
3.1805	4.0367
3.1785	4.0405
3.1766	4.0403
3.1746	4.037
3.1727	4.0317
3.1707	4.0257
3.1688	4.0196
3.1669	4.0131
3.1649	4.0054
3.163	3.9965
3.1611	3.9877
3.1591	3.9806
3.1572	3.9769
3.1553	3.9784
3.1534	3.9841
3.1515	3.9932
3.1495	4.0028
3.1476	4.0107
3.1457	4.0156
3.1438	4.0169
3.1419	4.0155
3.14	4.0123
3.1381	4.009
3.1362	4.0063
3.1343	4.0052
3.1324	4.0045
3.1305	4.003
3.1286	3.9997
3.1268	3.9934
3.1249	3.9849
3.123	3.9758
3.1211	3.9686
3.1192	3.9657
3.1174	3.9676
3.1155	3.9731
3.1136	3.9798
3.1117	3.9849
3.1099	3.9853
3.108	3.9803
3.1061	3.9703
3.1043	3.9573
3.1024	3.9434
3.1006	3.931
3.0987	3.9217
3.0969	3.9164
3.095	3.915
3.0932	3.9162
3.0913	3.9183
3.0895	3.9195
3.0876	3.9185
3.0858	3.9145
3.084	3.9082
3.0821	3.9016
3.0803	3.8958
3.0785	3.892
3.0766	3.8903
3.0748	3.8896
3.073	3.8886
3.0712	3.8858
3.0694	3.8808
3.0675	3.8738
3.0657	3.8657
3.0639	3.8571
3.0621	3.8487
3.0603	3.8415
3.0585	3.836
3.0567	3.8329
3.0549	3.8329
3.0531	3.8358
3.0513	3.8408
3.0495	3.8456
3.0477	3.848
3.0459	3.8463
3.0441	3.84
3.0423	3.8302
3.0406	3.8188
3.0388	3.8093
3.037	3.8032
3.0352	3.8013
3.0334	3.803
3.0317	3.8066
3.0299	3.8097
3.0281	3.8111
3.0264	3.8111
3.0246	3.8099
3.0228	3.8078
3.0211	3.8045
3.0193	3.7994
3.0176	3.793
3.0158	3.7849
3.014	3.7771
3.0123	3.7719
3.0105	3.77
3.0088	3.7709
3.007	3.7728
3.0053	3.7736
3.0036	3.7709
3.0018	3.7645
3.0001	3.7559
2.9984	3.7482
2.9966	3.7446
2.9949	3.7467
2.9932	3.7552
2.9914	3.7671
2.9897	3.7805
2.988	3.7922
2.9863	3.7999
2.9845	3.8023
2.9828	3.7999
2.9811	3.7937
2.9794	3.7852
2.9777	3.7759
2.976	3.7668
2.9743	3.7595
2.9726	3.7544
2.9709	3.7525
2.9692	3.754
2.9675	3.759
2.9658	3.7666
2.9641	3.7753
2.9624	3.7824
2.9607	3.7862
2.959	3.7846
2.9573	3.7771
2.9556	3.7656
2.9539	3.7532
2.9523	3.7424
2.9506	3.7362
2.9489	3.7364
2.9472	3.7429
2.9455	3.7532
2.9439	3.765
2.9422	3.7748
2.9405	3.7809
2.9389	3.7822
2.9372	3.7798
2.9355	3.7754
2.9339	3.7721
2.9322	3.7711
2.9306	3.7731
2.9289	3.7771
2.9272	3.7814
2.9256	3.7846
2.9239	3.7846
2.9223	3.7822
2.9207	3.7779
2.919	3.7733
2.9174	3.77
2.9157	3.7685
2.9141	3.77
2.9124	3.7728
2.9108	3.7766
2.9092	3.7805
2.9075	3.7834
2.9059	3.7855
2.9043	3.7877
2.9027	3.791
2.901	3.7963
2.8994	3.804
2.8978	3.8138
2.8962	3.8243
2.8946	3.8343
2.8929	3.8422
2.8913	3.8465
2.8897	3.847
2.8881	3.8443
2.8865	3.8398
2.8849	3.8353
2.8833	3.8324
2.8817	3.8327
2.8801	3.8362
2.8785	3.8437
2.8769	3.8533
2.8753	3.8642
2.8737	3.8745
2.8721	3.8827
2.8705	3.8877
2.8689	3.8893
2.8673	3.888
2.8658	3.8843
2.8642	3.8793
2.8626	3.874
2.861	3.8697
2.8594	3.8674
2.8579	3.8674
2.8563	3.8697
2.8547	3.874
2.8531	3.8786
2.8516	3.8822
2.85	3.8841
2.8484	3.8848
2.8469	3.8863
2.8453	3.8891
2.8437	3.8941
2.8422	3.9001
2.8406	3.9044
2.8391	3.9044
2.8375	3.8984
2.836	3.8858
2.8344	3.8669
2.8329	3.8437
2.8313	3.8183
2.8298	3.7939
2.8282	3.7731
2.8267	3.7592
2.8252	3.7542
2.8236	3.7585
2.8221	3.7709
2.8205	3.7887
2.819	3.808
2.8175	3.8247
2.8159	3.8358
2.8144	3.8387
2.8129	3.8332
2.8114	3.8199
2.8098	3.8013
2.8083	3.7805
2.8068	3.7608
2.8053	3.7454
2.8038	3.7358
2.8022	3.7329
2.8007	3.7364
2.7992	3.7454
2.7977	3.7578
2.7962	3.7706
2.7947	3.7809
2.7932	3.7851
2.7917	3.7801
2.7902	3.7643
2.7887	3.7394
2.7872	3.7082
2.7857	3.6755
2.7842	3.646
2.7827	3.6237
2.7812	3.6111
2.7797	3.6071
2.7782	3.6089
2.7767	3.6128
2.7752	3.6135
2.7738	3.6068
2.7723	3.59
2.7708	3.5633
2.7693	3.5291
2.7678	3.4913
2.7664	3.4541
2.7649	3.4212
2.7634	3.3943
2.7619	3.3742
2.7605	3.3611
2.759	3.3548
2.7575	3.3561
2.7561	3.3649
2.7546	3.3822
2.7531	3.4063
2.7517	3.435
2.7502	3.4647
2.7488	3.4919
2.7473	3.5147
2.7458	3.5319
2.7444	3.5455
2.7429	3.5575
2.7415	3.5706
2.74	3.5874
2.7386	3.6099
2.7371	3.6396
2.7357	3.6767
2.7343	3.7205
2.7328	3.7685
2.7314	3.8174
2.7299	3.8637
2.7285	3.9049
2.7271	3.9413
2.7256	3.975
2.7242	4.01
2.7228	4.0499
2.7213	4.0966
2.7199	4.1487
2.7185	4.202
2.7171	4.2507
2.7156	4.2892
2.7142	4.3143
2.7128	4.3267
2.7114	4.3298
2.71	4.3293
2.7085	4.3305
2.7071	4.3365
2.7057	4.3483
2.7043	4.3638
2.7029	4.3803
2.7015	4.3956
2.7001	4.4088
2.6987	4.4203
2.6973	4.4327
2.6959	4.4483
2.6945	4.4686
2.6931	4.4937
2.6917	4.5227
2.6903	4.5531
2.6889	4.582
2.6875	4.6074
2.6861	4.6281
2.6847	4.6432
2.6833	4.6524
2.6819	4.6555
2.6805	4.6524
2.6791	4.6437
2.6778	4.6316
2.6764	4.6179
2.675	4.6055
2.6736	4.5961
2.6722	4.5909
2.6709	4.5899
2.6695	4.5933
2.6681	4.6009
2.6667	4.6127
2.6654	4.6289
2.664	4.6495
2.6626	4.6724
2.6613	4.6964
2.6599	4.7186
2.6585	4.737
2.6572	4.7509
2.6558	4.7605
2.6545	4.7669
2.6531	4.772
2.6517	4.7768
2.6504	4.7823
2.649	4.7885
2.6477	4.7952
2.6463	4.8026
2.645	4.8105
2.6436	4.8177
2.6423	4.8235
2.6409	4.8258
2.6396	4.823
2.6382	4.8143
2.6369	4.8002
2.6356	4.7837
2.6342	4.7677
2.6329	4.7548
2.6315	4.7468
2.6302	4.744
2.6289	4.7455
2.6275	4.7493
2.6262	4.7543
2.6249	4.7598
2.6236	4.7655
2.6222	4.7715
2.6209	4.779
2.6196	4.788
2.6183	4.7995
2.6169	4.8127
2.6156	4.8253
2.6143	4.8354
2.613	4.8399
2.6117	4.8371
2.6103	4.8273
2.609	4.8127
2.6077	4.7974
2.6064	4.7853
2.6051	4.7803
2.6038	4.783
2.6025	4.7916
2.6012	4.8029
2.5999	4.8134
2.5986	4.8208
2.5973	4.8243
2.596	4.8256
2.5947	4.827
2.5934	4.8301
2.5921	4.8349
2.5908	4.8404
2.5895	4.8449
2.5882	4.8474
2.5869	4.8469
2.5856	4.8444
2.5843	4.8419
2.583	4.8414
2.5817	4.8436
2.5805	4.8485
2.5792	4.8565
2.5779	4.866
2.5766	4.8763
2.5753	4.8869
2.5741	4.8962
2.5728	4.9035
2.5715	4.9076
2.5702	4.9072
2.569	4.9017
2.5677	4.8926
2.5664	4.883
2.5651	4.8773
2.5639	4.8778
2.5626	4.8847
2.5613	4.8962
2.5601	4.9072
2.5588	4.9136
2.5575	4.9131
2.5563	4.907
2.555	4.8985
2.5538	4.8919
2.5525	4.8887
2.5513	4.8897
2.55	4.8928
2.5487	4.8957
2.5475	4.8967
2.5462	4.8967
2.545	4.8975
2.5437	4.901
2.5425	4.9067
2.5413	4.9136
2.54	4.9191
2.5388	4.9199
2.5375	4.9138
2.5363	4.9024
2.535	4.8894
2.5338	4.8796
2.5326	4.8778
2.5313	4.8859
2.5301	4.9033
2.5289	4.9254
2.5276	4.9462
2.5264	4.9612
2.5252	4.9691
2.5239	4.9709
2.5227	4.9696
2.5215	4.9699
2.5202	4.9732
2.519	4.9794
2.5178	4.9861
2.5166	4.9909
2.5154	4.9918
2.5141	4.9878
2.5129	4.9794
2.5117	4.9687
2.5105	4.9576
2.5093	4.9478
2.5081	4.9414
2.5068	4.9395
2.5056	4.9421
2.5044	4.9478
2.5032	4.9533
2.502	4.9564
2.5008	4.9555
2.4996	4.9505
2.4984	4.9438
2.4972	4.939
2.496	4.9385
2.4948	4.9425
2.4936	4.95
2.4924	4.9576
2.4912	4.9636
2.49	4.9665
2.4888	4.9662
2.4876	4.9644
2.4864	4.9619
2.4852	4.9608
2.484	4.9617
2.4828	4.9662
2.4816	4.9749
2.4805	4.9873
2.4793	5.0014
2.4781	5.0144
2.4769	5.023
2.4757	5.0249
2.4745	5.0205
2.4734	5.0127
2.4722	5.0051
2.471	5.0012
2.4698	5.0031
2.4686	5.0103
2.4675	5.0199
2.4663	5.029
2.4651	5.0345
2.464	5.0363
2.4628	5.0347
2.4616	5.0313
2.4604	5.0278
2.4593	5.0251
2.4581	5.024
2.4569	5.0235
2.4558	5.023
2.4546	5.0215
2.4535	5.0184
2.4523	5.0132
2.4511	5.0062
2.45	4.9986
2.4488	4.9916
2.4477	4.9861
2.4465	4.9828
2.4454	4.982
2.4442	4.9837
2.4431	4.9871
2.4419	4.9911
2.4408	4.995
2.4396	4.9978
2.4385	4.9993
2.4373	4.9991
2.4362	4.9981
2.435	4.9981
2.4339	5.0004
2.4327	5.0059
2.4316	5.0141
2.4305	5.0232
2.4293	5.0311
2.4282	5.0359
2.427	5.0373
2.4259	5.0363
2.4248	5.0354
2.4236	5.0368
2.4225	5.0409
2.4214	5.0464
2.4202	5.0507
2.4191	5.0514
2.418	5.0479
2.4169	5.0419
2.4157	5.0371
2.4146	5.0373
2.4135	5.0438
2.4124	5.0552
2.4112	5.068
2.4101	5.078
2.409	5.0818
2.4079	5.0791
2.4068	5.0723
2.4056	5.0642
2.4045	5.0584
2.4034	5.0567
2.4023	5.0598
2.4012	5.067
2.4001	5.0773
2.399	5.0902
2.3979	5.1053
2.3967	5.1211
2.3956	5.1357
2.3945	5.146
2.3934	5.1485
2.3923	5.1414
2.3912	5.1246
2.3901	5.1019
2.389	5.0789
2.3879	5.0612
2.3868	5.0536
2.3857	5.0567
2.3846	5.0687
2.3835	5.0854
2.3824	5.1029
2.3813	5.1175
2.3802	5.1278
2.3791	5.1337
2.3781	5.1369
2.377	5.1385
2.3759	5.1402
2.3748	5.143
2.3737	5.1474
2.3726	5.1522
2.3715	5.1555
2.3704	5.156
2.3694	5.1528
2.3683	5.1452
2.3672	5.1349
2.3661	5.1244
2.365	5.1158
2.364	5.1108
2.3629	5.1105
2.3618	5.1141
2.3607	5.1208
2.3597	5.1287
2.3586	5.1366
2.3575	5.1435
2.3564	5.1488
2.3554	5.1512
2.3543	5.1503
2.3532	5.1469
2.3522	5.1414
2.3511	5.1364
2.35	5.1347
2.349	5.1378
2.3479	5.146
2.3468	5.1563
2.3458	5.1644
2.3447	5.1666
2.3436	5.1596
2.3426	5.1447
2.3415	5.1268
2.3405	5.1115
2.3394	5.104
2.3384	5.1065
2.3373	5.117
2.3363	5.1316
2.3352	5.145
2.3342	5.1538
2.3331	5.1576
2.3321	5.1579
2.331	5.1572
2.33	5.157
2.3289	5.1572
2.3279	5.1565
2.3268	5.1533
2.3258	5.1474
2.3247	5.1402
2.3237	5.1352
2.3226	5.1347
2.3216	5.1402
2.3206	5.151
2.3195	5.1641
2.3185	5.1768
2.3175	5.1867
2.3164	5.1935
2.3154	5.1988
2.3144	5.2041
2.3133	5.2101
2.3123	5.2162
2.3113	5.221
2.3102	5.2227
2.3092	5.2199
2.3082	5.2129
2.3071	5.2029
2.3061	5.1923
2.3051	5.1835
2.3041	5.1792
2.303	5.1809
2.302	5.1893
2.301	5.2038
2.3	5.222
2.299	5.2405
2.2979	5.2552
2.2969	5.2637
2.2959	5.2649
2.2949	5.2605
2.2939	5.2526
2.2929	5.2438
2.2918	5.2361
2.2908	5.2302
2.2898	5.2261
2.2888	5.2242
2.2878	5.2247
2.2868	5.2282
2.2858	5.2347
2.2848	5.2426
2.2838	5.2496
2.2828	5.2531
2.2818	5.2519
2.2808	5.2462
2.2798	5.2383
2.2787	5.2308
2.2777	5.227
2.2767	5.2287
2.2757	5.2355
2.2747	5.2455
2.2738	5.2562
2.2728	5.2647
2.2718	5.2682
2.2708	5.2663
2.2698	5.2608
2.2688	5.2546
2.2678	5.2501
2.2668	5.2498
2.2658	5.2539
2.2648	5.2601
2.2638	5.2653
2.2628	5.2668
2.2618	5.2634
2.2609	5.2552
2.2599	5.2448
2.2589	5.2355
2.2579	5.2308
2.2569	5.2335
2.2559	5.2433
2.255	5.2584
2.254	5.2749
2.253	5.2886
2.252	5.2967
2.251	5.2984
2.2501	5.2955
2.2491	5.2909
2.2481	5.2869
2.2471	5.2852
2.2462	5.2856
2.2452	5.2873
2.2442	5.2891
2.2433	5.2904
2.2423	5.2921
2.2413	5.2952
2.2403	5.2995
2.2394	5.3041
2.2384	5.3072
2.2374	5.306
2.2365	5.2997
2.2355	5.2883
2.2345	5.274
2.2336	5.2605
2.2326	5.2522
2.2317	5.2512
2.2307	5.2584
2.2297	5.2723
2.2288	5.2897
2.2278	5.3065
2.2269	5.3194
2.2259	5.3266
2.225	5.3285
2.224	5.3266
2.2231	5.3238
2.2221	5.3216
2.2211	5.3206
2.2202	5.3199
2.2192	5.3182
2.2183	5.3135
2.2173	5.3055
2.2164	5.2947
2.2155	5.2823
2.2145	5.2699
2.2136	5.2594
2.2126	5.2531
2.2117	5.2517
2.2107	5.2552
2.2098	5.2615
2.2088	5.268
2.2079	5.2715
2.207	5.2701
2.206	5.2637
2.2051	5.2541
2.2041	5.2436
2.2032	5.2347
2.2023	5.2297
2.2013	5.2297
2.2004	5.2355
2.1995	5.2462
2.1985	5.2589
2.1976	5.2703
2.1967	5.2773
2.1957	5.2778
2.1948	5.273
2.1939	5.2663
2.193	5.2629
2.192	5.2655
2.1911	5.2751
2.1902	5.2893
2.1893	5.3045
2.1883	5.3173
2.1874	5.3254
2.1865	5.3289
2.1856	5.3297
2.1846	5.3287
2.1837	5.3276
2.1828	5.3268
2.1819	5.3271
2.181	5.3281
2.18	5.3292
2.1791	5.3306
2.1782	5.3314
2.1773	5.3311
2.1764	5.3297
2.1755	5.3273
2.1746	5.3261
2.1736	5.3278
2.1727	5.3336
2.1718	5.3435
2.1709	5.3565
2.17	5.3689
2.1691	5.3776
2.1682	5.3802
2.1673	5.3778
2.1664	5.3734
2.1655	5.3706
2.1646	5.3728
2.1637	5.3807
2.1628	5.3931
2.1619	5.406
2.161	5.4161
2.1601	5.4211
2.1592	5.4216
2.1583	5.4187
2.1574	5.4144
2.1565	5.4103
2.1556	5.4077
2.1547	5.4068
2.1538	5.4081
2.1529	5.4132
2.152	5.422
2.1511	5.4333
2.1502	5.4436
2.1493	5.4493
2.1484	5.4476
2.1475	5.4378
2.1466	5.4219
2.1458	5.4048
2.1449	5.3922
2.144	5.3875
2.1431	5.3924
2.1422	5.4051
2.1413	5.4216
2.1404	5.4368
2.1396	5.4474
2.1387	5.4519
2.1378	5.451
2.1369	5.4469
2.136	5.4426
2.1352	5.4395
2.1343	5.4366
2.1334	5.4318
2.1325	5.423
2.1316	5.4096
2.1308	5.3933
2.1299	5.378
2.129	5.3687
2.1281	5.3682
2.1273	5.3761
2.1264	5.3905
2.1255	5.4077
2.1247	5.424
2.1238	5.4368
2.1229	5.446
2.122	5.4514
2.1212	5.4536
2.1203	5.4534
2.1194	5.4503
2.1186	5.445
2.1177	5.4371
2.1168	5.4278
2.116	5.4194
2.1151	5.4134
2.1143	5.4118
2.1134	5.4156
2.1125	5.4237
2.1117	5.4345
2.1108	5.4455
2.11	5.4551
2.1091	5.4627
2.1082	5.468
2.1074	5.4713
2.1065	5.473
2.1057	5.473
2.1048	5.4718
2.104	5.4697
2.1031	5.468
2.1023	5.4672
2.1014	5.4682
2.1005	5.471
2.0997	5.4771
2.0988	5.4861
2.098	5.4996
2.0971	5.5163
2.0963	5.5345
2.0955	5.5503
2.0946	5.5593
2.0938	5.5598
2.0929	5.552
2.0921	5.5388
2.0912	5.5245
2.0904	5.512
2.0895	5.5027
2.0887	5.4953
2.0879	5.4869
2.087	5.4771
2.0862	5.4639
2.0853	5.4508
2.0845	5.4407
2.0837	5.4307
2.0828	5.4381
2.082	5.4464
2.0812	5.4565
2.0803	5.5288
2.0795	5.5175
2.076	5.4885
2.072	5.516
2.068	5.598
2.064	5.5526
2.06	5.5236
2.056	5.5283
2.052	5.6141
2.048	5.6901
2.044	5.6351
2.04	5.6934
2.036	5.7482
2.032	5.7192
2.028	5.6384
2.024	5.7116
2.02	5.6873
2.016	5.6531
2.012	5.6319
2.008	5.5748
2.004	5.4849
2	5.4849
1.996	5.5267
1.992	5.6204
1.988	5.791
1.984	5.7614
1.98	5.8171
1.976	5.7841
1.972	5.6843
1.968	5.6911
1.964	5.6877
1.96	5.7192
1.956	5.7175
1.952	5.8051
1.948	5.7061
1.944	5.6849
1.94	5.6919
1.936	5.6908
1.932	5.6649
1.928	5.7217
1.924	5.8306
1.92	5.7454
1.916	5.8325
1.912	5.7235
1.908	5.7636
1.904	5.7905
1.9	5.7835
1.896	5.8315
1.892	5.894
1.888	5.8018
1.884	5.828
1.88	5.8626
1.876	5.8157
1.872	5.9075
1.868	5.8367
1.864	5.8727
1.86	5.8492
1.856	5.9436
1.852	5.9399
1.848	5.9038
1.844	5.8441
1.84	5.8764
1.836	5.8244
1.832	5.8512
1.828	5.9374
1.824	5.8207
1.82	5.9135
1.816	5.9417
1.812	5.9629
1.808	5.889
1.804	6.0419
1.8	5.8579
1.796	5.9101
1.792	5.9172
1.788	5.9935
1.784	6.0233
1.78	6.0644
1.776	5.9772
1.772	6.0108
1.768	6.0108
1.764	5.988
1.76	6.1509
1.756	6.0554
1.752	6.039
1.748	6.0345
1.744	5.8579
1.74	5.8984
1.736	5.9225
1.732	5.8676
1.728	6.0418
1.724	6.0531
1.72	6.0758
1.716	6.0327
1.712	5.9355
1.708	5.925
1.704	6.0181
1.7	5.9233
1.696	6.1731
1.692	6.0873
1.688	6.1081
1.684	6.0361
1.68	6.0082
1.676	6.1342
1.672	6.1096
1.668	6.2363
1.664	6.212
1.66	6.0367
1.656	6.0584
1.652	6.0244
1.648	6.21
1.644	6.2081
1.64	6.0831
1.636	5.985
1.632	6.0437
1.628	6.1171
1.624	6.1321
1.62	6.0457
1.616	6.1738
1.612	6.2443
1.608	6.1518
1.604	6.1194
1.6	6.2573
1.596	6.0998
1.592	6.168
1.588	6.2005
1.584	6.2292
1.58	6.2234
1.576	6.2501
1.572	6.1518
1.568	6.0943
1.564	6.2215
1.56	6.1518
1.556	6.1444
1.552	6.1768
1.548	6.3315
1.544	6.2737
1.54	6.2267
1.536	6.2462
1.532	6.2279
1.528	6.2909
1.524	6.2129
1.52	6.2794
1.516	6.1644
1.512	6.2141
1.508	6.4118
1.504	6.3565
1.5	6.3555
1.496	6.4186
1.492	6.4146
1.488	6.3443
1.484	6.3871
1.48	6.3077
1.476	6.3133
1.472	6.2994
1.468	6.3133
1.464	6.3133
1.46	6.4352
1.456	6.3851
1.452	6.2445
1.448	6.2647
1.444	6.2699
1.44	6.2755
1.436	6.3048
1.432	6.3322
1.428	6.2954
1.424	6.3519
1.42	6.2994
1.416	6.4313
1.412	6.3787
1.408	6.2521
1.404	6.3424
1.4	6.4056
1.396	6.4383
1.392	6.5232
1.388	6.4715
1.384	6.436
1.38	6.5371
1.376	6.5196
1.372	6.4964
1.368	6.4924
1.364	6.5234
1.36	6.4838
1.356	6.4896
1.352	6.5618
1.348	6.6915
1.344	6.6042
1.34	6.5965
1.336	6.664
1.332	6.6114
1.328	6.6236
1.324	6.5964
1.32	6.5614
1.316	6.6274
1.312	6.6313
1.308	6.5736
1.304	6.6761
1.3	6.6761
1.296	6.7735
1.292	6.7172
1.288	6.6939
1.284	6.6803
1.28	6.7
1.276	6.6396
1.272	6.7476
1.268	6.6492
1.264	6.6848
1.26	6.7108
1.256	6.7484
1.252	6.8549
1.248	6.6667
1.244	6.6032
1.24	6.6032
1.236	6.7541
1.232	6.7207
1.228	6.5897
1.224	6.732
1.22	6.756
1.216	6.7442
1.212	6.7039
1.208	6.6949
1.204	6.7779
1.2	6.8097
1.196	6.8992
1.192	6.8428
1.188	6.7903
1.184	6.8574
1.18	6.8555
1.176	6.8367
1.172	6.8385
1.168	6.8233
1.164	6.8122
1.16	6.8704
1.156	6.8891
1.152	6.8684
1.148	6.8597
1.144	6.9029
1.14	6.9085
1.136	6.9085
1.132	6.9445
1.128	6.8148
1.124	6.937
1.12	6.9874
1.116	6.8811
1.112	7.0412
1.108	7.0469
1.104	7.0811
1.1	6.9696
1.096	7.0343
1.092	7.0343
1.088	7.0723
1.084	6.9872
1.08	6.9668
1.076	7.05
1.072	7.0714
1.068	7.1719
1.064	7.2211
1.06	7.1546
1.056	7.1223
1.052	7.1603
1.048	7.1546
1.044	7.138
1.04	7.1719
1.036	7.1875
1.032	7.2426
1.028	7.1738
1.024	7.2238
1.02	7.0665
1.016	7.1683
1.012	7.1432
1.008	7.1198
1.004	7.1817
1	7.1817
0.996	7.1451
0.992	7.1489
0.988	7.3487
0.984	7.2781
0.98	7.2668
0.976	7.2748
0.972	7.3668
0.968	7.2969
0.964	7.2151
0.96	7.3765
0.956	7.2788
0.952	7.2989
0.948	7.3869
0.944	7.3994
0.94	7.3623
0.936	7.477
0.932	7.4834
0.928	7.4377
0.924	7.4548
0.92	7.3848
0.916	7.4399
0.912	7.4356
0.908	7.5626
0.904	7.5469
0.9	7.5535
0.896	7.5232
0.892	7.6221
0.888	7.5737
0.884	7.5894
0.88	7.5409
0.876	7.5871
0.872	7.5893
0.868	7.6189
0.864	7.6235
0.86	7.6112
0.856	7.5828
0.852	7.5988
0.848	7.6412
0.844	7.5777
0.84	7.6838
0.836	7.7455
0.832	7.7407
0.828	7.7383
0.824	7.8143
0.82	7.8977
0.816	7.8876
0.812	7.7052
0.808	7.8229
0.804	7.9484
0.8	7.9982
0.799	7.9946
0.798	7.9997
0.797	8.0197
0.796	8.0036
0.795	7.9785
0.794	7.9746
0.793	7.9727
0.792	7.9868
0.791	8.0607
0.79	8.0587
0.789	8.0447
0.788	8.0837
0.787	8.0039
0.786	8.0017
0.785	8.067
0.784	8.0316
0.783	8.0297
0.782	7.9947
0.781	7.9779
0.78	8.0548
0.779	8.1143
0.778	7.9799
0.777	7.9268
0.776	8.0219
0.775	8.032
0.774	7.9621
0.773	8.0627
0.772	7.974
0.771	8.0112
0.77	8.0462
0.769	8.0172
0.768	7.9242
0.767	7.9922
0.766	8.0523
0.765	8.0132
0.764	8.0132
0.763	8.0832
0.762	8.0731
0.761	8.0031
0.76	8.0253
0.759	8.0376
0.758	8.0687
0.757	8.0335
0.756	8.1037
0.755	8.1079
0.754	8.0687
0.753	8.0728
0.752	8.1227
0.751	8.0873
0.75	8.0727
0.749	8.1079
0.748	8.0459
0.747	8.0169
0.746	8.0853
0.745	8.0915
0.744	8.079
0.743	8.0023
0.742	8.0168
0.741	8.1205
0.74	8.0334
0.739	8.0646
0.738	8.0855
0.737	7.969
0.736	8.0025
0.735	8.0583
0.734	8.1041
0.733	8.1501
0.732	8.1962
0.731	8.1628
0.73	8.1693
0.729	8.0813
0.728	8.2209
0.727	8.152
0.726	8.1749
0.725	8.1316
0.724	8.1402
0.723	8.1673
0.722	8.1652
0.721	8.1046
0.72	8.138
0.719	8.1337
0.718	8.2932
0.717	8.2094
0.716	8.272
0.715	8.1424
0.714	8.3539
0.713	8.222
0.712	8.1478
0.711	8.1478
0.71	8.1456
0.709	8.1076
0.708	8.1835
0.707	8.1768
0.706	8.2677
0.705	8.2172
0.704	8.3229
0.703	8.2284
0.702	8.1597
0.701	8.1295
0.7	8.2501
0.699	8.2393
0.698	8.2589
0.697	8.2178
0.696	8.2941
0.695	8.19
0.694	8.1947
0.693	8.2293
0.692	8.1283
0.691	8.1674
0.69	8.1305
0.689	8.1261
0.688	8.1839
0.687	8.28
0.686	8.2617
0.685	8.2617
0.684	8.3012
0.683	8.3106
0.682	8.3153
0.681	8.3153
0.68	8.2664
0.679	8.3217
0.678	8.2062
0.677	8.3106
0.676	8.2503
0.675	8.2108
0.674	8.3232
0.673	8.2758
0.672	8.2931
0.671	8.3982
0.67	8.3413
0.669	8.3461
0.668	8.3485
0.667	8.3317
0.666	8.3835
0.665	8.3884
0.664	8.4356
0.663	8.3581
0.662	8.3479
0.661	8.3755
0.66	8.4204
0.659	8.2796
0.658	8.3902
0.657	8.3098
0.656	8.3528
0.655	8.2685
0.654	8.3532
0.653	8.4007
0.652	8.3309
0.651	8.3382
0.65	8.4506
0.649	8.3833
0.648	8.3857
0.647	8.3485
0.646	8.3536
0.645	8.3188
0.644	8.3485
0.643	8.3406
0.642	8.4007
0.641	8.4183
0.64	8.4356
0.639	8.4856
0.638	8.4982
0.637	8.5282
0.636	8.4506
0.635	8.5356
0.634	8.5007
0.633	8.4179
0.632	8.5257
0.631	8.3804
0.63	8.3455
0.629	8.3382
0.628	8.4405
0.627	8.5108
0.626	8.5356
0.625	8.4406
0.624	8.5082
0.623	8.4807
0.622	8.5108
0.621	8.4581
0.62	8.5433
0.619	8.5707
0.618	8.5104
0.617	8.4631
0.616	8.5055
0.615	8.4855
0.614	8.5358
0.613	8.5257
0.612	8.5031
0.611	8.5787
0.61	8.5684
0.609	8.5231
0.608	8.5257
0.607	8.483
0.606	8.5358
0.605	8.5736
0.604	8.5332
0.603	8.4427
0.602	8.5137
0.601	8.5012
0.6	8.5028
0.599	8.612
0.598	8.5983
0.597	8.632
0.596	8.5775
0.595	8.5319
0.594	8.642
0.593	8.5718
0.592	8.4709
0.591	8.513
0.59	8.5436
0.589	8.5922
0.588	8.5349
0.587	8.5742
0.586	8.6384
0.585	8.6757
0.584	8.5283
0.583	8.5309
0.582	8.6262
0.581	8.5182
0.58	8.5512
0.579	8.5486
0.578	8.5588
0.577	8.6047
0.576	8.6704
0.575	8.6253
0.574	8.5586
0.573	8.621
0.572	8.7129
0.571	8.65
0.57	8.7148
0.569	8.6324
0.568	8.6227
0.567	8.7444
0.566	8.6849
0.565	8.7173
0.564	8.7253
0.563	8.6532
0.562	8.7061
0.561	8.6714
0.56	8.7273
0.559	8.7106
0.558	8.5985
0.557	8.5814
0.556	8.6481
0.555	8.5911
0.554	8.7488
0.553	8.6704
0.552	8.7396
0.551	8.7175
0.55	8.7406
0.549	8.6781
0.548	8.6705
0.547	8.5803
0.546	8.6781
0.545	8.7235
0.544	8.6838
0.543	8.7414
0.542	8.696
0.541	8.7286
0.54	8.6633
0.539	8.7312
0.538	8.7467
0.537	8.6247
0.536	8.656
0.535	8.6501
0.534	8.7597
0.533	8.7623
0.532	8.6551
0.531	8.6929
0.53	8.6601
0.529	8.6451
0.528	8.7691
0.527	8.5414
0.526	8.551
0.525	8.5207
0.524	8.6828
0.523	8.5326
0.522	8.6272
0.521	8.6776
0.52	8.5679
0.519	8.608
0.518	8.6202
0.517	8.5335
0.516	8.5775
0.515	8.6385
0.514	8.6129
0.513	8.5784
0.512	8.559
0.511	8.63
0.51	8.5808
0.509	8.6397
0.508	8.6911
0.507	8.5545
0.506	8.5826
0.505	8.5521
0.504	8.5521
0.503	8.5222
0.502	8.4425
0.501	8.5718
0.5	8.6542
0.499	8.586
0.498	8.5101
0.497	8.4585
0.496	8.5178
0.495	8.6144
0.494	8.5579
0.493	8.6004
0.492	8.5532
0.491	8.5694
0.49	8.5436
0.489	8.6219
0.488	8.5794
0.487	8.6126
0.486	8.5046
0.485	8.587
0.484	8.5746
0.483	8.574
0.482	8.5717
0.481	8.5384
0.48	8.5262
0.479	8.5708
0.478	8.5873
0.477	8.5539
0.476	8.5605
0.475	8.6366
0.474	8.5935
0.473	8.4967
0.472	8.4925
0.471	8.6877
0.47	8.4946
0.469	8.5113
0.468	8.5574
0.467	8.4839
0.466	8.5694
0.465	8.4991
0.464	8.5105
0.463	8.529
0.462	8.5686
0.461	8.6337
0.46	8.6317
0.459	8.6444
0.458	8.6524
0.457	8.5929
0.456	8.5968
0.455	8.443
0.454	8.54
0.453	8.6126
0.452	8.5753
0.451	8.4912
0.45	8.4657
0.449	8.5765
0.448	8.5365
0.447	8.5825
0.446	8.5243
0.445	8.5807
0.444	8.5381
0.443	8.5611
0.442	8.5
0.441	8.521
0.44	8.4997
0.439	8.5899
0.438	8.3837
0.437	8.4252
0.436	8.3613
0.435	8.3801
0.434	8.4199
0.433	8.3102
0.432	8.3531
0.431	8.2812
0.43	8.2497
0.429	8.2958
0.428	8.2864
0.427	8.2889
0.426	8.1984
0.425	8.1241
0.424	8.0855
0.423	8.0554
0.422	8.0664
0.421	8.0754
0.42	8.1263
0.419	8.0898
0.418	8.1507
0.417	8.1457
0.416	8.2113
0.415	8.1547
0.414	8.0119
0.413	8.0452
0.412	8.0836
0.411	8.0522
0.41	8.0118
0.409	7.9086
0.408	7.9415
0.407	7.9449
0.406	7.9076
0.405	7.907
0.404	7.8709
0.403	7.8043
0.402	7.9074
0.401	7.7859
0.4	7.7877
