Name: Augen Gneiss
Type:  Rocks
Class: Metamorphic 
Subclass: Gneiss 
Particle Size:  500-1500 Micrometer
Sample No.:  gneiss8.doc
Owner:  JHU
Wavelength Range:  All
Origin:  Sample No. 389, The Hunt and Salisbury Collection at the U.S. 
Geological Survey, Denver, Co.
Description:  Very large augen of microcline  enclose smaller albite and 
orthoclase euhedra along with anhedra of quartz and biotite euhedra.  There is 
minor sericitization  of the feldspars, scattered opaques (magnetite?) and some 
myrmeketic texture is present.  There are much lesser amounts of anhedral 
green amphibole in this rock along with trace amounts of zircon euhedra.  

Measurement:  Directional (10 Degree) Hemispherical Reflectance
First Column:  X
Second Column:  Y  
X Units:  Wavelength (micrometers)
Y Units:  Reflectance (percent)
First X Value: 14.9831
Last X Value:  0.4
Number of X Values: 2868
Additional information:  gneiss8a.txt

14.983	1.6558
14.94	2.2318
14.897	2.0764
14.854	1.9855
14.812	1.6122
14.77	1.5516
14.728	1.8614
14.686	2.0546
14.645	2.048
14.603	2.433
14.562	2.632
14.521	2.6334
14.481	2.4591
14.441	2.4046
14.4	2.4297
14.361	2.3161
14.321	2.2251
14.281	2.0395
14.242	2.1228
14.203	2.484
14.164	2.569
14.126	2.3854
14.087	2.3049
14.049	2.4603
14.011	2.6684
13.973	2.735
13.936	2.7284
13.899	2.7975
13.861	2.8425
13.824	2.8231
13.788	2.7719
13.751	2.8143
13.715	2.8129
13.679	2.7641
13.643	2.6926
13.607	2.6519
13.571	2.6841
13.536	2.6294
13.5	2.5562
13.465	2.5863
13.43	2.6521
13.396	2.6983
13.361	2.685
13.327	2.7255
13.293	2.7823
13.259	2.8546
13.225	2.9095
13.191	2.9794
13.158	3.0346
13.124	3.1541
13.091	3.3258
13.058	3.4435
13.026	3.534
12.993	3.6337
12.96	3.719
12.928	3.898
12.896	4.0789
12.864	4.2283
12.832	4.3145
12.8	4.2838
12.769	4.2288
12.737	4.0408
12.706	3.6884
12.675	3.4279
12.644	3.2676
12.614	3.2534
12.583	3.4343
12.552	3.6863
12.522	3.8558
12.492	3.8937
12.462	3.8416
12.432	3.6273
12.402	3.17
12.373	2.6566
12.343	2.2194
12.314	1.962
12.285	1.9116
12.256	1.9708
12.227	2.0421
12.198	2.0586
12.169	2.1013
12.141	2.2088
12.113	2.335
12.084	2.3719
12.056	2.4267
12.028	2.4982
12	2.5567
11.973	2.6147
11.945	2.69
11.918	2.7222
11.89	2.7288
11.863	2.8041
11.836	2.8453
11.809	2.8865
11.782	2.9394
11.755	2.9654
11.729	2.9952
11.702	3.0701
11.676	3.0717
11.65	3.0826
11.624	3.1705
11.598	3.2176
11.572	3.2633
11.546	3.3377
11.52	3.4083
11.495	3.4019
11.469	3.4322
11.444	3.4651
11.419	3.5563
11.394	3.6081
11.369	3.647
11.344	3.6808
11.319	3.6886
11.294	3.7599
11.27	3.8203
11.245	3.8589
11.221	3.8996
11.197	3.9674
11.173	4.0109
11.149	4.0406
11.125	4.0922
11.101	4.1545
11.077	4.2376
11.054	4.301
11.03	4.3091
11.007	4.3719
10.983	4.4557
10.96	4.5324
10.937	4.6378
10.914	4.643
10.891	4.6096
10.868	4.6444
10.846	4.7169
10.823	4.7744
10.8	4.8545
10.778	4.9198
10.755	4.9267
10.733	4.958
10.711	5.0214
10.689	5.0833
10.667	5.1687
10.645	5.2436
10.623	5.299
10.602	5.3779
10.58	5.4539
10.558	5.5526
10.537	5.6149
10.516	5.6672
10.494	5.7681
10.473	5.8444
10.452	5.9048
10.431	5.9948
10.41	6.098
10.389	6.2167
10.368	6.3204
10.348	6.4265
10.327	6.5712
10.306	6.6905
10.286	6.7793
10.266	6.9055
10.245	7.0502
10.225	7.2269
10.205	7.4033
10.185	7.5772
10.165	7.8073
10.145	7.9916
10.125	8.1926
10.106	8.4342
10.086	8.7233
10.066	8.9976
10.047	9.2432
10.027	9.5489
10.008	9.8025
9.9887	10.042
9.9695	10.351
9.9504	10.607
9.9313	10.828
9.9123	11.086
9.8934	11.319
9.8746	11.459
9.8558	11.509
9.8371	11.558
9.8185	11.575
9.7999	11.551
9.7814	11.509
9.763	11.488
9.7447	11.491
9.7264	11.535
9.7082	11.567
9.69	11.528
9.6719	11.531
9.6539	11.603
9.636	11.724
9.6181	11.886
9.6003	12.089
9.5825	12.294
9.5649	12.513
9.5472	12.762
9.5297	13.015
9.5122	13.291
9.4948	13.599
9.4774	13.9
9.4601	14.141
9.4429	14.361
9.4257	14.559
9.4086	14.825
9.3916	15.226
9.3746	15.743
9.3577	16.262
9.3408	16.771
9.324	17.132
9.3073	17.285
9.2906	17.381
9.274	17.404
9.2574	17.321
9.2409	17.251
9.2245	17.086
9.2081	16.869
9.1918	16.68
9.1755	16.483
9.1593	16.249
9.1431	16.022
9.127	15.768
9.111	15.463
9.095	15.13
9.0791	14.823
9.0632	14.533
9.0474	14.234
9.0316	14.027
9.0159	13.914
9.0003	13.865
8.9847	13.872
8.9691	13.906
8.9536	14.019
8.9382	14.152
8.9228	14.244
8.9075	14.292
8.8922	14.336
8.877	14.426
8.8618	14.488
8.8467	14.501
8.8316	14.544
8.8166	14.556
8.8016	14.504
8.7867	14.433
8.7718	14.37
8.757	14.304
8.7422	14.271
8.7275	14.169
8.7129	14.013
8.6982	13.834
8.6837	13.522
8.6692	13.028
8.6547	12.278
8.6403	11.549
8.6259	11.305
8.6116	11.719
8.5973	12.528
8.583	13.216
8.5688	13.669
8.5547	13.946
8.5406	14.063
8.5266	14.124
8.5126	14.178
8.4986	14.166
8.4847	14.152
8.4708	14.112
8.457	14.005
8.4432	13.937
8.4295	13.882
8.4158	13.821
8.4022	13.741
8.3886	13.634
8.375	13.473
8.3615	13.3
8.3481	13.207
8.3347	13.093
8.3213	12.897
8.3079	12.686
8.2946	12.502
8.2814	12.287
8.2682	12.103
8.255	11.89
8.2419	11.641
8.2288	11.41
8.2158	11.148
8.2028	10.864
8.1898	10.559
8.1769	10.197
8.164	9.7514
8.1512	9.2747
8.1384	8.7764
8.1256	8.2701
8.1129	7.7294
8.1002	7.2037
8.0876	6.7305
8.075	6.2706
8.0624	5.792
8.0499	5.3776
8.0374	5.0155
8.025	4.6655
8.0126	4.3558
8.0002	4.0865
7.9879	3.8037
7.9756	3.4805
7.9634	3.2148
7.9512	2.9725
7.939	2.7608
7.9268	2.5427
7.9147	2.34
7.9027	2.1621
7.8906	1.9897
7.8786	1.8763
7.8667	1.7787
7.8548	1.653
7.8429	1.5564
7.831	1.5118
7.8192	1.477
7.8075	1.4145
7.7957	1.3184
7.784	1.2726
7.7723	1.2525
7.7607	1.2146
7.7491	1.1753
7.7375	1.1092
7.726	1.0773
7.7145	1.0787
7.7031	1.0271
7.6916	0.9728
7.6802	0.9596
7.6689	0.9539
7.6575	0.9307
7.6462	0.9044
7.635	0.8755
7.6238	0.8656
7.6126	0.8599
7.6014	0.845
7.5903	0.8274
7.5792	0.7955
7.5681	0.8007
7.5571	0.827
7.5461	0.8253
7.5351	0.8128
7.5242	0.8033
7.5133	0.799
7.5024	0.8009
7.4916	0.7749
7.4807	0.7789
7.47	0.818
7.4592	0.8002
7.4485	0.7921
7.4378	0.794
7.4272	0.7855
7.4165	0.8026
7.4059	0.8281
7.3954	0.8201
7.3848	0.8246
7.3743	0.8222
7.3639	0.8296
7.3534	0.8641
7.343	0.8518
7.3326	0.8274
7.3223	0.8158
7.3119	0.8218
7.3016	0.854
7.2914	0.8746
7.2811	0.8755
7.2709	0.8767
7.2607	0.8918
7.2506	0.8966
7.2404	0.8833
7.2303	0.8923
7.2203	0.9106
7.2102	0.9361
7.2002	0.9451
7.1902	0.9508
7.1803	0.9366
7.1703	0.9553
7.1604	0.9868
7.1506	0.9672
7.1407	0.9421
7.1309	0.9825
7.1211	1.0512
7.1113	1.0434
7.1016	1.0065
7.0919	1.0065
7.0822	1.0216
7.0725	1.0316
7.0629	1.0413
7.0533	1.0287
7.0437	1.0609
7.0341	1.0922
7.0246	1.0721
7.0151	1.0429
7.0056	1.051
6.9962	1.0789
6.9867	1.0931
6.9773	1.1227
6.9679	1.1469
6.9586	1.1225
6.9493	1.1253
6.94	1.1542
6.9307	1.1635
6.9214	1.1613
6.9122	1.141
6.903	1.1296
6.8938	1.1557
6.8847	1.1703
6.8755	1.1377
6.8664	1.145
6.8573	1.1727
6.8483	1.1931
6.8393	1.1729
6.8302	1.1493
6.8213	1.1557
6.8123	1.1599
6.8034	1.1843
6.7944	1.1864
6.7855	1.1564
6.7767	1.2082
6.7678	1.2558
6.759	1.2326
6.7502	1.2352
6.7414	1.2525
6.7327	1.2241
6.7239	1.2551
6.7152	1.2672
6.7065	1.2563
6.6979	1.2736
6.6892	1.2831
6.6806	1.2547
6.672	1.2594
6.6634	1.2871
6.6549	1.3205
6.6464	1.3274
6.6378	1.2996
6.6294	1.2691
6.6209	1.2753
6.6124	1.3004
6.604	1.311
6.5956	1.3472
6.5872	1.3437
6.5789	1.3266
6.5705	1.3067
6.5622	1.3349
6.5539	1.3877
6.5456	1.393
6.5374	1.3697
6.5292	1.3527
6.5209	1.3342
6.5128	1.351
6.5046	1.3574
6.4964	1.3375
6.4883	1.351
6.4802	1.357
6.4721	1.3617
6.464	1.3496
6.456	1.3577
6.448	1.3757
6.4399	1.3813
6.432	1.369
6.424	1.3735
6.416	1.3617
6.4081	1.3593
6.4002	1.3768
6.3923	1.3638
6.3844	1.3761
6.3766	1.3581
6.3687	1.3591
6.3609	1.3716
6.3531	1.3624
6.3454	1.3619
6.3376	1.3484
6.3299	1.3316
6.3221	1.3413
6.3144	1.3506
6.3068	1.3427
6.2991	1.3456
6.2914	1.3281
6.2838	1.3077
6.2762	1.3423
6.2686	1.3733
6.2611	1.3364
6.2535	1.2935
6.246	1.2966
6.2385	1.3461
6.231	1.3364
6.2235	1.3155
6.216	1.3475
6.2086	1.3619
6.2011	1.3392
6.1937	1.307
6.1863	1.2632
6.179	1.279
6.1716	1.3243
6.1643	1.3131
6.157	1.2933
6.1496	1.3217
6.1424	1.3468
6.1351	1.303
6.1278	1.2999
6.1206	1.338
6.1134	1.3615
6.1062	1.3603
6.099	1.356
6.0918	1.3508
6.0847	1.3274
6.0776	1.3392
6.0704	1.3697
6.0633	1.3688
6.0563	1.357
6.0492	1.3702
6.0421	1.3972
6.0351	1.406
6.0281	1.4237
6.0211	1.4387
6.0141	1.4301
6.0071	1.4363
6.0002	1.455
5.9932	1.4365
5.9863	1.4332
5.9794	1.4569
5.9725	1.4609
5.9657	1.4758
5.9588	1.5106
5.952	1.5182
5.9451	1.4908
5.9383	1.4995
5.9315	1.5133
5.9247	1.5211
5.918	1.5268
5.9112	1.5246
5.9045	1.5265
5.8978	1.5358
5.8911	1.5343
5.8844	1.5355
5.8777	1.5509
5.8711	1.5947
5.8644	1.6103
5.8578	1.6144
5.8512	1.6056
5.8446	1.6023
5.838	1.5945
5.8314	1.626
5.8249	1.6497
5.8184	1.6437
5.8118	1.6632
5.8053	1.6693
5.7988	1.6748
5.7923	1.6679
5.7859	1.6748
5.7794	1.6913
5.773	1.6639
5.7666	1.6556
5.7602	1.6937
5.7538	1.6939
5.7474	1.7292
5.741	1.7439
5.7347	1.7212
5.7283	1.7498
5.722	1.7612
5.7157	1.7468
5.7094	1.7392
5.7031	1.7501
5.6969	1.7508
5.6906	1.77
5.6844	1.7825
5.6782	1.7974
5.6719	1.7941
5.6657	1.7766
5.6596	1.769
5.6534	1.7695
5.6472	1.7555
5.6411	1.7536
5.6349	1.7858
5.6288	1.7981
5.6227	1.7837
5.6166	1.7903
5.6106	1.7915
5.6045	1.7946
5.5984	1.7991
5.5924	1.805
5.5864	1.8095
5.5804	1.8043
5.5744	1.7977
5.5684	1.7998
5.5624	1.8003
5.5564	1.8337
5.5505	1.8524
5.5445	1.855
5.5386	1.8585
5.5327	1.8635
5.5268	1.8751
5.5209	1.873
5.5151	1.8697
5.5092	1.9085
5.5033	1.9279
5.4975	1.9196
5.4917	1.9293
5.4859	1.9478
5.4801	1.9312
5.4743	1.9241
5.4685	1.9615
5.4628	1.9708
5.457	1.9741
5.4513	2.0016
5.4455	2.0051
5.4398	1.9935
5.4341	2.0028
5.4284	2.0177
5.4228	2.0042
5.4171	1.999
5.4114	2.0189
5.4058	2.0189
5.4002	2.0132
5.3945	2.0245
5.3889	2.0181
5.3833	2.0139
5.3778	2.0217
5.3722	2.0378
5.3666	2.0463
5.3611	2.0492
5.3555	2.0589
5.35	2.0655
5.3445	2.0669
5.339	2.0899
5.3335	2.1202
5.328	2.1434
5.3225	2.1238
5.3171	2.11
5.3116	2.1285
5.3062	2.1451
5.3008	2.1422
5.2954	2.1498
5.29	2.1472
5.2846	2.1671
5.2792	2.1808
5.2738	2.1782
5.2684	2.1856
5.2631	2.2126
5.2578	2.2318
5.2524	2.2424
5.2471	2.2467
5.2418	2.2649
5.2365	2.2637
5.2312	2.2656
5.226	2.282
5.2207	2.2964
5.2154	2.3303
5.2102	2.3421
5.205	2.3504
5.1998	2.3556
5.1945	2.3952
5.1893	2.3935
5.1842	2.3911
5.179	2.4013
5.1738	2.4169
5.1686	2.4179
5.1635	2.4229
5.1584	2.4435
5.1532	2.4735
5.1481	2.4828
5.143	2.488
5.1379	2.488
5.1328	2.5152
5.1277	2.5273
5.1227	2.5368
5.1176	2.5434
5.1126	2.5619
5.1075	2.5839
5.1025	2.5976
5.0975	2.6156
5.0925	2.6519
5.0875	2.6559
5.0825	2.6552
5.0775	2.6618
5.0726	2.6713
5.0676	2.6874
5.0627	2.6928
5.0577	2.6871
5.0528	2.7179
5.0479	2.7376
5.043	2.7378
5.038	2.7475
5.0332	2.7523
5.0283	2.7842
5.0234	2.8018
5.0185	2.8048
5.0137	2.8498
5.0088	2.8856
5.004	2.8783
4.9992	2.8832
4.9944	2.9138
4.9896	2.9299
4.9848	2.9289
4.98	2.9604
4.9752	2.9751
4.9704	2.9825
4.9657	2.991
4.9609	3.0111
4.9562	3.032
4.9514	3.0402
4.9467	3.0383
4.942	3.0433
4.9373	3.0526
4.9326	3.0495
4.9279	3.0736
4.9232	3.121
4.9186	3.1418
4.9139	3.1613
4.9092	3.2062
4.9046	3.2617
4.9	3.3261
4.8953	3.3758
4.8907	3.4506
4.8861	3.5551
4.8815	3.6548
4.8769	3.7433
4.8723	3.8343
4.8678	3.9319
4.8632	4.037
4.8586	4.1204
4.8541	4.1739
4.8495	4.2461
4.845	4.3359
4.8405	4.3941
4.836	4.4232
4.8315	4.4874
4.827	4.5525
4.8225	4.6089
4.818	4.6752
4.8135	4.7266
4.809	4.7621
4.8046	4.8327
4.8001	4.8938
4.7957	4.939
4.7913	4.9843
4.7868	5.0418
4.7824	5.0823
4.778	5.1597
4.7736	5.2253
4.7692	5.2431
4.7648	5.3018
4.7605	5.3568
4.7561	5.4041
4.7517	5.4619
4.7474	5.5199
4.7431	5.5581
4.7387	5.6175
4.7344	5.6646
4.7301	5.6521
4.7258	5.6656
4.7215	5.7082
4.7172	5.7267
4.7129	5.6784
4.7086	5.6495
4.7043	5.6132
4.7	5.5332
4.6958	5.4439
4.6915	5.3826
4.6873	5.3343
4.6831	5.3078
4.6788	5.3707
4.6746	5.4614
4.6704	5.5481
4.6662	5.6476
4.662	5.7688
4.6578	5.9045
4.6536	6.0308
4.6495	6.1508
4.6453	6.2763
4.6411	6.4033
4.637	6.5631
4.6328	6.7088
4.6287	6.8184
4.6246	6.934
4.6205	7.0543
4.6163	7.1561
4.6122	7.261
4.6081	7.3742
4.604	7.4599
4.6	7.5378
4.5959	7.6245
4.5918	7.6956
4.5877	7.773
4.5837	7.8452
4.5796	7.8957
4.5756	7.9421
4.5716	8.0122
4.5675	8.1005
4.5635	8.1514
4.5595	8.1879
4.5555	8.2031
4.5515	8.2412
4.5475	8.2447
4.5435	8.2073
4.5395	8.16
4.5356	8.1178
4.5316	8.0697
4.5276	8.015
4.5237	7.9639
4.5197	7.8665
4.5158	7.7382
4.5119	7.6371
4.508	7.5376
4.504	7.4424
4.5001	7.3837
4.4962	7.342
4.4923	7.3228
4.4884	7.3323
4.4846	7.3413
4.4807	7.3373
4.4768	7.3546
4.473	7.3875
4.4691	7.4213
4.4652	7.4834
4.4614	7.5729
4.4576	7.7039
4.4537	7.858
4.4499	8.0058
4.4461	8.1012
4.4423	8.1971
4.4385	8.3037
4.4347	8.4126
4.4309	8.5256
4.4271	8.6189
4.4233	8.7262
4.4196	8.8685
4.4158	9.0203
4.412	9.1671
4.4083	9.3147
4.4045	9.4556
4.4008	9.6178
4.3971	9.7807
4.3934	9.9744
4.3896	10.182
4.3859	10.388
4.3822	10.607
4.3785	10.828
4.3748	11.029
4.3711	11.237
4.3674	11.467
4.3638	11.697
4.3601	11.908
4.3564	12.119
4.3528	12.335
4.3491	12.509
4.3455	12.675
4.3418	12.854
4.3382	13.027
4.3346	13.163
4.331	13.322
4.3273	13.458
4.3237	13.556
4.3201	13.654
4.3165	13.713
4.3129	13.776
4.3094	13.834
4.3058	13.899
4.3022	13.972
4.2986	14.029
4.2951	14.113
4.2915	14.197
4.288	14.266
4.2844	14.386
4.2809	14.538
4.2774	14.676
4.2738	14.816
4.2703	14.987
4.2668	15.16
4.2633	15.304
4.2598	15.47
4.2563	15.609
4.2528	15.701
4.2493	15.776
4.2458	15.83
4.2424	15.867
4.2389	15.921
4.2354	15.984
4.232	16.031
4.2285	16.133
4.2251	16.236
4.2216	16.313
4.2182	16.407
4.2148	16.49
4.2113	16.554
4.2079	16.6
4.2045	16.646
4.2011	16.71
4.1977	16.771
4.1943	16.844
4.1909	16.949
4.1875	17.053
4.1841	17.16
4.1808	17.273
4.1774	17.377
4.174	17.506
4.1707	17.641
4.1673	17.748
4.164	17.848
4.1606	17.949
4.1573	18.049
4.154	18.146
4.1506	18.242
4.1473	18.349
4.144	18.462
4.1407	18.573
4.1374	18.673
4.1341	18.774
4.1308	18.879
4.1275	18.967
4.1242	19.074
4.1209	19.198
4.1177	19.312
4.1144	19.448
4.1111	19.559
4.1079	19.663
4.1046	19.785
4.1014	19.899
4.0981	20.026
4.0949	20.148
4.0917	20.238
4.0884	20.332
4.0852	20.446
4.082	20.546
4.0788	20.638
4.0756	20.731
4.0724	20.795
4.0692	20.853
4.066	20.907
4.0628	20.974
4.0596	21.007
4.0565	21.027
4.0533	21.058
4.0501	21.071
4.047	21.074
4.0438	21.089
4.0406	21.088
4.0375	21.09
4.0344	21.099
4.0312	21.105
4.0281	21.108
4.025	21.105
4.0218	21.109
4.0187	21.121
4.0156	21.13
4.0125	21.138
4.0094	21.152
4.0063	21.191
4.0032	21.222
4.0001	21.232
3.997	21.264
3.994	21.327
3.9909	21.369
3.9878	21.386
3.9847	21.439
3.9817	21.529
3.9786	21.591
3.9756	21.651
3.9725	21.722
3.9695	21.813
3.9665	21.908
3.9634	22.015
3.9604	22.094
3.9574	22.182
3.9544	22.272
3.9513	22.364
3.9483	22.448
3.9453	22.539
3.9423	22.617
3.9393	22.711
3.9363	22.798
3.9333	22.851
3.9304	22.894
3.9274	22.969
3.9244	23.011
3.9214	23.038
3.9185	23.091
3.9155	23.119
3.9126	23.133
3.9096	23.125
3.9067	23.102
3.9037	23.098
3.9008	23.096
3.8979	23.055
3.8949	23.013
3.892	22.988
3.8891	22.97
3.8862	22.956
3.8833	22.909
3.8804	22.883
3.8775	22.837
3.8746	22.823
3.8717	22.808
3.8688	22.788
3.8659	22.784
3.863	22.764
3.8601	22.77
3.8573	22.807
3.8544	22.818
3.8515	22.832
3.8487	22.85
3.8458	22.873
3.843	22.911
3.8401	22.936
3.8373	22.943
3.8344	22.99
3.8316	23.057
3.8288	23.12
3.8259	23.147
3.8231	23.19
3.8203	23.229
3.8175	23.259
3.8147	23.314
3.8119	23.373
3.8091	23.372
3.8063	23.382
3.8035	23.385
3.8007	23.379
3.7979	23.389
3.7951	23.392
3.7924	23.379
3.7896	23.356
3.7868	23.315
3.7841	23.281
3.7813	23.268
3.7785	23.225
3.7758	23.165
3.773	23.106
3.7703	23.062
3.7676	23.027
3.7648	22.971
3.7621	22.908
3.7594	22.885
3.7566	22.844
3.7539	22.808
3.7512	22.763
3.7485	22.722
3.7458	22.692
3.7431	22.664
3.7404	22.656
3.7377	22.669
3.735	22.674
3.7323	22.651
3.7296	22.669
3.7269	22.719
3.7242	22.732
3.7216	22.744
3.7189	22.776
3.7162	22.838
3.7136	22.865
3.7109	22.891
3.7083	22.939
3.7056	22.986
3.703	23.048
3.7003	23.094
3.6977	23.152
3.695	23.203
3.6924	23.226
3.6898	23.281
3.6872	23.337
3.6845	23.389
3.6819	23.423
3.6793	23.446
3.6767	23.5
3.6741	23.543
3.6715	23.577
3.6689	23.597
3.6663	23.601
3.6637	23.611
3.6611	23.628
3.6585	23.623
3.656	23.608
3.6534	23.614
3.6508	23.615
3.6482	23.603
3.6457	23.584
3.6431	23.554
3.6406	23.525
3.638	23.497
3.6355	23.437
3.6329	23.391
3.6304	23.351
3.6278	23.303
3.6253	23.273
3.6227	23.249
3.6202	23.201
3.6177	23.139
3.6152	23.072
3.6127	23.043
3.6101	23.023
3.6076	22.984
3.6051	22.923
3.6026	22.877
3.6001	22.846
3.5976	22.796
3.5951	22.717
3.5926	22.658
3.5901	22.632
3.5876	22.607
3.5852	22.553
3.5827	22.498
3.5802	22.468
3.5777	22.422
3.5753	22.343
3.5728	22.298
3.5704	22.272
3.5679	22.22
3.5654	22.139
3.563	22.083
3.5605	22.054
3.5581	22.005
3.5557	21.924
3.5532	21.862
3.5508	21.793
3.5484	21.713
3.5459	21.611
3.5435	21.555
3.5411	21.527
3.5387	21.431
3.5363	21.332
3.5338	21.236
3.5314	21.156
3.529	21.086
3.5266	21.004
3.5242	20.933
3.5218	20.816
3.5195	20.653
3.5171	20.504
3.5147	20.417
3.5123	20.368
3.5099	20.268
3.5075	20.124
3.5052	19.973
3.5028	19.919
3.5004	19.896
3.4981	19.875
3.4957	19.888
3.4934	19.882
3.491	19.852
3.4887	19.85
3.4863	19.834
3.484	19.811
3.4816	19.75
3.4793	19.707
3.477	19.658
3.4746	19.591
3.4723	19.566
3.47	19.547
3.4677	19.479
3.4653	19.381
3.463	19.304
3.4607	19.199
3.4584	19.078
3.4561	18.993
3.4538	18.882
3.4515	18.746
3.4492	18.654
3.4469	18.551
3.4446	18.418
3.4423	18.333
3.44	18.257
3.4378	18.142
3.4355	18.073
3.4332	18.042
3.4309	17.932
3.4287	17.803
3.4264	17.695
3.4241	17.597
3.4219	17.486
3.4196	17.357
3.4174	17.238
3.4151	17.104
3.4129	17.032
3.4106	17.012
3.4084	16.956
3.4061	16.911
3.4039	16.87
3.4017	16.801
3.3994	16.75
3.3972	16.668
3.395	16.564
3.3928	16.455
3.3906	16.364
3.3883	16.262
3.3861	16.16
3.3839	16.077
3.3817	15.989
3.3795	15.894
3.3773	15.803
3.3751	15.767
3.3729	15.698
3.3707	15.58
3.3685	15.533
3.3663	15.486
3.3641	15.403
3.362	15.354
3.3598	15.301
3.3576	15.194
3.3554	15.118
3.3533	15.046
3.3511	14.967
3.3489	14.883
3.3468	14.813
3.3446	14.739
3.3425	14.674
3.3403	14.595
3.3382	14.498
3.336	14.432
3.3339	14.388
3.3317	14.29
3.3296	14.16
3.3274	14.069
3.3253	14.008
3.3232	13.934
3.321	13.818
3.3189	13.704
3.3168	13.612
3.3147	13.559
3.3126	13.505
3.3104	13.399
3.3083	13.26
3.3062	13.154
3.3041	13.051
3.302	12.933
3.2999	12.854
3.2978	12.782
3.2957	12.677
3.2936	12.565
3.2915	12.458
3.2894	12.374
3.2874	12.326
3.2853	12.243
3.2832	12.139
3.2811	12.04
3.279	11.968
3.277	11.879
3.2749	11.766
3.2728	11.693
3.2708	11.605
3.2687	11.494
3.2666	11.382
3.2646	11.311
3.2625	11.264
3.2605	11.169
3.2584	11.089
3.2564	10.977
3.2543	10.92
3.2523	10.84
3.2503	10.717
3.2482	10.625
3.2462	10.545
3.2442	10.449
3.2421	10.386
3.2401	10.342
3.2381	10.245
3.2361	10.157
3.234	10.072
3.232	9.9782
3.23	9.8795
3.228	9.8428
3.226	9.7767
3.224	9.6929
3.222	9.6019
3.22	9.5202
3.218	9.5037
3.216	9.4238
3.214	9.3062
3.212	9.2218
3.21	9.1546
3.208	9.0857
3.206	9.0118
3.204	8.9168
3.2021	8.8429
3.2001	8.7807
3.1981	8.7023
3.1961	8.6504
3.1942	8.5952
3.1922	8.5109
3.1902	8.4361
3.1883	8.3676
3.1863	8.2883
3.1844	8.2383
3.1824	8.204
3.1805	8.1377
3.1785	8.0506
3.1766	8.016
3.1746	7.957
3.1727	7.8597
3.1707	7.7991
3.1688	7.7346
3.1669	7.638
3.1649	7.5629
3.163	7.5525
3.1611	7.536
3.1591	7.437
3.1572	7.3778
3.1553	7.3361
3.1534	7.2861
3.1515	7.2075
3.1495	7.176
3.1476	7.1329
3.1457	7.0678
3.1438	7.0152
3.1419	6.9612
3.14	6.9219
3.1381	6.8426
3.1362	6.7902
3.1343	6.7405
3.1324	6.6491
3.1305	6.6136
3.1286	6.6107
3.1268	6.5906
3.1249	6.5259
3.123	6.4819
3.1211	6.4277
3.1192	6.381
3.1174	6.3777
3.1155	6.3398
3.1136	6.2896
3.1117	6.2571
3.1099	6.2508
3.108	6.2055
3.1061	6.126
3.1043	6.1115
3.1024	6.0902
3.1006	6.0424
3.0987	5.9848
3.0969	5.9519
3.095	5.9749
3.0932	5.9675
3.0913	5.9202
3.0895	5.9266
3.0876	5.928
3.0858	5.8766
3.084	5.873
3.0821	5.8349
3.0803	5.8036
3.0785	5.7887
3.0766	5.7513
3.0748	5.7229
3.073	5.7189
3.0712	5.6803
3.0694	5.6556
3.0675	5.6431
3.0657	5.6282
3.0639	5.6071
3.0621	5.6203
3.0603	5.6154
3.0585	5.5775
3.0567	5.5664
3.0549	5.5635
3.0531	5.5448
3.0513	5.4948
3.0495	5.4778
3.0477	5.4423
3.0459	5.4356
3.0441	5.4918
3.0423	5.474
3.0406	5.4404
3.0388	5.3835
3.037	5.3752
3.0352	5.3771
3.0334	5.3582
3.0317	5.3168
3.0299	5.2924
3.0281	5.3016
3.0264	5.294
3.0246	5.2459
3.0228	5.2495
3.0211	5.2938
3.0193	5.2763
3.0176	5.2272
3.0158	5.1711
3.014	5.1742
3.0123	5.159
3.0105	5.1612
3.0088	5.142
3.007	5.0645
3.0053	5.0693
3.0036	5.0986
3.0018	5.0702
3.0001	5.021
2.9984	5.0015
2.9966	5.0205
2.9949	4.9691
2.9932	4.9608
2.9914	5.0044
2.9897	4.9068
2.988	4.8812
2.9863	4.9125
2.9845	4.9168
2.9828	4.8628
2.9811	4.8379
2.9794	4.8448
2.9777	4.8026
2.976	4.786
2.9743	4.7804
2.9726	4.7901
2.9709	4.778
2.9692	4.7351
2.9675	4.7006
2.9658	4.7306
2.9641	4.7219
2.9624	4.6887
2.9607	4.6411
2.959	4.6395
2.9573	4.6515
2.9556	4.6477
2.9539	4.697
2.9523	4.6852
2.9506	4.6492
2.9489	4.6404
2.9472	4.6411
2.9455	4.6496
2.9439	4.6596
2.9422	4.6809
2.9405	4.6984
2.9389	4.6601
2.9372	4.6653
2.9355	4.6688
2.9339	4.6804
2.9322	4.6617
2.9306	4.6326
2.9289	4.6264
2.9272	4.6563
2.9256	4.6558
2.9239	4.6643
2.9223	4.6949
2.9207	4.6766
2.919	4.6435
2.9174	4.625
2.9157	4.6402
2.9141	4.6234
2.9124	4.6425
2.9108	4.6984
2.9092	4.7358
2.9075	4.7105
2.9059	4.6769
2.9043	4.6863
2.9027	4.683
2.901	4.7294
2.8994	4.786
2.8978	4.7849
2.8962	4.7581
2.8946	4.7467
2.8929	4.778
2.8913	4.7725
2.8897	4.7425
2.8881	4.7415
2.8865	4.7872
2.8849	4.8187
2.8833	4.8415
2.8817	4.8571
2.8801	4.8242
2.8785	4.8268
2.8769	4.8879
2.8753	4.8516
2.8737	4.8093
2.8721	4.8156
2.8705	4.8715
2.8689	4.8988
2.8673	4.8727
2.8658	4.9028
2.8642	4.9068
2.8626	4.8516
2.861	4.9042
2.8594	4.9952
2.8579	4.9952
2.8563	4.9279
2.8547	4.8689
2.8531	4.9002
2.8516	4.9326
2.85	4.8955
2.8484	4.8708
2.8469	4.8902
2.8453	4.903
2.8437	4.8872
2.8422	4.9104
2.8406	4.8874
2.8391	4.8853
2.8375	4.9106
2.836	4.8929
2.8344	4.867
2.8329	4.8415
2.8313	4.8604
2.8298	4.8441
2.8282	4.7986
2.8267	4.8083
2.8252	4.8126
2.8236	4.8085
2.8221	4.8067
2.8205	4.8173
2.819	4.8012
2.8175	4.804
2.8159	4.8339
2.8144	4.7891
2.8129	4.7702
2.8114	4.7737
2.8098	4.7553
2.8083	4.7716
2.8068	4.8031
2.8053	4.7643
2.8038	4.7662
2.8022	4.8367
2.8007	4.8474
2.7992	4.8126
2.7977	4.7858
2.7962	4.7927
2.7947	4.773
2.7932	4.742
2.7917	4.7041
2.7902	4.6833
2.7887	4.6795
2.7872	4.6598
2.7857	4.6693
2.7842	4.7257
2.7827	4.6996
2.7812	4.6416
2.7797	4.6485
2.7782	4.6826
2.7767	4.6747
2.7752	4.67
2.7738	4.6887
2.7723	4.698
2.7708	4.7145
2.7693	4.715
2.7678	4.7015
2.7664	4.6946
2.7649	4.7117
2.7634	4.6856
2.7619	4.5994
2.7605	4.634
2.759	4.7626
2.7575	4.8462
2.7561	4.8685
2.7546	4.8874
2.7531	4.9165
2.7517	5.0139
2.7502	5.0662
2.7488	5.079
2.7473	5.1316
2.7458	5.1822
2.7444	5.2339
2.7429	5.3182
2.7415	5.3686
2.74	5.4048
2.7386	5.4273
2.7371	5.524
2.7357	5.635
2.7343	5.7167
2.7328	5.8467
2.7314	5.9481
2.7299	6.0772
2.7285	6.2124
2.7271	6.3121
2.7256	6.395
2.7242	6.466
2.7228	6.6503
2.7213	6.8615
2.7199	7.0415
2.7185	7.2769
2.7171	7.5113
2.7156	7.6404
2.7142	7.764
2.7128	7.8374
2.7114	7.8592
2.71	7.9189
2.7085	8.0053
2.7071	8.1102
2.7057	8.2317
2.7043	8.4683
2.7029	8.8666
2.7015	9.3852
2.7001	10.007
2.6987	10.703
2.6973	11.453
2.6959	12.143
2.6945	12.827
2.6931	13.523
2.6917	14.262
2.6903	14.982
2.6889	15.679
2.6875	16.421
2.6861	17.149
2.6847	17.773
2.6833	18.338
2.6819	18.884
2.6805	19.399
2.6791	19.828
2.6778	20.211
2.6764	20.469
2.675	20.772
2.6736	21.148
2.6722	21.4
2.6709	21.449
2.6695	21.702
2.6681	22.036
2.6667	22.171
2.6654	22.36
2.664	22.647
2.6626	22.952
2.6613	23.159
2.6599	23.275
2.6585	23.425
2.6572	23.59
2.6558	23.692
2.6545	23.831
2.6531	23.947
2.6517	24.013
2.6504	24.138
2.649	24.299
2.6477	24.44
2.6463	24.515
2.645	24.612
2.6436	24.69
2.6423	24.755
2.6409	24.876
2.6396	24.981
2.6382	25.025
2.6369	25.103
2.6356	25.22
2.6342	25.272
2.6329	25.329
2.6315	25.333
2.6302	25.332
2.6289	25.516
2.6275	25.628
2.6262	25.63
2.6249	25.777
2.6236	25.929
2.6222	25.961
2.6209	25.88
2.6196	25.934
2.6183	26.052
2.6169	26.047
2.6156	26.19
2.6143	26.318
2.613	26.353
2.6117	26.398
2.6103	26.409
2.609	26.451
2.6077	26.508
2.6064	26.455
2.6051	26.464
2.6038	26.637
2.6025	26.736
2.6012	26.79
2.5999	26.83
2.5986	26.889
2.5973	26.882
2.596	26.702
2.5947	26.583
2.5934	26.751
2.5921	26.969
2.5908	27.054
2.5895	27.049
2.5882	27.021
2.5869	27.051
2.5856	27.085
2.5843	26.99
2.583	26.976
2.5817	27.064
2.5805	27.084
2.5792	27.134
2.5779	27.166
2.5766	27.164
2.5753	27.16
2.5741	27.109
2.5728	27.125
2.5715	27.193
2.5702	27.166
2.569	27.194
2.5677	27.234
2.5664	27.253
2.5651	27.27
2.5639	27.222
2.5626	27.216
2.5613	27.242
2.5601	27.292
2.5588	27.346
2.5575	27.329
2.5563	27.354
2.555	27.373
2.5538	27.341
2.5525	27.343
2.5513	27.352
2.55	27.366
2.5487	27.363
2.5475	27.336
2.5462	27.353
2.545	27.395
2.5437	27.42
2.5425	27.42
2.5413	27.453
2.54	27.495
2.5388	27.489
2.5375	27.465
2.5363	27.445
2.535	27.455
2.5338	27.476
2.5326	27.509
2.5313	27.527
2.5301	27.51
2.5289	27.507
2.5276	27.591
2.5264	27.601
2.5252	27.592
2.5239	27.58
2.5227	27.594
2.5215	27.603
2.5202	27.615
2.519	27.65
2.5178	27.703
2.5166	27.733
2.5154	27.697
2.5141	27.674
2.5129	27.714
2.5117	27.718
2.5105	27.709
2.5093	27.719
2.5081	27.711
2.5068	27.709
2.5056	27.728
2.5044	27.805
2.5032	27.869
2.502	27.895
2.5008	27.904
2.4996	27.94
2.4984	27.961
2.4972	27.959
2.496	27.935
2.4948	27.944
2.4936	27.979
2.4924	27.995
2.4912	28.033
2.49	28.063
2.4888	28.086
2.4876	28.102
2.4864	28.112
2.4852	28.166
2.484	28.216
2.4828	28.266
2.4816	28.289
2.4805	28.284
2.4793	28.303
2.4781	28.353
2.4769	28.327
2.4757	28.308
2.4745	28.31
2.4734	28.339
2.4722	28.382
2.471	28.416
2.4698	28.424
2.4686	28.395
2.4675	28.399
2.4663	28.434
2.4651	28.47
2.464	28.464
2.4628	28.434
2.4616	28.468
2.4604	28.484
2.4593	28.442
2.4581	28.465
2.4569	28.487
2.4558	28.516
2.4546	28.533
2.4535	28.546
2.4523	28.538
2.4511	28.53
2.45	28.59
2.4488	28.612
2.4477	28.632
2.4465	28.647
2.4454	28.65
2.4442	28.684
2.4431	28.716
2.4419	28.743
2.4408	28.744
2.4396	28.738
2.4385	28.773
2.4373	28.836
2.4362	28.86
2.435	28.894
2.4339	28.943
2.4327	28.924
2.4316	28.948
2.4305	29.028
2.4293	29.052
2.4282	29.086
2.427	29.107
2.4259	29.132
2.4248	29.155
2.4236	29.154
2.4225	29.167
2.4214	29.224
2.4202	29.233
2.4191	29.246
2.418	29.312
2.4169	29.342
2.4157	29.34
2.4146	29.336
2.4135	29.382
2.4124	29.377
2.4112	29.37
2.4101	29.385
2.409	29.416
2.4079	29.417
2.4068	29.408
2.4056	29.438
2.4045	29.469
2.4034	29.509
2.4023	29.517
2.4012	29.44
2.4001	29.429
2.399	29.482
2.3979	29.552
2.3967	29.542
2.3956	29.496
2.3945	29.484
2.3934	29.542
2.3923	29.551
2.3912	29.558
2.3901	29.615
2.389	29.617
2.3879	29.608
2.3868	29.634
2.3857	29.609
2.3846	29.593
2.3835	29.64
2.3824	29.697
2.3813	29.716
2.3802	29.763
2.3791	29.787
2.3781	29.77
2.377	29.743
2.3759	29.769
2.3748	29.785
2.3737	29.793
2.3726	29.84
2.3715	29.905
2.3704	29.917
2.3694	29.89
2.3683	29.843
2.3672	29.856
2.3661	29.909
2.365	29.91
2.364	29.881
2.3629	29.854
2.3618	29.816
2.3607	29.771
2.3597	29.819
2.3586	29.855
2.3575	29.815
2.3564	29.83
2.3554	29.835
2.3543	29.807
2.3532	29.804
2.3522	29.849
2.3511	29.921
2.35	29.948
2.349	29.966
2.3479	29.941
2.3468	29.933
2.3458	29.992
2.3447	30.064
2.3436	30.088
2.3426	30.128
2.3415	30.165
2.3405	30.167
2.3394	30.232
2.3384	30.324
2.3373	30.372
2.3363	30.43
2.3352	30.524
2.3342	30.563
2.3331	30.563
2.3321	30.607
2.331	30.735
2.33	30.829
2.3289	30.893
2.3279	30.965
2.3268	30.974
2.3258	31.071
2.3247	31.154
2.3237	31.207
2.3226	31.312
2.3216	31.383
2.3206	31.437
2.3195	31.489
2.3185	31.579
2.3175	31.659
2.3164	31.695
2.3154	31.736
2.3144	31.81
2.3133	31.841
2.3123	31.878
2.3113	31.986
2.3102	32.05
2.3092	32.088
2.3082	32.15
2.3071	32.171
2.3061	32.255
2.3051	32.353
2.3041	32.361
2.303	32.404
2.302	32.464
2.301	32.513
2.3	32.5
2.299	32.539
2.2979	32.591
2.2969	32.547
2.2959	32.535
2.2949	32.629
2.2939	32.709
2.2929	32.717
2.2918	32.711
2.2908	32.696
2.2898	32.742
2.2888	32.769
2.2878	32.77
2.2868	32.806
2.2858	32.806
2.2848	32.805
2.2838	32.775
2.2828	32.782
2.2818	32.845
2.2808	32.806
2.2798	32.804
2.2787	32.882
2.2777	32.802
2.2767	32.732
2.2757	32.692
2.2747	32.677
2.2738	32.715
2.2728	32.724
2.2718	32.716
2.2708	32.605
2.2698	32.57
2.2688	32.578
2.2678	32.546
2.2668	32.509
2.2658	32.464
2.2648	32.383
2.2638	32.3
2.2628	32.274
2.2618	32.187
2.2609	32.143
2.2599	32.164
2.2589	32.143
2.2579	32.077
2.2569	32.016
2.2559	32.032
2.255	32.02
2.254	31.93
2.253	31.956
2.252	31.982
2.251	31.987
2.2501	32.049
2.2491	32.074
2.2481	32.138
2.2471	32.153
2.2462	32.115
2.2452	32.168
2.2442	32.198
2.2433	32.24
2.2423	32.328
2.2413	32.39
2.2403	32.392
2.2394	32.37
2.2384	32.39
2.2374	32.427
2.2365	32.437
2.2355	32.412
2.2345	32.409
2.2336	32.422
2.2326	32.442
2.2317	32.394
2.2307	32.376
2.2297	32.426
2.2288	32.402
2.2278	32.348
2.2269	32.333
2.2259	32.264
2.225	32.286
2.224	32.281
2.2231	32.235
2.2221	32.16
2.2211	32.11
2.2202	32.044
2.2192	32.003
2.2183	31.947
2.2173	31.848
2.2164	31.745
2.2155	31.643
2.2145	31.52
2.2136	31.372
2.2126	31.216
2.2117	31.022
2.2107	30.874
2.2098	30.764
2.2088	30.636
2.2079	30.581
2.207	30.608
2.206	30.645
2.2051	30.714
2.2041	30.777
2.2032	30.84
2.2023	30.893
2.2013	30.959
2.2004	31.011
2.1995	31.082
2.1985	31.111
2.1976	31.143
2.1967	31.23
2.1957	31.24
2.1948	31.216
2.1939	31.248
2.193	31.305
2.192	31.433
2.1911	31.537
2.1902	31.559
2.1893	31.617
2.1883	31.706
2.1874	31.781
2.1865	31.818
2.1856	31.845
2.1846	31.916
2.1837	32.007
2.1828	32.112
2.1819	32.123
2.181	32.152
2.18	32.209
2.1791	32.191
2.1782	32.228
2.1773	32.279
2.1764	32.326
2.1755	32.35
2.1746	32.403
2.1736	32.469
2.1727	32.511
2.1718	32.537
2.1709	32.6
2.17	32.595
2.1691	32.599
2.1682	32.636
2.1673	32.691
2.1664	32.783
2.1655	32.748
2.1646	32.715
2.1637	32.742
2.1628	32.741
2.1619	32.762
2.161	32.798
2.1601	32.771
2.1592	32.834
2.1583	32.861
2.1574	32.837
2.1565	32.846
2.1556	32.896
2.1547	32.952
2.1538	32.919
2.1529	32.904
2.152	32.963
2.1511	32.955
2.1502	32.891
2.1493	32.9
2.1484	32.96
2.1475	32.979
2.1466	33.018
2.1458	32.988
2.1449	32.986
2.144	33.054
2.1431	33.109
2.1422	33.117
2.1413	33.064
2.1404	33.023
2.1396	33.03
2.1387	33.058
2.1378	33.034
2.1369	33.049
2.136	33.051
2.1352	33.021
2.1343	33.015
2.1334	33.022
2.1325	33.005
2.1316	33.031
2.1308	33.061
2.1299	33.048
2.129	33.018
2.1281	33.017
2.1273	33.039
2.1264	32.98
2.1255	32.938
2.1247	32.864
2.1238	32.836
2.1229	32.796
2.122	32.751
2.1212	32.761
2.1203	32.78
2.1194	32.751
2.1186	32.748
2.1177	32.739
2.1168	32.732
2.116	32.786
2.1151	32.796
2.1143	32.687
2.1134	32.706
2.1125	32.706
2.1117	32.728
2.1108	32.683
2.11	32.609
2.1091	32.592
2.1082	32.641
2.1074	32.667
2.1065	32.654
2.1057	32.632
2.1048	32.595
2.104	32.575
2.1031	32.58
2.1023	32.52
2.1014	32.591
2.1005	32.616
2.0997	32.544
2.0988	32.547
2.098	32.556
2.0971	32.568
2.0963	32.662
2.0955	32.607
2.0946	32.54
2.0938	32.557
2.0929	32.449
2.0921	32.384
2.0912	32.373
2.0904	32.379
2.0895	32.436
2.0887	32.494
2.0879	32.454
2.087	32.421
2.0862	32.449
2.0853	32.486
2.0845	32.513
2.0837	32.489
2.0828	32.454
2.082	32.413
2.0812	32.349
2.0803	32.331
2.0795	32.36
2.076	32.53
2.072	32.477
2.068	32.535
2.064	32.271
2.06	32.376
2.056	32.344
2.052	32.174
2.048	31.835
2.044	31.779
2.04	31.662
2.036	31.57
2.032	31.646
2.028	31.524
2.024	31.294
2.02	31.089
2.016	31.088
2.012	30.945
2.008	30.854
2.004	30.697
2	30.437
1.996	30.19
1.992	30.128
1.988	29.937
1.984	29.53
1.98	29.42
1.976	29.15
1.972	28.908
1.968	28.69
1.964	28.557
1.96	28.33
1.956	28.322
1.952	28.18
1.948	27.96
1.944	27.85
1.94	27.768
1.936	27.553
1.932	27.302
1.928	27.027
1.924	26.74
1.92	26.335
1.916	25.946
1.912	25.654
1.908	25.337
1.904	24.954
1.9	24.974
1.896	25.233
1.892	25.772
1.888	26.62
1.884	27.518
1.88	28.385
1.876	28.916
1.872	29.613
1.868	30.236
1.864	30.414
1.86	30.802
1.856	31.164
1.852	31.137
1.848	31.367
1.844	31.307
1.84	31.251
1.836	31.292
1.832	31.21
1.828	31.267
1.824	31.173
1.82	31.223
1.816	31.078
1.812	31.186
1.808	31.109
1.804	31.213
1.8	31.127
1.796	30.873
1.792	31.037
1.788	31.168
1.784	31.022
1.78	30.752
1.776	30.683
1.772	30.709
1.768	30.788
1.764	30.706
1.76	30.863
1.756	30.717
1.752	30.688
1.748	30.669
1.744	30.511
1.74	30.539
1.736	30.351
1.732	30.345
1.728	30.407
1.724	30.325
1.72	30.328
1.716	30.276
1.712	30.143
1.708	30.116
1.704	30.094
1.7	30.189
1.696	29.954
1.692	29.888
1.688	29.949
1.684	29.817
1.68	29.649
1.676	29.7
1.672	29.555
1.668	29.295
1.664	29.219
1.66	29.135
1.656	29.198
1.652	29.194
1.648	29.182
1.644	29.19
1.64	29.214
1.636	29.059
1.632	28.923
1.628	28.899
1.624	29.019
1.62	28.907
1.616	28.701
1.612	28.704
1.608	28.686
1.604	28.546
1.6	28.673
1.596	28.503
1.592	28.414
1.588	28.448
1.584	28.369
1.58	28.329
1.576	28.224
1.572	28.168
1.568	28.014
1.564	27.871
1.56	27.806
1.556	27.831
1.552	27.821
1.548	27.798
1.544	27.639
1.54	27.479
1.536	27.46
1.532	27.159
1.528	27.048
1.524	27.132
1.52	27.069
1.516	26.963
1.512	26.961
1.508	26.879
1.504	26.778
1.5	26.679
1.496	26.52
1.492	26.304
1.488	26.258
1.484	26.235
1.48	26.112
1.476	26.039
1.472	25.942
1.468	25.781
1.464	25.764
1.46	25.534
1.456	25.674
1.452	25.465
1.448	25.393
1.444	25.301
1.44	25.183
1.436	25.189
1.432	25.024
1.428	24.883
1.424	24.764
1.42	24.574
1.416	24.282
1.412	23.992
1.408	23.669
1.404	23.427
1.4	23.462
1.396	23.548
1.392	23.921
1.388	24.146
1.384	24.442
1.38	24.518
1.376	24.789
1.372	24.936
1.368	25.006
1.364	25.009
1.36	25.131
1.356	24.876
1.352	24.896
1.348	24.907
1.344	24.851
1.34	24.677
1.336	24.665
1.332	24.657
1.328	24.487
1.324	24.543
1.32	24.416
1.316	24.323
1.312	24.252
1.308	24.152
1.304	24.145
1.3	23.998
1.296	23.986
1.292	23.928
1.288	23.94
1.284	23.818
1.28	23.736
1.276	23.718
1.272	23.752
1.268	23.709
1.264	23.707
1.26	23.547
1.256	23.599
1.252	23.504
1.248	23.378
1.244	23.246
1.24	23.259
1.236	23.239
1.232	23.115
1.228	23.095
1.224	23.115
1.22	22.99
1.216	22.943
1.212	22.81
1.208	22.736
1.204	22.796
1.2	22.739
1.196	22.7
1.192	22.617
1.188	22.561
1.184	22.482
1.18	22.416
1.176	22.424
1.172	22.391
1.168	22.41
1.164	22.203
1.16	22.127
1.156	21.972
1.152	22.031
1.148	22.044
1.144	22.069
1.14	22.063
1.136	22.018
1.132	21.912
1.128	21.978
1.124	21.78
1.12	21.738
1.116	21.794
1.112	21.787
1.108	21.733
1.104	21.796
1.1	21.818
1.096	21.81
1.092	21.749
1.088	21.764
1.084	21.745
1.08	21.696
1.076	21.579
1.072	21.539
1.068	21.616
1.064	21.638
1.06	21.511
1.056	21.558
1.052	21.586
1.048	21.715
1.044	21.784
1.04	21.719
1.036	21.688
1.032	21.623
1.028	21.651
1.024	21.547
1.02	21.566
1.016	21.632
1.012	21.782
1.008	21.729
1.004	21.692
1	21.616
0.996	21.698
0.992	21.679
0.988	21.748
0.984	21.729
0.98	21.606
0.976	21.632
0.972	21.709
0.968	21.557
0.964	21.525
0.96	21.48
0.956	21.484
0.952	21.278
0.948	21.158
0.944	21.17
0.94	21.23
0.936	21.17
0.932	21.326
0.928	21.279
0.924	21.246
0.92	21.409
0.916	21.323
0.912	21.121
0.908	21.166
0.904	21.112
0.9	21.216
0.896	21.155
0.892	21.144
0.888	21.519
0.884	21.452
0.88	21.394
0.876	21.365
0.872	21.341
0.868	21.229
0.864	21.166
0.86	21.303
0.856	21.407
0.852	21.306
0.848	21.277
0.844	21.419
0.84	21.212
0.836	21.27
0.832	21.194
0.828	21.227
0.824	21.214
0.82	21.429
0.816	21.257
0.812	21.289
0.808	21.283
0.804	21.335
0.8	21.293
0.799	21.293
0.798	21.292
0.797	21.49
0.796	21.497
0.795	21.568
0.794	21.46
0.793	21.582
0.792	21.61
0.791	21.56
0.79	21.645
0.789	21.512
0.788	21.284
0.787	21.318
0.786	21.283
0.785	21.361
0.784	21.512
0.783	21.509
0.782	21.562
0.781	21.459
0.78	21.539
0.779	21.355
0.778	21.355
0.777	21.369
0.776	21.289
0.775	21.192
0.774	21.055
0.773	21.178
0.772	21.113
0.771	21.148
0.77	21.29
0.769	21.25
0.768	21.274
0.767	21.464
0.766	21.271
0.765	21.277
0.764	21.168
0.763	21.124
0.762	20.904
0.761	20.876
0.76	20.926
0.759	21.065
0.758	21.055
0.757	21.069
0.756	20.956
0.755	20.949
0.754	20.866
0.753	20.814
0.752	20.737
0.751	20.743
0.75	20.66
0.749	20.599
0.748	20.636
0.747	20.615
0.746	20.594
0.745	20.695
0.744	20.772
0.743	20.56
0.742	20.486
0.741	20.63
0.74	20.7
0.739	20.778
0.738	20.702
0.737	20.588
0.736	20.601
0.735	20.645
0.734	20.796
0.733	20.585
0.732	20.461
0.731	20.584
0.73	20.474
0.729	20.675
0.728	20.762
0.727	20.619
0.726	20.529
0.725	20.607
0.724	20.48
0.723	20.527
0.722	20.542
0.721	20.621
0.72	20.795
0.719	20.754
0.718	20.423
0.717	20.533
0.716	20.627
0.715	20.723
0.714	20.39
0.713	20.328
0.712	20.345
0.711	20.686
0.71	20.611
0.709	20.627
0.708	20.695
0.707	20.719
0.706	20.431
0.705	20.649
0.704	20.769
0.703	20.876
0.702	20.849
0.701	20.523
0.7	20.514
0.699	20.514
0.698	20.848
0.697	20.786
0.696	20.815
0.695	20.79
0.694	20.759
0.693	20.779
0.692	21.119
0.691	20.942
0.69	20.834
0.689	20.77
0.688	20.758
0.687	20.884
0.686	20.877
0.685	20.992
0.684	21.005
0.683	21.033
0.682	20.786
0.681	20.727
0.68	20.805
0.679	20.827
0.678	20.936
0.677	20.847
0.676	20.813
0.675	20.908
0.674	20.878
0.673	20.836
0.672	20.982
0.671	20.891
0.67	21.048
0.669	21.227
0.668	21.074
0.667	21.234
0.666	20.952
0.665	20.968
0.664	20.929
0.663	20.796
0.662	20.901
0.661	20.803
0.66	20.812
0.659	20.932
0.658	20.904
0.657	20.858
0.656	20.777
0.655	20.942
0.654	20.986
0.653	21.038
0.652	21.071
0.651	21.021
0.65	20.974
0.649	21.061
0.648	21.208
0.647	21.242
0.646	21.242
0.645	21.127
0.644	21.128
0.643	21.159
0.642	21.223
0.641	21.174
0.64	21.189
0.639	21.327
0.638	21.234
0.637	21.047
0.636	20.997
0.635	20.942
0.634	20.979
0.633	21.258
0.632	21.275
0.631	21.469
0.63	21.217
0.629	21.332
0.628	21.231
0.627	20.974
0.626	21.169
0.625	21.132
0.624	21.405
0.623	21.458
0.622	21.555
0.621	21.312
0.62	21.142
0.619	21.238
0.618	21.253
0.617	21.33
0.616	21.323
0.615	21.537
0.614	21.334
0.613	21.428
0.612	21.511
0.611	21.593
0.61	21.458
0.609	21.213
0.608	21.313
0.607	21.33
0.606	21.514
0.605	21.603
0.604	21.6
0.603	21.516
0.602	21.446
0.601	21.656
0.6	21.45
0.599	21.451
0.598	21.459
0.597	21.486
0.596	21.291
0.595	21.355
0.594	21.485
0.593	21.514
0.592	21.634
0.591	21.412
0.59	21.371
0.589	21.274
0.588	21.427
0.587	21.292
0.586	21.51
0.585	21.434
0.584	21.504
0.583	21.522
0.582	21.645
0.581	21.269
0.58	21.614
0.579	21.634
0.578	21.52
0.577	21.49
0.576	21.411
0.575	21.347
0.574	21.611
0.573	21.555
0.572	21.519
0.571	21.409
0.57	21.434
0.569	21.419
0.568	21.2
0.567	21.381
0.566	21.362
0.565	21.466
0.564	21.418
0.563	21.472
0.562	21.435
0.561	21.442
0.56	21.381
0.559	21.396
0.558	20.534
0.557	20.523
0.556	20.303
0.555	20.39
0.554	20.722
0.553	20.837
0.552	20.686
0.551	20.792
0.55	20.746
0.549	20.646
0.548	20.523
0.547	20.408
0.546	20.542
0.545	20.417
0.544	20.274
0.543	20.331
0.542	20.495
0.541	20.298
0.54	20.324
0.539	19.946
0.538	20.26
0.537	20.517
0.536	20.43
0.535	20.228
0.534	20.25
0.533	20.159
0.532	20.159
0.531	20.403
0.53	20.311
0.529	20.223
0.528	20.282
0.527	20.173
0.526	19.892
0.525	19.674
0.524	20.139
0.523	20.114
0.522	20.041
0.521	19.933
0.52	19.917
0.519	20.029
0.518	19.755
0.517	19.572
0.516	19.535
0.515	19.344
0.514	19.562
0.513	19.631
0.512	19.431
0.511	19.62
0.51	19.585
0.509	19.4
0.508	19.295
0.507	19.46
0.506	19.623
0.505	19.464
0.504	19.36
0.503	19.426
0.502	19.436
0.501	19.425
0.5	19.294
0.499	19.532
0.498	19.37
0.497	19.184
0.496	19.072
0.495	18.87
0.494	18.92
0.493	18.925
0.492	18.864
0.491	18.841
0.49	18.772
0.489	18.617
0.488	18.811
0.487	18.89
0.486	18.632
0.485	18.24
0.484	18.33
0.483	18.618
0.482	18.573
0.481	18.418
0.48	18.287
0.479	18.278
0.478	18.295
0.477	18.189
0.476	18.249
0.475	18.333
0.474	17.986
0.473	18.148
0.472	18.059
0.471	18.155
0.47	18.054
0.469	17.949
0.468	17.968
0.467	17.993
0.466	17.868
0.465	17.741
0.464	17.707
0.463	17.575
0.462	17.53
0.461	17.774
0.46	17.75
0.459	17.642
0.458	17.683
0.457	17.472
0.456	17.644
0.455	17.578
0.454	17.505
0.453	17.511
0.452	17.681
0.451	17.495
0.45	17.517
0.449	17.607
0.448	17.424
0.447	17.468
0.446	17.336
0.445	17.089
0.444	16.848
0.443	16.604
0.442	16.725
0.441	16.863
0.44	16.658
0.439	16.532
0.438	16.718
0.437	16.714
0.436	16.64
0.435	16.576
0.434	16.371
0.433	16.513
0.432	16.181
0.431	16.206
0.43	16.044
0.429	16.036
0.428	16.084
0.427	16.045
0.426	16.014
0.425	15.891
0.424	15.747
0.423	15.726
0.422	15.463
0.421	15.288
0.42	15.139
0.419	15.267
0.418	15.26
0.417	15.494
0.416	15.589
0.415	15.474
0.414	15.327
0.413	15.017
0.412	15.098
0.411	14.953
0.41	14.635
0.409	14.862
0.408	14.768
0.407	14.649
0.406	14.345
0.405	14.406
0.404	14.399
0.403	14.149
0.402	14.207
0.401	14.154
0.4	13.819
