Name: Green Schist 
Type:  Rocks
Class:  Metamorphic 
Subclass: Schist 
Particle Size:  500-1500 Micrometer
Sample No.:   schist1.doc
Owner:  JHU
Wavelength Range:  All
Origin:  Sample No. 392, The Hunt and Salisbury Collection at the U.S. 
Geological Survey, Denver, Co.
Description: This is a medium to coarse-grained sample containing tremolite-
actinolite crystals and talc.  Amphibole is heavily altered to talc, and in addition to 
these phases there is quartz and some carbonate, as an alteration product, along 
with opaque grains.  There may be heavily altered plagioclase present in this 
sample as well.  Modes were 50.6% talc, 38% amphibole, 5.4% quartz, 3.6% 
calcite, 2.4% plagioclase remnants.   
Measurement:  Directional (10 Degree) Hemispherical Reflectance
First Column:  X
Second Column:  Y  
X Units:  Wavelength (micrometers)
Y Units:  Reflectance (percent)
First X Value: 14.9831	
Last X Value:  0.4
Number of X Values: 2868
Additional Information:  None

14.983	2.582
14.94	2.6282
14.897	2.7134
14.854	2.7802
14.812	2.7842
14.77	2.7269
14.728	2.6388
14.686	2.5721
14.645	2.524
14.603	2.4899
14.562	2.4563
14.521	2.4207
14.481	2.376
14.441	2.3151
14.4	2.2405
14.361	2.1709
14.321	2.1096
14.281	2.0591
14.242	2.0179
14.203	1.9881
14.164	1.9613
14.126	1.9334
14.087	1.9087
14.049	1.8993
14.011	1.9073
13.973	1.9334
13.936	1.9696
13.899	2.0032
13.861	2.0226
13.824	2.0241
13.788	2.0096
13.751	1.9904
13.715	1.9769
13.679	1.9812
13.643	2.0087
13.607	2.0586
13.571	2.1254
13.536	2.2005
13.5	2.2732
13.465	2.3383
13.43	2.3926
13.396	2.443
13.361	2.4986
13.327	2.5678
13.293	2.6497
13.259	2.7345
13.225	2.8053
13.191	2.8392
13.158	2.8143
13.124	2.7257
13.091	2.5837
13.058	2.4108
13.026	2.2344
12.993	2.0835
12.96	1.9791
12.928	1.9246
12.896	1.9097
12.864	1.9255
12.832	1.9601
12.8	2.0001
12.769	2.0369
12.737	2.0679
12.706	2.0892
12.675	2.0958
12.644	2.0906
12.614	2.0811
12.583	2.074
12.552	2.0764
12.522	2.0944
12.492	2.128
12.462	2.1695
12.432	2.2121
12.402	2.2519
12.373	2.2848
12.343	2.3116
12.314	2.3395
12.285	2.3748
12.256	2.4184
12.227	2.4676
12.198	2.5195
12.169	2.5697
12.141	2.6159
12.113	2.659
12.084	2.7047
12.056	2.7561
12.028	2.8115
12	2.8697
11.973	2.9275
11.945	2.9808
11.918	3.0275
11.89	3.0661
11.863	3.0976
11.836	3.1248
11.809	3.1532
11.782	3.1878
11.755	3.2316
11.729	3.2851
11.702	3.3479
11.676	3.4154
11.65	3.4814
11.624	3.5409
11.598	3.5913
11.572	3.6311
11.546	3.6621
11.52	3.6917
11.495	3.7296
11.469	3.7841
11.444	3.8584
11.419	3.9515
11.394	4.0574
11.369	4.1661
11.344	4.2707
11.319	4.3674
11.294	4.4538
11.27	4.5277
11.245	4.5885
11.221	4.6361
11.197	4.6695
11.173	4.6878
11.149	4.6944
11.125	4.6923
11.101	4.6856
11.077	4.6762
11.054	4.6679
11.03	4.6634
11.007	4.6643
10.983	4.6705
10.96	4.6783
10.937	4.6792
10.914	4.6636
10.891	4.6241
10.868	4.5613
10.846	4.4874
10.823	4.4247
10.8	4.3991
10.778	4.4308
10.755	4.5244
10.733	4.6724
10.711	4.8595
10.689	5.07
10.667	5.2938
10.645	5.527
10.623	5.7693
10.602	6.0194
10.58	6.2683
10.558	6.5053
10.537	6.7213
10.516	6.9105
10.494	7.0708
10.473	7.202
10.452	7.3046
10.431	7.3837
10.41	7.4436
10.389	7.4912
10.368	7.5343
10.348	7.5812
10.327	7.6368
10.306	7.7017
10.286	7.777
10.266	7.8675
10.245	7.9762
10.225	8.1041
10.205	8.25
10.185	8.4081
10.165	8.5668
10.145	8.7115
10.125	8.8306
10.106	8.919
10.086	8.9748
10.066	9.0018
10.047	9.0078
10.027	8.9978
10.008	8.9732
9.9887	8.9325
9.9695	8.8721
9.9504	8.7861
9.9313	8.6675
9.9123	8.5123
9.8934	8.3179
9.8746	8.082
9.8558	7.8123
9.8371	7.5307
9.8185	7.2693
9.7999	7.0635
9.7814	6.9477
9.763	6.9413
9.7447	7.0386
9.7264	7.2099
9.7082	7.4142
9.69	7.6101
9.6719	7.7621
9.6539	7.8521
9.636	7.8829
9.6181	7.867
9.6003	7.8192
9.5825	7.7503
9.5649	7.6669
9.5472	7.5717
9.5297	7.4647
9.5122	7.3541
9.4948	7.2539
9.4774	7.1743
9.4601	7.1199
9.4429	7.0858
9.4257	7.0611
9.4086	7.0296
9.3916	6.9771
9.3746	6.9008
9.3577	6.8042
9.3408	6.6941
9.324	6.5792
9.3073	6.4681
9.2906	6.3673
9.274	6.2773
9.2574	6.1963
9.2409	6.1212
9.2245	6.0464
9.2081	5.9663
9.1918	5.8754
9.1755	5.7714
9.1593	5.6547
9.1431	5.5273
9.127	5.394
9.111	5.262
9.095	5.1406
9.0791	5.0373
9.0632	4.9573
9.0474	4.9037
9.0316	4.8779
9.0159	4.8794
9.0003	4.9026
8.9847	4.9405
8.9691	4.9864
8.9536	5.0347
8.9382	5.0821
8.9228	5.1325
8.9075	5.1946
8.8922	5.2784
8.877	5.3878
8.8618	5.518
8.8467	5.6575
8.8316	5.7911
8.8166	5.9045
8.8016	5.9898
8.7867	6.0424
8.7718	6.0658
8.757	6.067
8.7422	6.0497
8.7275	6.0137
8.7129	5.959
8.6982	5.8818
8.6837	5.774
8.6692	5.6298
8.6547	5.452
8.6403	5.2512
8.6259	5.0394
8.6116	4.8296
8.5973	4.6354
8.583	4.4628
8.5688	4.3115
8.5547	4.18
8.5406	4.0675
8.5266	3.9735
8.5126	3.8966
8.4986	3.8348
8.4847	3.7862
8.4708	3.7493
8.457	3.7239
8.4432	3.7081
8.4295	3.6976
8.4158	3.6898
8.4022	3.6818
8.3886	3.6669
8.375	3.6413
8.3615	3.6036
8.3481	3.5558
8.3347	3.4985
8.3213	3.4322
8.3079	3.3604
8.2946	3.288
8.2814	3.2145
8.2682	3.1407
8.255	3.0658
8.2419	2.9903
8.2288	2.9133
8.2158	2.8326
8.2028	2.7473
8.1898	2.6587
8.1769	2.5666
8.164	2.4726
8.1512	2.3795
8.1384	2.2912
8.1256	2.2095
8.1129	2.1347
8.1002	2.066
8.0876	2.0035
8.075	1.9447
8.0624	1.8903
8.0499	1.8424
8.0374	1.8024
8.025	1.7695
8.0126	1.7415
8.0002	1.7176
7.9879	1.6961
7.9756	1.675
7.9634	1.6546
7.9512	1.6359
7.939	1.6179
7.9268	1.5995
7.9147	1.5805
7.9027	1.5623
7.8906	1.5464
7.8786	1.5329
7.8667	1.5227
7.8548	1.5154
7.8429	1.509
7.831	1.5031
7.8192	1.4988
7.8075	1.496
7.7957	1.4936
7.784	1.4922
7.7723	1.4926
7.7607	1.4936
7.7491	1.4955
7.7375	1.4993
7.726	1.5052
7.7145	1.5121
7.7031	1.518
7.6916	1.5227
7.6802	1.527
7.6689	1.5308
7.6575	1.5339
7.6462	1.5362
7.635	1.5386
7.6238	1.5424
7.6126	1.5464
7.6014	1.5511
7.5903	1.5571
7.5792	1.5632
7.5681	1.568
7.5571	1.571
7.5461	1.5746
7.5351	1.5803
7.5242	1.5871
7.5133	1.595
7.5024	1.6032
7.4916	1.6096
7.4807	1.6132
7.47	1.6156
7.4592	1.6189
7.4485	1.6238
7.4378	1.6305
7.4272	1.6385
7.4165	1.6463
7.4059	1.6532
7.3954	1.6584
7.3848	1.6636
7.3743	1.6698
7.3639	1.6767
7.3534	1.6838
7.343	1.6902
7.3326	1.6965
7.3223	1.7025
7.3119	1.7082
7.3016	1.7143
7.2914	1.7221
7.2811	1.7323
7.2709	1.7444
7.2607	1.7574
7.2506	1.7711
7.2404	1.7842
7.2303	1.7962
7.2203	1.8069
7.2102	1.8185
7.2002	1.8327
7.1902	1.8498
7.1803	1.8687
7.1703	1.8893
7.1604	1.9121
7.1506	1.9374
7.1407	1.9646
7.1309	1.9933
7.1211	2.0229
7.1113	2.0522
7.1016	2.0797
7.0919	2.1046
7.0822	2.1266
7.0725	2.1463
7.0629	2.1614
7.0533	2.1718
7.0437	2.1792
7.0341	2.1858
7.0246	2.1939
7.0151	2.2038
7.0056	2.2147
6.9962	2.2258
6.9867	2.2351
6.9773	2.2408
6.9679	2.2448
6.9586	2.2495
6.9493	2.2554
6.94	2.263
6.9307	2.2727
6.9214	2.2836
6.9122	2.2931
6.903	2.3014
6.8938	2.309
6.8847	2.3158
6.8755	2.3215
6.8664	2.3267
6.8573	2.3322
6.8483	2.3374
6.8393	2.3423
6.8302	2.3497
6.8213	2.3584
6.8123	2.3686
6.8034	2.3795
6.7944	2.3911
6.7855	2.403
6.7767	2.4146
6.7678	2.4255
6.759	2.4364
6.7502	2.4458
6.7414	2.4551
6.7327	2.4638
6.7239	2.4745
6.7152	2.4885
6.7065	2.5043
6.6979	2.5211
6.6892	2.5361
6.6806	2.547
6.672	2.5538
6.6634	2.5562
6.6549	2.5581
6.6464	2.5619
6.6378	2.5697
6.6294	2.5803
6.6209	2.5912
6.6124	2.6007
6.604	2.6083
6.5956	2.6142
6.5872	2.6201
6.5789	2.6275
6.5705	2.6348
6.5622	2.6393
6.5539	2.6393
6.5456	2.6346
6.5374	2.6275
6.5292	2.6206
6.5209	2.6171
6.5128	2.6178
6.5046	2.6211
6.4964	2.6242
6.4883	2.6242
6.4802	2.6197
6.4721	2.6104
6.464	2.5974
6.456	2.5813
6.448	2.5628
6.4399	2.5417
6.432	2.519
6.424	2.4949
6.416	2.4707
6.4081	2.4482
6.4002	2.4281
6.3923	2.4091
6.3844	2.389
6.3766	2.3679
6.3687	2.3464
6.3609	2.3255
6.3531	2.3063
6.3454	2.2895
6.3376	2.2756
6.3299	2.263
6.3221	2.2512
6.3144	2.2396
6.3068	2.2287
6.2991	2.2192
6.2914	2.2114
6.2838	2.2043
6.2762	2.1974
6.2686	2.1903
6.2611	2.1842
6.2535	2.1787
6.246	2.1747
6.2385	2.174
6.231	2.1763
6.2235	2.1806
6.216	2.1849
6.2086	2.1884
6.2011	2.1924
6.1937	2.1958
6.1863	2.1984
6.179	2.2012
6.1716	2.205
6.1643	2.21
6.157	2.2168
6.1496	2.2261
6.1424	2.2372
6.1351	2.2471
6.1278	2.2542
6.1206	2.2587
6.1134	2.2618
6.1062	2.2647
6.099	2.2689
6.0918	2.2763
6.0847	2.2865
6.0776	2.2964
6.0704	2.3047
6.0633	2.312
6.0563	2.3194
6.0492	2.326
6.0421	2.3319
6.0351	2.3374
6.0281	2.3435
6.0211	2.3485
6.0141	2.3513
6.0071	2.3532
6.0002	2.3558
5.9932	2.3577
5.9863	2.358
5.9794	2.3577
5.9725	2.3577
5.9657	2.358
5.9588	2.3561
5.952	2.3525
5.9451	2.3497
5.9383	2.3487
5.9315	2.3504
5.9247	2.3547
5.918	2.3613
5.9112	2.3696
5.9045	2.3764
5.8978	2.3812
5.8911	2.3864
5.8844	2.3949
5.8777	2.406
5.8711	2.4172
5.8644	2.4283
5.8578	2.4411
5.8512	2.4532
5.8446	2.4636
5.838	2.474
5.8314	2.4863
5.8249	2.4965
5.8184	2.5012
5.8118	2.5036
5.8053	2.5062
5.7988	2.5095
5.7923	2.5138
5.7859	2.5209
5.7794	2.5301
5.773	2.5382
5.7666	2.5434
5.7602	2.5477
5.7538	2.5517
5.7474	2.5548
5.741	2.5586
5.7347	2.5623
5.7283	2.5664
5.722	2.5718
5.7157	2.5796
5.7094	2.5879
5.7031	2.5955
5.6969	2.6017
5.6906	2.6059
5.6844	2.6081
5.6782	2.6099
5.6719	2.6137
5.6657	2.6204
5.6596	2.6277
5.6534	2.636
5.6472	2.6457
5.6411	2.6559
5.6349	2.6658
5.6288	2.6746
5.6227	2.6831
5.6166	2.6909
5.6106	2.6969
5.6045	2.7016
5.5984	2.7054
5.5924	2.7085
5.5864	2.7096
5.5804	2.7104
5.5744	2.7137
5.5684	2.7213
5.5624	2.7336
5.5564	2.7513
5.5505	2.7741
5.5445	2.7996
5.5386	2.8252
5.5327	2.8494
5.5268	2.8723
5.5209	2.8932
5.5151	2.9109
5.5092	2.927
5.5033	2.9424
5.4975	2.9564
5.4917	2.9699
5.4859	2.9836
5.4801	2.9981
5.4743	3.013
5.4685	3.0275
5.4628	3.0426
5.457	3.0589
5.4513	3.0753
5.4455	3.0931
5.4398	3.1134
5.4341	3.1359
5.4284	3.1586
5.4228	3.1793
5.4171	3.197
5.4114	3.2112
5.4058	3.2214
5.4002	3.2295
5.3945	3.2387
5.3889	3.2498
5.3833	3.2614
5.3778	3.2728
5.3722	3.2832
5.3666	3.2913
5.3611	3.2965
5.3555	3.2998
5.35	3.3031
5.3445	3.3078
5.339	3.3142
5.3335	3.3228
5.328	3.3334
5.3225	3.345
5.3171	3.3571
5.3116	3.3689
5.3062	3.3796
5.3008	3.3895
5.2954	3.399
5.29	3.4087
5.2846	3.4187
5.2792	3.4279
5.2738	3.4364
5.2684	3.4442
5.2631	3.4521
5.2578	3.4615
5.2524	3.4741
5.2471	3.4897
5.2418	3.5082
5.2365	3.5274
5.2312	3.5451
5.226	3.5617
5.2207	3.5785
5.2154	3.5956
5.2102	3.611
5.205	3.6235
5.1998	3.6325
5.1945	3.6375
5.1893	3.6384
5.1842	3.6399
5.179	3.6458
5.1738	3.6564
5.1686	3.6699
5.1635	3.6844
5.1584	3.6988
5.1532	3.7126
5.1481	3.7253
5.143	3.7388
5.1379	3.7547
5.1328	3.7732
5.1277	3.7928
5.1227	3.8132
5.1176	3.834
5.1126	3.8544
5.1075	3.8729
5.1025	3.8888
5.0975	3.9027
5.0925	3.916
5.0875	3.9281
5.0825	3.9409
5.0775	3.9541
5.0726	3.9671
5.0676	3.9799
5.0627	3.992
5.0577	4.0031
5.0528	4.0126
5.0479	4.0207
5.043	4.0282
5.038	4.0349
5.0332	4.0415
5.0283	4.0505
5.0234	4.0619
5.0185	4.0749
5.0137	4.0886
5.0088	4.1031
5.004	4.1173
4.9992	4.1289
4.9944	4.1379
4.9896	4.1443
4.9848	4.1478
4.98	4.149
4.9752	4.15
4.9704	4.1526
4.9657	4.1566
4.9609	4.162
4.9562	4.1672
4.9514	4.171
4.9467	4.1725
4.942	4.1727
4.9373	4.1727
4.9326	4.1741
4.9279	4.1774
4.9232	4.1834
4.9186	4.1916
4.9139	4.2016
4.9092	4.2132
4.9046	4.2269
4.9	4.2433
4.8953	4.2617
4.8907	4.2802
4.8861	4.2977
4.8815	4.3141
4.8769	4.3288
4.8723	4.342
4.8678	4.356
4.8632	4.3728
4.8586	4.3927
4.8541	4.4166
4.8495	4.4448
4.845	4.477
4.8405	4.5121
4.836	4.5478
4.8315	4.584
4.827	4.6205
4.8225	4.6572
4.818	4.6939
4.8135	4.7318
4.809	4.7702
4.8046	4.8083
4.8001	4.8441
4.7957	4.8784
4.7913	4.912
4.7868	4.9468
4.7824	4.9854
4.778	5.0314
4.7736	5.0866
4.7692	5.1503
4.7648	5.2218
4.7605	5.2995
4.7561	5.3816
4.7517	5.4676
4.7474	5.5574
4.7431	5.6502
4.7387	5.7447
4.7344	5.838
4.7301	5.9287
4.7258	6.0149
4.7215	6.0963
4.7172	6.1728
4.7129	6.2453
4.7086	6.3154
4.7043	6.3824
4.7	6.4459
4.6958	6.5068
4.6915	6.5662
4.6873	6.6237
4.6831	6.6789
4.6788	6.7334
4.6746	6.7869
4.6704	6.8385
4.6662	6.8871
4.662	6.934
4.6578	6.9785
4.6536	7.0204
4.6495	7.0602
4.6453	7.1
4.6411	7.1412
4.637	7.1826
4.6328	7.2248
4.6287	7.2684
4.6246	7.3133
4.6205	7.3609
4.6163	7.4135
4.6122	7.473
4.6081	7.54
4.604	7.6141
4.6	7.6953
4.5959	7.7825
4.5918	7.8748
4.5877	7.9731
4.5837	8.079
4.5796	8.1919
4.5756	8.3106
4.5716	8.4347
4.5675	8.5637
4.5635	8.6947
4.5595	8.8245
4.5555	8.9516
4.5515	9.0767
4.5475	9.1989
4.5435	9.318
4.5395	9.4352
4.5356	9.5541
4.5316	9.6751
4.5276	9.798
4.5237	9.9242
4.5197	10.054
4.5158	10.187
4.5119	10.318
4.508	10.446
4.504	10.572
4.5001	10.695
4.4962	10.816
4.4923	10.937
4.4884	11.058
4.4846	11.181
4.4807	11.304
4.4768	11.425
4.473	11.545
4.4691	11.667
4.4652	11.789
4.4614	11.915
4.4576	12.044
4.4537	12.175
4.4499	12.304
4.4461	12.432
4.4423	12.556
4.4385	12.677
4.4347	12.793
4.4309	12.905
4.4271	13.014
4.4233	13.12
4.4196	13.226
4.4158	13.33
4.412	13.433
4.4083	13.532
4.4045	13.628
4.4008	13.721
4.3971	13.812
4.3934	13.902
4.3896	13.99
4.3859	14.079
4.3822	14.167
4.3785	14.253
4.3748	14.336
4.3711	14.417
4.3674	14.494
4.3638	14.568
4.3601	14.639
4.3564	14.711
4.3528	14.783
4.3491	14.856
4.3455	14.931
4.3418	15.006
4.3382	15.082
4.3346	15.157
4.331	15.233
4.3273	15.31
4.3237	15.387
4.3201	15.463
4.3165	15.538
4.3129	15.609
4.3094	15.678
4.3058	15.746
4.3022	15.814
4.2986	15.882
4.2951	15.95
4.2915	16.017
4.288	16.082
4.2844	16.146
4.2809	16.21
4.2774	16.274
4.2738	16.338
4.2703	16.4
4.2668	16.46
4.2633	16.516
4.2598	16.57
4.2563	16.625
4.2528	16.679
4.2493	16.735
4.2458	16.791
4.2424	16.847
4.2389	16.901
4.2354	16.955
4.232	17.01
4.2285	17.067
4.2251	17.127
4.2216	17.187
4.2182	17.246
4.2148	17.303
4.2113	17.357
4.2079	17.409
4.2045	17.461
4.2011	17.515
4.1977	17.569
4.1943	17.622
4.1909	17.672
4.1875	17.721
4.1841	17.769
4.1808	17.816
4.1774	17.864
4.174	17.914
4.1707	17.965
4.1673	18.014
4.164	18.06
4.1606	18.104
4.1573	18.146
4.154	18.185
4.1506	18.224
4.1473	18.263
4.144	18.3
4.1407	18.336
4.1374	18.37
4.1341	18.401
4.1308	18.429
4.1275	18.453
4.1242	18.476
4.1209	18.496
4.1177	18.513
4.1144	18.528
4.1111	18.542
4.1079	18.555
4.1046	18.567
4.1014	18.579
4.0981	18.59
4.0949	18.6
4.0917	18.606
4.0884	18.608
4.0852	18.604
4.082	18.595
4.0788	18.582
4.0756	18.567
4.0724	18.551
4.0692	18.533
4.066	18.513
4.0628	18.488
4.0596	18.456
4.0565	18.415
4.0533	18.361
4.0501	18.292
4.047	18.21
4.0438	18.115
4.0406	18.009
4.0375	17.896
4.0344	17.78
4.0312	17.667
4.0281	17.558
4.025	17.455
4.0218	17.358
4.0187	17.262
4.0156	17.163
4.0125	17.054
4.0094	16.935
4.0063	16.807
4.0032	16.677
4.0001	16.552
3.997	16.438
3.994	16.34
3.9909	16.264
3.9878	16.212
3.9847	16.185
3.9817	16.185
3.9786	16.21
3.9756	16.255
3.9725	16.314
3.9695	16.384
3.9665	16.463
3.9634	16.551
3.9604	16.649
3.9574	16.758
3.9544	16.882
3.9513	17.02
3.9483	17.163
3.9453	17.303
3.9423	17.431
3.9393	17.538
3.9363	17.618
3.9333	17.672
3.9304	17.709
3.9274	17.735
3.9244	17.757
3.9214	17.778
3.9185	17.801
3.9155	17.825
3.9126	17.848
3.9096	17.868
3.9067	17.886
3.9037	17.9
3.9008	17.911
3.8979	17.92
3.8949	17.927
3.892	17.933
3.8891	17.939
3.8862	17.943
3.8833	17.946
3.8804	17.945
3.8775	17.943
3.8746	17.938
3.8717	17.932
3.8688	17.925
3.8659	17.918
3.863	17.911
3.8601	17.906
3.8573	17.901
3.8544	17.899
3.8515	17.899
3.8487	17.901
3.8458	17.907
3.843	17.917
3.8401	17.934
3.8373	17.957
3.8344	17.987
3.8316	18.022
3.8288	18.061
3.8259	18.1
3.8231	18.139
3.8203	18.177
3.8175	18.215
3.8147	18.253
3.8119	18.292
3.8091	18.334
3.8063	18.377
3.8035	18.422
3.8007	18.465
3.7979	18.504
3.7951	18.536
3.7924	18.559
3.7896	18.573
3.7868	18.58
3.7841	18.58
3.7813	18.574
3.7785	18.563
3.7758	18.55
3.773	18.535
3.7703	18.517
3.7676	18.497
3.7648	18.475
3.7621	18.45
3.7594	18.421
3.7566	18.392
3.7539	18.363
3.7512	18.335
3.7485	18.307
3.7458	18.278
3.7431	18.249
3.7404	18.218
3.7377	18.186
3.735	18.153
3.7323	18.122
3.7296	18.092
3.7269	18.063
3.7242	18.032
3.7216	18.001
3.7189	17.97
3.7162	17.938
3.7136	17.905
3.7109	17.873
3.7083	17.843
3.7056	17.813
3.703	17.781
3.7003	17.75
3.6977	17.72
3.695	17.69
3.6924	17.662
3.6898	17.636
3.6872	17.614
3.6845	17.59
3.6819	17.563
3.6793	17.533
3.6767	17.496
3.6741	17.453
3.6715	17.408
3.6689	17.361
3.6663	17.314
3.6637	17.266
3.6611	17.219
3.6585	17.174
3.656	17.129
3.6534	17.083
3.6508	17.037
3.6482	16.988
3.6457	16.937
3.6431	16.886
3.6406	16.836
3.638	16.789
3.6355	16.742
3.6329	16.695
3.6304	16.646
3.6278	16.594
3.6253	16.542
3.6227	16.491
3.6202	16.441
3.6177	16.394
3.6152	16.346
3.6127	16.299
3.6101	16.252
3.6076	16.205
3.6051	16.158
3.6026	16.111
3.6001	16.061
3.5976	16.009
3.5951	15.952
3.5926	15.893
3.5901	15.831
3.5876	15.768
3.5852	15.705
3.5827	15.644
3.5802	15.582
3.5777	15.519
3.5753	15.455
3.5728	15.393
3.5704	15.33
3.5679	15.267
3.5654	15.206
3.563	15.143
3.5605	15.08
3.5581	15.013
3.5557	14.944
3.5532	14.877
3.5508	14.811
3.5484	14.742
3.5459	14.671
3.5435	14.598
3.5411	14.52
3.5387	14.435
3.5363	14.345
3.5338	14.253
3.5314	14.159
3.529	14.062
3.5266	13.962
3.5242	13.862
3.5218	13.764
3.5195	13.668
3.5171	13.576
3.5147	13.49
3.5123	13.408
3.5099	13.328
3.5075	13.249
3.5052	13.173
3.5028	13.101
3.5004	13.031
3.4981	12.963
3.4957	12.897
3.4934	12.834
3.491	12.772
3.4887	12.712
3.4863	12.655
3.484	12.599
3.4816	12.546
3.4793	12.495
3.477	12.453
3.4746	12.424
3.4723	12.406
3.47	12.399
3.4677	12.397
3.4653	12.392
3.463	12.379
3.4607	12.356
3.4584	12.323
3.4561	12.284
3.4538	12.24
3.4515	12.195
3.4492	12.151
3.4469	12.108
3.4446	12.066
3.4423	12.026
3.44	11.984
3.4378	11.945
3.4355	11.906
3.4332	11.866
3.4309	11.824
3.4287	11.778
3.4264	11.73
3.4241	11.677
3.4219	11.625
3.4196	11.576
3.4174	11.534
3.4151	11.496
3.4129	11.46
3.4106	11.423
3.4084	11.382
3.4061	11.333
3.4039	11.28
3.4017	11.226
3.3994	11.171
3.3972	11.117
3.395	11.063
3.3928	11.008
3.3906	10.95
3.3883	10.888
3.3861	10.823
3.3839	10.758
3.3817	10.694
3.3795	10.633
3.3773	10.576
3.3751	10.523
3.3729	10.471
3.3707	10.418
3.3685	10.365
3.3663	10.307
3.3641	10.245
3.362	10.181
3.3598	10.114
3.3576	10.046
3.3554	9.9804
3.3533	9.9231
3.3511	9.8738
3.3489	9.8333
3.3468	9.8028
3.3446	9.78
3.3425	9.7606
3.3403	9.7398
3.3382	9.7161
3.336	9.6884
3.3339	9.6543
3.3317	9.615
3.3296	9.5728
3.3274	9.5285
3.3253	9.4812
3.3232	9.4283
3.321	9.3717
3.3189	9.3116
3.3168	9.2491
3.3147	9.1858
3.3126	9.1264
3.3104	9.0729
3.3083	9.0241
3.3062	8.9779
3.3041	8.9346
3.302	8.891
3.2999	8.8455
3.2978	8.7982
3.2957	8.7513
3.2936	8.7056
3.2915	8.6615
3.2894	8.6194
3.2874	8.5796
3.2853	8.5415
3.2832	8.5057
3.2811	8.4721
3.279	8.4387
3.277	8.4044
3.2749	8.3695
3.2728	8.3352
3.2708	8.3006
3.2687	8.2663
3.2666	8.2343
3.2646	8.2026
3.2625	8.1668
3.2605	8.1263
3.2584	8.083
3.2564	8.0378
3.2543	7.9916
3.2523	7.9459
3.2503	7.9025
3.2482	7.8604
3.2462	7.8154
3.2442	7.7676
3.2421	7.719
3.2401	7.6709
3.2381	7.6245
3.2361	7.5783
3.234	7.5307
3.232	7.4791
3.23	7.4223
3.228	7.36
3.226	7.2963
3.224	7.235
3.222	7.1784
3.22	7.1248
3.218	7.0711
3.216	7.0161
3.214	6.9614
3.212	6.9067
3.21	6.8546
3.208	6.8075
3.206	6.7656
3.204	6.7258
3.2021	6.6848
3.2001	6.6424
3.1981	6.6003
3.1961	6.5598
3.1942	6.5224
3.1922	6.4878
3.1902	6.452
3.1883	6.4139
3.1863	6.3744
3.1844	6.3353
3.1824	6.3005
3.1805	6.2733
3.1785	6.2536
3.1766	6.2368
3.1746	6.2152
3.1727	6.1859
3.1707	6.1506
3.1688	6.1125
3.1669	6.075
3.1649	6.0421
3.163	6.0132
3.1611	5.985
3.1591	5.9538
3.1572	5.9185
3.1553	5.8816
3.1534	5.8451
3.1515	5.811
3.1495	5.7802
3.1476	5.7489
3.1457	5.7158
3.1438	5.6803
3.1419	5.6438
3.14	5.609
3.1381	5.5758
3.1362	5.545
3.1343	5.5145
3.1324	5.4811
3.1305	5.4449
3.1286	5.4079
3.1268	5.3715
3.1249	5.3383
3.123	5.3078
3.1211	5.2798
3.1192	5.2526
3.1174	5.2237
3.1155	5.1938
3.1136	5.1645
3.1117	5.1361
3.1099	5.1098
3.108	5.0844
3.1061	5.0586
3.1043	5.0309
3.1024	4.9992
3.1006	4.9665
3.0987	4.9333
3.0969	4.9002
3.095	4.8682
3.0932	4.8372
3.0913	4.8081
3.0895	4.7808
3.0876	4.7548
3.0858	4.7328
3.084	4.7133
3.0821	4.693
3.0803	4.6721
3.0785	4.6504
3.0766	4.6283
3.0748	4.608
3.073	4.5902
3.0712	4.5772
3.0694	4.5684
3.0675	4.5611
3.0657	4.553
3.0639	4.5419
3.0621	4.527
3.0603	4.5092
3.0585	4.49
3.0567	4.4708
3.0549	4.4524
3.0531	4.4353
3.0513	4.4197
3.0495	4.406
3.0477	4.3941
3.0459	4.3846
3.0441	4.3775
3.0423	4.3723
3.0406	4.3669
3.0388	4.3605
3.037	4.351
3.0352	4.3368
3.0334	4.3174
3.0317	4.2947
3.0299	4.27
3.0281	4.243
3.0264	4.2165
3.0246	4.1921
3.0228	4.1675
3.0211	4.1426
3.0193	4.1189
3.0176	4.0995
3.0158	4.0822
3.014	4.0645
3.0123	4.0472
3.0105	4.0294
3.0088	4.0081
3.007	3.984
3.0053	3.9584
3.0036	3.9316
3.0018	3.902
3.0001	3.871
2.9984	3.8426
2.9966	3.8191
2.9949	3.803
2.9932	3.7943
2.9914	3.7874
2.9897	3.7772
2.988	3.764
2.9863	3.7507
2.9845	3.7398
2.9828	3.7334
2.9811	3.7327
2.9794	3.7329
2.9777	3.7258
2.976	3.7114
2.9743	3.6962
2.9726	3.6832
2.9709	3.6723
2.9692	3.6643
2.9675	3.659
2.9658	3.6526
2.9641	3.6427
2.9624	3.6335
2.9607	3.6301
2.959	3.6325
2.9573	3.6375
2.9556	3.6434
2.9539	3.6493
2.9523	3.6545
2.9506	3.6579
2.9489	3.6609
2.9472	3.6669
2.9455	3.6754
2.9439	3.6846
2.9422	3.6936
2.9405	3.7033
2.9389	3.7133
2.9372	3.7211
2.9355	3.7261
2.9339	3.7289
2.9322	3.728
2.9306	3.7237
2.9289	3.7194
2.9272	3.7201
2.9256	3.7261
2.9239	3.7353
2.9223	3.7467
2.9207	3.7571
2.919	3.7625
2.9174	3.7644
2.9157	3.7684
2.9141	3.7796
2.9124	3.7947
2.9108	3.8101
2.9092	3.8234
2.9075	3.8303
2.9059	3.83
2.9043	3.8279
2.9027	3.8298
2.901	3.8402
2.8994	3.8573
2.8978	3.8757
2.8962	3.8942
2.8946	3.9098
2.8929	3.9214
2.8913	3.929
2.8897	3.934
2.8881	3.9401
2.8865	3.9475
2.8849	3.9558
2.8833	3.9664
2.8817	3.978
2.8801	3.9858
2.8785	3.9875
2.8769	3.9851
2.8753	3.9811
2.8737	3.9797
2.8721	3.9832
2.8705	3.9918
2.8689	4.0022
2.8673	4.0114
2.8658	4.0195
2.8642	4.0285
2.8626	4.0384
2.861	4.0524
2.8594	4.0692
2.8579	4.0844
2.8563	4.0955
2.8547	4.1028
2.8531	4.1085
2.8516	4.1149
2.85	4.1215
2.8484	4.1282
2.8469	4.1331
2.8453	4.1362
2.8437	4.1376
2.8422	4.1379
2.8406	4.1386
2.8391	4.1412
2.8375	4.1433
2.836	4.14
2.8344	4.1313
2.8329	4.1206
2.8313	4.1118
2.8298	4.1069
2.8282	4.1061
2.8267	4.1111
2.8252	4.1185
2.8236	4.122
2.8221	4.1215
2.8205	4.1187
2.819	4.117
2.8175	4.117
2.8159	4.1182
2.8144	4.1225
2.8129	4.1294
2.8114	4.1376
2.8098	4.1464
2.8083	4.1542
2.8068	4.1618
2.8053	4.1689
2.8038	4.1765
2.8022	4.1862
2.8007	4.1987
2.7992	4.2146
2.7977	4.2333
2.7962	4.2527
2.7947	4.2717
2.7932	4.2904
2.7917	4.3115
2.7902	4.3368
2.7887	4.3669
2.7872	4.4038
2.7857	4.4457
2.7842	4.4879
2.7827	4.5279
2.7812	4.5642
2.7797	4.5968
2.7782	4.6288
2.7767	4.6629
2.7752	4.7025
2.7738	4.746
2.7723	4.7913
2.7708	4.8386
2.7693	4.8862
2.7678	4.9279
2.7664	4.9594
2.7649	4.9788
2.7634	4.9859
2.7619	4.9833
2.7605	4.9781
2.759	4.9817
2.7575	5.0042
2.7561	5.0463
2.7546	5.102
2.7531	5.1567
2.7517	5.1872
2.7502	5.1754
2.7488	5.1188
2.7473	5.0352
2.7458	4.9606
2.7444	4.936
2.7429	4.9854
2.7415	5.0975
2.74	5.2261
2.7386	5.3087
2.7371	5.307
2.7357	5.2289
2.7343	5.1316
2.7328	5.0949
2.7314	5.1725
2.7299	5.3532
2.7285	5.5588
2.7271	5.6923
2.7256	5.7113
2.7242	5.654
2.7228	5.6218
2.7213	5.734
2.7199	6.0649
2.7185	6.5991
2.7171	7.2461
2.7156	7.9106
2.7142	8.5521
2.7128	9.1849
2.7114	9.8556
2.71	10.613
2.7085	11.472
2.7071	12.389
2.7057	13.292
2.7043	14.11
2.7029	14.803
2.7015	15.358
2.7001	15.792
2.6987	16.138
2.6973	16.428
2.6959	16.69
2.6945	16.942
2.6931	17.193
2.6917	17.448
2.6903	17.71
2.6889	17.979
2.6875	18.253
2.6861	18.526
2.6847	18.796
2.6833	19.06
2.6819	19.316
2.6805	19.562
2.6791	19.796
2.6778	20.017
2.6764	20.226
2.675	20.424
2.6736	20.611
2.6722	20.792
2.6709	20.966
2.6695	21.133
2.6681	21.288
2.6667	21.429
2.6654	21.556
2.664	21.666
2.6626	21.761
2.6613	21.845
2.6599	21.922
2.6585	21.994
2.6572	22.062
2.6558	22.125
2.6545	22.18
2.6531	22.229
2.6517	22.274
2.6504	22.314
2.649	22.351
2.6477	22.388
2.6463	22.424
2.645	22.457
2.6436	22.486
2.6423	22.511
2.6409	22.534
2.6396	22.555
2.6382	22.573
2.6369	22.591
2.6356	22.613
2.6342	22.638
2.6329	22.663
2.6315	22.689
2.6302	22.715
2.6289	22.738
2.6275	22.757
2.6262	22.774
2.6249	22.792
2.6236	22.809
2.6222	22.827
2.6209	22.846
2.6196	22.864
2.6183	22.882
2.6169	22.901
2.6156	22.922
2.6143	22.945
2.613	22.969
2.6117	22.994
2.6103	23.017
2.609	23.035
2.6077	23.05
2.6064	23.065
2.6051	23.079
2.6038	23.092
2.6025	23.102
2.6012	23.11
2.5999	23.114
2.5986	23.114
2.5973	23.114
2.596	23.117
2.5947	23.121
2.5934	23.128
2.5921	23.136
2.5908	23.143
2.5895	23.148
2.5882	23.15
2.5869	23.151
2.5856	23.15
2.5843	23.151
2.583	23.154
2.5817	23.163
2.5805	23.175
2.5792	23.191
2.5779	23.207
2.5766	23.22
2.5753	23.23
2.5741	23.239
2.5728	23.249
2.5715	23.262
2.5702	23.284
2.569	23.313
2.5677	23.348
2.5664	23.386
2.5651	23.424
2.5639	23.461
2.5626	23.494
2.5613	23.524
2.5601	23.555
2.5588	23.589
2.5575	23.628
2.5563	23.671
2.555	23.715
2.5538	23.76
2.5525	23.802
2.5513	23.838
2.55	23.867
2.5487	23.893
2.5475	23.919
2.5462	23.941
2.545	23.961
2.5437	23.981
2.5425	24
2.5413	24.017
2.54	24.034
2.5388	24.052
2.5375	24.073
2.5363	24.095
2.535	24.118
2.5338	24.141
2.5326	24.165
2.5313	24.19
2.5301	24.216
2.5289	24.246
2.5276	24.278
2.5264	24.308
2.5252	24.334
2.5239	24.355
2.5227	24.371
2.5215	24.385
2.5202	24.398
2.519	24.413
2.5178	24.427
2.5166	24.438
2.5154	24.446
2.5141	24.454
2.5129	24.464
2.5117	24.479
2.5105	24.5
2.5093	24.526
2.5081	24.553
2.5068	24.575
2.5056	24.588
2.5044	24.592
2.5032	24.591
2.502	24.591
2.5008	24.594
2.4996	24.604
2.4984	24.625
2.4972	24.65
2.496	24.678
2.4948	24.706
2.4936	24.735
2.4924	24.764
2.4912	24.794
2.49	24.826
2.4888	24.859
2.4876	24.891
2.4864	24.921
2.4852	24.948
2.484	24.973
2.4828	24.998
2.4816	25.027
2.4805	25.063
2.4793	25.108
2.4781	25.163
2.4769	25.229
2.4757	25.301
2.4745	25.377
2.4734	25.453
2.4722	25.525
2.471	25.593
2.4698	25.659
2.4686	25.722
2.4675	25.787
2.4663	25.854
2.4651	25.924
2.464	25.995
2.4628	26.069
2.4616	26.151
2.4604	26.245
2.4593	26.35
2.4581	26.462
2.4569	26.577
2.4558	26.69
2.4546	26.795
2.4535	26.893
2.4523	26.989
2.4511	27.086
2.45	27.185
2.4488	27.279
2.4477	27.362
2.4465	27.429
2.4454	27.48
2.4442	27.524
2.4431	27.57
2.4419	27.629
2.4408	27.708
2.4396	27.804
2.4385	27.906
2.4373	28.002
2.4362	28.081
2.435	28.141
2.4339	28.179
2.4327	28.202
2.4316	28.217
2.4305	28.228
2.4293	28.236
2.4282	28.238
2.427	28.234
2.4259	28.219
2.4248	28.19
2.4236	28.146
2.4225	28.09
2.4214	28.025
2.4202	27.959
2.4191	27.895
2.418	27.836
2.4169	27.78
2.4157	27.724
2.4146	27.657
2.4135	27.572
2.4124	27.461
2.4112	27.326
2.4101	27.169
2.409	26.996
2.4079	26.815
2.4068	26.635
2.4056	26.455
2.4045	26.273
2.4034	26.082
2.4023	25.882
2.4012	25.669
2.4001	25.444
2.399	25.218
2.3979	25.003
2.3967	24.81
2.3956	24.642
2.3945	24.5
2.3934	24.38
2.3923	24.273
2.3912	24.169
2.3901	24.067
2.389	23.973
2.3879	23.894
2.3868	23.839
2.3857	23.813
2.3846	23.814
2.3835	23.828
2.3824	23.835
2.3813	23.819
2.3802	23.769
2.3791	23.684
2.3781	23.563
2.377	23.41
2.3759	23.222
2.3748	22.993
2.3737	22.72
2.3726	22.404
2.3715	22.048
2.3704	21.657
2.3694	21.243
2.3683	20.816
2.3672	20.381
2.3661	19.946
2.365	19.519
2.364	19.108
2.3629	18.713
2.3618	18.341
2.3607	17.996
2.3597	17.681
2.3586	17.396
2.3575	17.142
2.3564	16.918
2.3554	16.725
2.3543	16.563
2.3532	16.432
2.3522	16.329
2.3511	16.255
2.35	16.205
2.349	16.175
2.3479	16.161
2.3468	16.16
2.3458	16.17
2.3447	16.186
2.3436	16.207
2.3426	16.236
2.3415	16.275
2.3405	16.325
2.3394	16.388
2.3384	16.463
2.3373	16.546
2.3363	16.633
2.3352	16.721
2.3342	16.809
2.3331	16.896
2.3321	16.982
2.331	17.068
2.33	17.153
2.3289	17.239
2.3279	17.324
2.3268	17.407
2.3258	17.496
2.3247	17.599
2.3237	17.722
2.3226	17.867
2.3216	18.034
2.3206	18.215
2.3195	18.4
2.3185	18.588
2.3175	18.778
2.3164	18.978
2.3154	19.19
2.3144	19.41
2.3133	19.626
2.3123	19.826
2.3113	20.003
2.3102	20.161
2.3092	20.312
2.3082	20.473
2.3071	20.658
2.3061	20.862
2.3051	21.068
2.3041	21.261
2.303	21.431
2.302	21.578
2.301	21.716
2.3	21.868
2.299	22.053
2.2979	22.281
2.2969	22.554
2.2959	22.869
2.2949	23.218
2.2939	23.586
2.2929	23.961
2.2918	24.33
2.2908	24.68
2.2898	24.999
2.2888	25.287
2.2878	25.543
2.2868	25.768
2.2858	25.964
2.2848	26.137
2.2838	26.294
2.2828	26.435
2.2818	26.566
2.2808	26.689
2.2798	26.804
2.2787	26.902
2.2777	26.979
2.2767	27.036
2.2757	27.071
2.2747	27.081
2.2738	27.064
2.2728	27.018
2.2718	26.943
2.2708	26.835
2.2698	26.701
2.2688	26.548
2.2678	26.382
2.2668	26.207
2.2658	26.019
2.2648	25.819
2.2638	25.611
2.2628	25.398
2.2618	25.195
2.2609	25.013
2.2599	24.861
2.2589	24.739
2.2579	24.644
2.2569	24.576
2.2559	24.538
2.255	24.531
2.254	24.564
2.253	24.646
2.252	24.777
2.251	24.956
2.2501	25.183
2.2491	25.46
2.2481	25.79
2.2471	26.173
2.2462	26.607
2.2452	27.084
2.2442	27.587
2.2433	28.103
2.2423	28.616
2.2413	29.119
2.2403	29.606
2.2394	30.076
2.2384	30.522
2.2374	30.94
2.2365	31.323
2.2355	31.666
2.2345	31.966
2.2336	32.226
2.2326	32.453
2.2317	32.653
2.2307	32.834
2.2297	32.999
2.2288	33.151
2.2278	33.292
2.2269	33.431
2.2259	33.575
2.225	33.726
2.224	33.885
2.2231	34.053
2.2221	34.224
2.2211	34.398
2.2202	34.575
2.2192	34.762
2.2183	34.957
2.2173	35.157
2.2164	35.36
2.2155	35.565
2.2145	35.773
2.2136	35.982
2.2126	36.193
2.2117	36.403
2.2107	36.604
2.2098	36.788
2.2088	36.956
2.2079	37.109
2.207	37.253
2.206	37.392
2.2051	37.529
2.2041	37.666
2.2032	37.801
2.2023	37.938
2.2013	38.079
2.2004	38.227
2.1995	38.385
2.1985	38.553
2.1976	38.73
2.1967	38.913
2.1957	39.102
2.1948	39.293
2.1939	39.48
2.193	39.663
2.192	39.84
2.1911	40.012
2.1902	40.18
2.1893	40.341
2.1883	40.495
2.1874	40.639
2.1865	40.774
2.1856	40.901
2.1846	41.024
2.1837	41.141
2.1828	41.256
2.1819	41.368
2.181	41.471
2.18	41.57
2.1791	41.667
2.1782	41.763
2.1773	41.859
2.1764	41.952
2.1755	42.043
2.1746	42.132
2.1736	42.21
2.1727	42.28
2.1718	42.341
2.1709	42.394
2.17	42.443
2.1691	42.491
2.1682	42.543
2.1673	42.597
2.1664	42.646
2.1655	42.688
2.1646	42.722
2.1637	42.746
2.1628	42.767
2.1619	42.792
2.161	42.824
2.1601	42.858
2.1592	42.889
2.1583	42.915
2.1574	42.935
2.1565	42.95
2.1556	42.967
2.1547	42.991
2.1538	43.019
2.1529	43.044
2.152	43.062
2.1511	43.074
2.1502	43.081
2.1493	43.084
2.1484	43.09
2.1475	43.103
2.1466	43.117
2.1458	43.129
2.1449	43.139
2.144	43.146
2.1431	43.146
2.1422	43.137
2.1413	43.121
2.1404	43.1
2.1396	43.074
2.1387	43.046
2.1378	43.019
2.1369	42.992
2.136	42.964
2.1352	42.933
2.1343	42.898
2.1334	42.866
2.1325	42.838
2.1316	42.815
2.1308	42.8
2.1299	42.794
2.129	42.799
2.1281	42.809
2.1273	42.821
2.1264	42.831
2.1255	42.835
2.1247	42.833
2.1238	42.825
2.1229	42.815
2.122	42.807
2.1212	42.799
2.1203	42.787
2.1194	42.777
2.1186	42.78
2.1177	42.803
2.1168	42.846
2.116	42.914
2.1151	42.999
2.1143	43.084
2.1134	43.164
2.1125	43.236
2.1117	43.312
2.1108	43.397
2.11	43.501
2.1091	43.628
2.1082	43.77
2.1074	43.911
2.1065	44.044
2.1057	44.16
2.1048	44.259
2.104	44.343
2.1031	44.416
2.1023	44.484
2.1014	44.544
2.1005	44.596
2.0997	44.642
2.0988	44.684
2.098	44.724
2.0971	44.761
2.0963	44.795
2.0955	44.828
2.0946	44.854
2.0938	44.873
2.0929	44.891
2.0921	44.913
2.0912	44.938
2.0904	44.965
2.0895	44.994
2.0887	45.021
2.0879	45.042
2.087	45.058
2.0862	45.074
2.0853	45.09
2.0845	45.104
2.0837	45.121
2.0828	45.129
2.082	45.133
2.0812	45.141
2.0803	45.097
2.0795	45.111
2.076	44.965
2.072	44.82
2.068	44.972
2.064	44.893
2.06	44.934
2.056	44.609
2.052	44.575
2.048	44.363
2.044	44.23
2.04	44.494
2.036	44.79
2.032	44.656
2.028	44.449
2.024	44.075
2.02	43.93
2.016	44.136
2.012	44.172
2.008	43.736
2.004	43.582
2	43.408
1.996	42.856
1.992	42.676
1.988	42.857
1.984	42.992
1.98	43.089
1.976	43.137
1.972	43.348
1.968	43.489
1.964	43.397
1.96	43.529
1.956	43.597
1.952	43.556
1.948	43.578
1.944	43.504
1.94	43.484
1.936	43.62
1.932	43.933
1.928	43.998
1.924	43.857
1.92	43.894
1.916	43.922
1.912	43.728
1.908	43.756
1.904	43.658
1.9	43.622
1.896	43.718
1.892	43.929
1.888	44.324
1.884	44.225
1.88	44.141
1.876	44.005
1.872	44.343
1.868	44.706
1.864	44.785
1.86	44.904
1.856	44.893
1.852	44.975
1.848	44.915
1.844	44.781
1.84	45.006
1.836	45.243
1.832	45.175
1.828	45.162
1.824	45.053
1.82	45.033
1.816	45.296
1.812	45.521
1.808	45.655
1.804	45.323
1.8	45.278
1.796	45.271
1.792	45.458
1.788	45.209
1.784	45.295
1.78	45.39
1.776	45.304
1.772	45.493
1.768	45.553
1.764	45.547
1.76	45.583
1.756	45.518
1.752	45.51
1.748	45.706
1.744	45.491
1.74	45.348
1.736	44.817
1.732	44.684
1.728	44.699
1.724	44.834
1.72	44.907
1.716	44.793
1.712	44.917
1.708	44.686
1.704	44.826
1.7	44.938
1.696	45.168
1.692	44.902
1.688	44.97
1.684	44.925
1.68	44.652
1.676	44.689
1.672	44.746
1.668	44.628
1.664	44.379
1.66	44.726
1.656	44.462
1.652	44.717
1.648	44.433
1.644	44.219
1.64	44.267
1.636	43.983
1.632	43.792
1.628	43.713
1.624	43.551
1.62	43.53
1.616	43.404
1.612	43.645
1.608	43.887
1.604	43.535
1.6	43.349
1.596	43.288
1.592	43.364
1.588	43.075
1.584	43.068
1.58	42.9
1.576	42.7
1.572	42.716
1.568	42.637
1.564	42.424
1.56	42.402
1.556	42.35
1.552	42.466
1.548	42.374
1.544	42.407
1.54	42.489
1.536	42.331
1.532	42.289
1.528	42.21
1.524	42.006
1.52	41.893
1.516	41.585
1.512	41.579
1.508	41.674
1.504	41.584
1.5	41.553
1.496	41.87
1.492	41.769
1.488	42.008
1.484	41.896
1.48	41.832
1.476	41.624
1.472	41.481
1.468	41.402
1.464	41.35
1.46	41.359
1.456	41.382
1.452	41.263
1.448	41.188
1.444	41.018
1.44	41.047
1.436	40.892
1.432	40.788
1.428	40.855
1.424	40.607
1.42	40.458
1.416	40.415
1.412	39.964
1.408	39.754
1.404	38.843
1.4	37.691
1.396	36.676
1.392	35.684
1.388	35.611
1.384	36.306
1.38	37.793
1.376	38.953
1.372	39.672
1.368	39.827
1.364	39.617
1.36	39.741
1.356	39.617
1.352	39.606
1.348	39.484
1.344	39.341
1.34	39.098
1.336	39.03
1.332	38.708
1.328	38.66
1.324	38.405
1.32	38.117
1.316	37.886
1.312	37.816
1.308	37.592
1.304	37.444
1.3	37.352
1.296	37.168
1.292	36.927
1.288	36.65
1.284	36.299
1.28	36.154
1.276	35.887
1.272	35.786
1.268	35.401
1.264	35.282
1.26	35.018
1.256	34.779
1.252	34.697
1.248	34.408
1.244	33.983
1.24	33.684
1.236	33.603
1.232	33.508
1.228	33.303
1.224	32.982
1.22	32.728
1.216	32.319
1.212	32.119
1.208	31.712
1.204	31.576
1.2	31.443
1.196	31.153
1.192	30.814
1.188	30.482
1.184	30.166
1.18	30.033
1.176	29.789
1.172	29.522
1.168	29.338
1.164	29.04
1.16	28.754
1.156	28.606
1.152	28.418
1.148	28.33
1.144	28.121
1.14	27.816
1.136	27.467
1.132	27.346
1.128	27.296
1.124	27.21
1.12	27.184
1.116	26.977
1.112	26.546
1.108	26.334
1.104	26.448
1.1	26.278
1.096	26.22
1.092	26.316
1.088	26.333
1.084	26.334
1.08	25.999
1.076	25.61
1.072	25.505
1.068	25.207
1.064	25.617
1.06	25.551
1.056	25.976
1.052	25.89
1.048	25.644
1.044	25.986
1.04	25.879
1.036	25.904
1.032	25.871
1.028	25.67
1.024	25.543
1.02	25.281
1.016	25.269
1.012	25.467
1.008	25.382
1.004	25.477
1	25.352
0.996	25.531
0.992	25.659
0.988	25.164
0.984	25.432
0.98	25.439
0.976	25.409
0.972	25.14
0.968	25.268
0.964	25.489
0.96	25.129
0.956	25.316
0.952	25.267
0.948	24.846
0.944	24.998
0.94	24.979
0.936	24.96
0.932	24.783
0.928	24.815
0.924	24.766
0.92	24.803
0.916	24.603
0.912	24.573
0.908	24.533
0.904	24.594
0.9	24.396
0.896	24.524
0.892	24.45
0.888	24.586
0.884	24.536
0.88	24.687
0.876	24.744
0.872	24.803
0.868	24.843
0.864	24.902
0.86	25.109
0.856	25.242
0.852	25.339
0.848	25.594
0.844	25.946
0.84	26.137
0.836	26.262
0.832	25.712
0.828	26.206
0.824	26.967
0.82	27.188
0.816	27.032
0.812	26.695
0.808	26.88
0.804	27.358
0.8	27.92
0.799	27.92
0.798	27.92
0.797	27.939
0.796	28.002
0.795	28.049
0.794	28.239
0.793	27.962
0.792	27.973
0.791	28.082
0.79	28.356
0.789	28.349
0.788	28.327
0.787	28.272
0.786	28.352
0.785	28.378
0.784	28.463
0.783	28.54
0.782	28.525
0.781	28.433
0.78	28.349
0.779	28.286
0.778	28.316
0.777	28.484
0.776	28.458
0.775	28.576
0.774	28.382
0.773	28.363
0.772	28.485
0.771	28.385
0.77	28.477
0.769	28.393
0.768	28.459
0.767	28.316
0.766	28.447
0.765	28.568
0.764	28.47
0.763	28.536
0.762	28.609
0.761	28.415
0.76	28.438
0.759	28.401
0.758	28.36
0.757	28.445
0.756	28.464
0.755	28.633
0.754	28.496
0.753	28.466
0.752	28.65
0.751	28.746
0.75	28.651
0.749	28.703
0.748	28.334
0.747	28.305
0.746	28.415
0.745	28.6
0.744	28.467
0.743	28.615
0.742	28.305
0.741	28.445
0.74	28.639
0.739	28.631
0.738	28.517
0.737	28.312
0.736	28.407
0.735	28.865
0.734	28.608
0.733	28.564
0.732	28.694
0.731	28.453
0.73	28.505
0.729	28.468
0.728	28.672
0.727	28.73
0.726	28.63
0.725	28.736
0.724	28.619
0.723	28.75
0.722	28.827
0.721	29.095
0.72	28.877
0.719	29.032
0.718	28.741
0.717	28.746
0.716	28.773
0.715	28.929
0.714	28.738
0.713	28.526
0.712	28.734
0.711	28.736
0.71	28.998
0.709	29.13
0.708	28.917
0.707	28.692
0.706	28.792
0.705	28.936
0.704	28.995
0.703	29.094
0.702	28.971
0.701	29.263
0.7	29.012
0.699	29.045
0.698	29.386
0.697	29.369
0.696	28.892
0.695	29.01
0.694	29.167
0.693	29.059
0.692	29.164
0.691	29.428
0.69	29.534
0.689	29.483
0.688	29.366
0.687	29.475
0.686	29.481
0.685	29.413
0.684	29.389
0.683	29.366
0.682	29.283
0.681	29.187
0.68	29.448
0.679	29.499
0.678	29.517
0.677	29.561
0.676	29.513
0.675	29.522
0.674	29.737
0.673	29.845
0.672	29.912
0.671	29.903
0.67	29.894
0.669	29.912
0.668	30.288
0.667	30.244
0.666	30.018
0.665	29.783
0.664	29.792
0.663	29.89
0.662	29.819
0.661	29.803
0.66	29.803
0.659	29.831
0.658	30.014
0.657	29.981
0.656	29.951
0.655	29.937
0.654	29.967
0.653	29.812
0.652	29.977
0.651	30.106
0.65	30.047
0.649	30.163
0.648	30.241
0.647	30.414
0.646	30.515
0.645	30.596
0.644	30.722
0.643	30.574
0.642	30.531
0.641	30.3
0.64	30.391
0.639	30.371
0.638	30.317
0.637	30.362
0.636	30.647
0.635	30.433
0.634	30.188
0.633	30.375
0.632	30.727
0.631	30.651
0.63	30.665
0.629	30.884
0.628	30.951
0.627	30.608
0.626	30.752
0.625	30.969
0.624	30.678
0.623	30.718
0.622	30.794
0.621	30.882
0.62	30.843
0.619	30.853
0.618	30.912
0.617	30.892
0.616	31.126
0.615	31.354
0.614	31.326
0.613	31.301
0.612	31.428
0.611	31.565
0.61	31.355
0.609	31.165
0.608	31.175
0.607	30.985
0.606	30.993
0.605	31.038
0.604	31.079
0.603	31.156
0.602	31.089
0.601	31.258
0.6	31.543
0.599	31.798
0.598	31.716
0.597	31.773
0.596	31.78
0.595	31.493
0.594	31.475
0.593	31.576
0.592	31.472
0.591	31.701
0.59	31.875
0.589	31.633
0.588	31.942
0.587	31.928
0.586	31.906
0.585	32.063
0.584	32.024
0.583	31.912
0.582	32.141
0.581	32.07
0.58	32.226
0.579	32.18
0.578	32.356
0.577	32.309
0.576	32.441
0.575	32.236
0.574	32.087
0.573	31.976
0.572	32.113
0.571	31.877
0.57	32.135
0.569	31.956
0.568	31.805
0.567	31.796
0.566	32.022
0.565	32.071
0.564	31.962
0.563	31.942
0.562	31.998
0.561	31.908
0.56	31.98
0.559	31.793
0.558	31.471
0.557	31.479
0.556	31.594
0.555	31.526
0.554	31.522
0.553	31.385
0.552	31.415
0.551	31.419
0.55	31.417
0.549	31.254
0.548	31.337
0.547	31.544
0.546	31.314
0.545	31.302
0.544	31.382
0.543	31.382
0.542	31.081
0.541	30.832
0.54	30.862
0.539	30.898
0.538	31.079
0.537	31.164
0.536	31.077
0.535	31.219
0.534	31.377
0.533	31.091
0.532	30.967
0.531	30.838
0.53	30.775
0.529	30.568
0.528	30.483
0.527	30.439
0.526	30.241
0.525	30.254
0.524	30.337
0.523	30.082
0.522	29.845
0.521	29.763
0.52	29.816
0.519	29.736
0.518	29.727
0.517	29.924
0.516	29.841
0.515	29.576
0.514	29.267
0.513	29.445
0.512	29.43
0.511	29.091
0.51	28.939
0.509	28.971
0.508	28.913
0.507	28.621
0.506	28.467
0.505	28.533
0.504	28.257
0.503	27.854
0.502	27.792
0.501	27.658
0.5	27.566
0.499	27.714
0.498	27.612
0.497	27.572
0.496	27.369
0.495	27.136
0.494	26.971
0.493	27.039
0.492	26.795
0.491	26.455
0.49	26.239
0.489	26.453
0.488	26.207
0.487	26.069
0.486	26.009
0.485	25.892
0.484	26.025
0.483	25.824
0.482	25.902
0.481	25.565
0.48	25.023
0.479	25.089
0.478	25.241
0.477	25.248
0.476	24.81
0.475	24.596
0.474	24.358
0.473	23.91
0.472	24.012
0.471	23.959
0.47	24.083
0.469	23.687
0.468	23.377
0.467	22.968
0.466	23.281
0.465	23.161
0.464	22.929
0.463	22.675
0.462	22.779
0.461	22.763
0.46	22.479
0.459	21.361
0.458	21.586
0.457	21.402
0.456	20.908
0.455	20.766
0.454	20.366
0.453	20.453
0.452	20.336
0.451	20.219
0.45	20.206
0.449	20.523
0.448	20.168
0.447	20.063
0.446	19.54
0.445	19.461
0.444	19.362
0.443	19.385
0.442	19.245
0.441	19.1
0.44	18.993
0.439	18.61
0.438	18.834
0.437	18.771
0.436	18.671
0.435	18.347
0.434	18.046
0.433	17.681
0.432	17.335
0.431	17.147
0.43	16.899
0.429	16.762
0.428	16.542
0.427	15.89
0.426	16.039
0.425	16.082
0.424	15.881
0.423	15.239
0.422	14.725
0.421	14.599
0.42	14.715
0.419	14.459
0.418	13.992
0.417	13.827
0.416	13.616
0.415	13.551
0.414	13.301
0.413	12.89
0.412	12.588
0.411	12.694
0.41	12.296
0.409	12.352
0.408	11.899
0.407	11.461
0.406	11.619
0.405	11.331
0.404	10.867
0.403	10.483
0.402	10.621
0.401	10.531
0.4	10.077
