Name: Brucite Mg(OH)_2
Type: Mineral
Class: Hydroxides
Subclass: 
Particle Size: 125-500um
Sample No.: OH-1A
Owner: JPL
Wavelength range: IR
Origin: USA, Nevada, Nye County, Gabbs
Collected by JPL
Description: 





Measurement: Hemispherical reflectance
First Column: X
Second Column: Y
X Units:  Wavelength (micrometers)
Y Units:  Reflectance (percent)
First X Value: 15.3853
Last X Value: 2.00032
Number of X Values: 2256
Additional information: oh01aa.txt
 
15.3853	19.2825
15.3397	19.0838
15.2945	18.864
15.2495	18.6349
15.2048	18.3965
15.1603	18.4399
15.1161	18.603
15.0722	18.3559
15.0285	18.0075
14.9851	17.8338
14.9419	17.5388
14.8989	17.4621
14.8563	17.4473
14.8138	17.0387
14.7716	16.7254
14.7296	16.7167
14.6879	16.6117
14.6464	16.6262
14.6052	16.6451
14.5641	16.5045
14.5233	16.639
14.4828	16.7236
14.4424	16.6341
14.4023	16.5921
14.3624	16.5133
14.3227	16.2688
14.2833	15.9521
14.244	15.7407
14.205	15.5979
14.1662	15.3375
14.1276	14.9682
14.0892	14.7478
14.051	14.7276
14.0131	14.6236
13.9753	14.396
13.9377	14.2795
13.9004	14.2917
13.8632	14.2931
13.8262	14.1224
13.7895	13.8247
13.7529	13.5985
13.7165	13.1637
13.6803	12.7206
13.6443	12.4038
13.6085	11.9161
13.5729	11.377
13.5374	10.904
13.5022	10.5364
13.4671	10.133
13.4322	9.63893
13.3975	9.23033
13.363	8.7856
13.3286	8.44419
13.2944	8.18516
13.2604	7.92535
13.2266	7.46628
13.193	6.97571
13.1595	6.68158
13.1262	6.30819
13.093	5.86565
13.06	5.55332
13.0272	5.36817
12.9946	5.07015
12.9621	4.70405
12.9298	4.49682
12.8976	4.24575
12.8656	3.95133
12.8337	3.75178
12.8021	3.56691
12.7705	3.5009
12.7391	3.40007
12.7079	3.04283
12.6769	2.66207
12.6459	2.54638
12.6152	2.60926
12.5845	2.60799
12.5541	2.46771
12.5238	2.29371
12.4936	2.26775
12.4635	2.16866
12.4337	2.05351
12.4039	1.7385
12.3743	1.52844
12.3448	1.58552
12.3155	1.63737
12.2863	1.57434
12.2573	1.47136
12.2284	1.48746
12.1996	1.4959
12.171	1.49805
12.1425	1.46185
12.1141	1.31023
12.0859	1.2818
12.0578	1.33833
12.0298	1.27413
12.0019	1.1506
11.9742	1.23822
11.9466	1.32269
11.9192	1.22048
11.8918	1.07918
11.8646	1.1929
11.8375	1.25415
11.8106	1.05485
11.7837	0.81135
11.757	0.725155
11.7304	0.914455
11.7039	0.972372
11.6776	0.957866
11.6513	1.02273
11.6252	0.937503
11.5992	0.915775
11.5733	0.937334
11.5475	0.860622
11.5219	0.94033
11.4963	0.980213
11.4709	0.999934
11.4455	0.930204
11.4203	0.979002
11.3952	1.02474
11.3702	0.969032
11.3454	1.03648
11.3206	1.1293
11.2959	1.15427
11.2714	1.15295
11.2469	1.16781
11.2226	1.1728
11.1983	1.02862
11.1742	1.08115
11.1502	1.23221
11.1263	1.22228
11.1024	1.09052
11.0787	1.01985
11.0551	1.05538
11.0316	1.06197
11.0081	1.14728
10.9848	1.24336
10.9616	1.31298
10.9385	1.32082
10.9154	1.31734
10.8925	1.1683
10.8697	1.07192
10.8469	1.19275
10.8243	1.29718
10.8017	1.27168
10.7793	1.23787
10.7569	1.40645
10.7346	1.42593
10.7125	1.33758
10.6904	1.32267
10.6684	1.35813
10.6465	1.47388
10.6247	1.49949
10.6029	1.45483
10.5813	1.464
10.5597	1.43797
10.5383	1.43692
10.5169	1.48112
10.4956	1.57252
10.4744	1.50623
10.4533	1.3257
10.4323	1.3439
10.4113	1.53426
10.3904	1.47198
10.3697	1.39558
10.349	1.38808
10.3284	1.39725
10.3078	1.4445
10.2874	1.56303
10.267	1.55115
10.2467	1.50147
10.2265	1.46895
10.2064	1.46264
10.1863	1.52803
10.1663	1.54926
10.1464	1.42805
10.1266	1.3343
10.1069	1.39712
10.0872	1.37973
10.0676	1.20156
10.0481	1.3474
10.0287	1.46649
10.0093	1.53904
9.99005	1.51352
9.97084	1.42511
9.95169	1.41999
9.93263	1.40512
9.91364	1.34293
9.89472	1.28951
9.87587	1.32585
9.8571	1.36032
9.83839	1.50078
9.81976	1.4767
9.80119	1.31001
9.78271	1.26903
9.76428	1.29093
9.74592	1.35114
9.72764	1.32848
9.70943	1.33553
9.69128	1.31686
9.6732	1.22352
9.65518	1.22859
9.63724	1.17988
9.61935	1.12759
9.60155	1.15012
9.5838	1.20842
9.56611	1.25887
9.5485	1.24732
9.53094	1.26109
9.51345	1.26876
9.49604	1.20568
9.47867	1.21998
9.46137	1.21775
9.44414	1.18119
9.42697	1.15821
9.40986	1.1734
9.39281	1.21898
9.37583	1.18856
9.35891	1.21662
9.34204	1.30515
9.32524	1.24173
9.3085	1.14881
9.29182	1.14866
9.27519	1.24438
9.25863	1.31668
9.24213	1.32272
9.22568	1.27928
9.2093	1.36418
9.19297	1.36855
9.17669	1.18923
9.16048	1.18334
9.14433	1.3235
9.12823	1.38897
9.11218	1.40429
9.0962	1.49296
9.08027	1.50635
9.06439	1.39923
9.04858	1.42396
9.03281	1.51762
9.0171	1.4076
9.00145	1.37151
8.98585	1.46037
8.9703	1.50308
8.9548	1.27037
8.93937	1.18091
8.92398	1.25649
8.90865	1.43417
8.89337	1.58901
8.87814	1.60086
8.86296	1.56555
8.84784	1.52322
8.83277	1.42634
8.81774	1.37779
8.80277	1.4035
8.78786	1.33081
8.77298	1.3508
8.75816	1.4964
8.7434	1.49302
8.72868	1.50154
8.714	1.48328
8.69938	1.35377
8.68481	1.33821
8.67029	1.43456
8.65581	1.45339
8.64139	1.34146
8.62701	1.33235
8.61268	1.43567
8.5984	1.49006
8.58416	1.33288
8.56997	1.34958
8.55583	1.54238
8.54174	1.52581
8.52769	1.58241
8.51368	1.61271
8.49973	1.56309
8.48582	1.54815
8.47195	1.53109
8.45813	1.55823
8.44436	1.47264
8.43062	1.36168
8.41693	1.38076
8.4033	1.38512
8.3897	1.40056
8.37614	1.44243
8.36264	1.40742
8.34917	1.53853
8.33574	1.61298
8.32236	1.47904
8.30903	1.36361
8.29573	1.3476
8.28248	1.35027
8.26927	1.4209
8.2561	1.52312
8.24298	1.44578
8.2299	1.44148
8.21685	1.54345
8.20385	1.63727
8.19089	1.68085
8.17797	1.62117
8.16509	1.61108
8.15225	1.50068
8.13946	1.40309
8.1267	1.44115
8.11398	1.42201
8.10131	1.49567
8.08867	1.69022
8.07606	1.66263
8.0635	1.6756
8.05099	1.75019
8.0385	1.64895
8.02606	1.61558
8.01366	1.68185
8.00129	1.69804
7.98896	1.61383
7.97667	1.69945
7.96442	1.85601
7.9522	1.72449
7.94002	1.72095
7.92788	1.79422
7.91578	1.67293
7.90371	1.68839
7.89168	1.72717
7.87969	1.76298
7.86773	1.78066
7.85581	1.7149
7.84392	1.68758
7.83207	1.71556
7.82026	1.67212
7.80849	1.67546
7.79674	1.7427
7.78503	1.81415
7.77337	1.93731
7.76173	1.92496
7.75012	1.75102
7.73856	1.64279
7.72703	1.71943
7.71553	1.78308
7.70406	1.76138
7.69263	1.73796
7.68123	1.7653
7.66987	1.82502
7.65855	1.82385
7.64725	1.80066
7.63598	1.8372
7.62475	1.86548
7.61356	1.83767
7.60239	1.87886
7.59126	1.93966
7.58017	1.88217
7.5691	1.86864
7.55806	1.89669
7.54707	1.83922
7.5361	1.83225
7.52516	1.89923
7.51425	1.91553
7.50338	1.82694
7.49253	1.83686
7.48172	1.93917
7.47094	1.95785
7.46019	1.9618
7.44947	2.03793
7.43879	1.96878
7.42813	1.87393
7.4175	1.81049
7.4069	1.71475
7.39634	1.74249
7.3858	1.82835
7.37529	1.87171
7.36482	1.87121
7.35437	1.8621
7.34396	1.85196
7.33357	1.89984
7.32321	1.88349
7.31288	1.90299
7.30258	1.88297
7.29231	1.90865
7.28207	1.85118
7.27185	1.78246
7.26167	1.86581
7.25152	1.89821
7.24139	1.8241
7.23129	1.7083
7.22122	1.73373
7.21117	1.78947
7.20116	1.75529
7.19117	1.73121
7.18121	1.68818
7.17128	1.74581
7.16137	1.77361
7.1515	1.77672
7.14164	1.77993
7.13182	1.78899
7.12203	1.81388
7.11225	1.81483
7.10251	1.71166
7.0928	1.6775
7.08311	1.70685
7.07344	1.73469
7.06381	1.75061
7.0542	1.77782
7.04461	1.80686
7.03506	1.80305
7.02552	1.77651
7.01601	1.75835
7.00653	1.73915
6.99708	1.7549
6.98765	1.81979
6.97824	1.69665
6.96886	1.73886
6.95951	1.89469
6.95018	1.81413
6.94087	1.69594
6.9316	1.74214
6.92234	1.8194
6.91311	1.83374
6.90391	1.76207
6.89473	1.7829
6.88557	1.8555
6.87644	1.91987
6.86733	1.92675
6.85824	1.93463
6.84918	1.9688
6.84015	1.9492
6.83114	1.93555
6.82215	1.94972
6.81319	1.95636
6.80424	1.96003
6.79532	1.92482
6.78643	1.97219
6.77756	1.99777
6.76871	1.99673
6.75989	1.87412
6.75109	1.86212
6.74231	1.91256
6.73355	1.93264
6.72482	2.01348
6.71611	2.04137
6.70742	2.07712
6.69875	2.07226
6.69011	2.129
6.68149	2.17609
6.67289	2.17941
6.66431	2.18629
6.65576	2.17268
6.64722	2.14031
6.63871	2.22589
6.63022	2.20256
6.62175	2.10391
6.61331	2.14717
6.60488	2.19844
6.59648	2.2898
6.5881	2.31139
6.57974	2.34161
6.5714	2.36296
6.56308	2.35047
6.55478	2.32926
6.54651	2.31903
6.53825	2.25937
6.53001	2.23268
6.5218	2.32285
6.51361	2.40533
6.50544	2.4526
6.49729	2.48952
6.48915	2.5343
6.48104	2.5775
6.47295	2.59337
6.46488	2.61639
6.45683	2.65796
6.4488	2.71933
6.44079	2.79348
6.4328	2.8406
6.42482	2.90171
6.41687	3.01283
6.40894	3.00482
6.40103	2.9864
6.39314	2.98879
6.38526	2.92682
6.37741	2.87194
6.36957	2.94521
6.36176	3.06541
6.35396	3.13179
6.34618	3.11476
6.33843	3.10539
6.33069	3.10671
6.32297	3.06368
6.31527	3.06201
6.30758	3.12887
6.29992	3.18846
6.29227	3.24878
6.28465	3.31307
6.27704	3.31966
6.26945	3.31268
6.26188	3.36576
6.25432	3.35525
6.24679	3.35444
6.23927	3.44054
6.23177	3.46567
6.22429	3.43581
6.21683	3.46193
6.20938	3.45229
6.20195	3.39565
6.19454	3.44784
6.18715	3.56864
6.17978	3.57906
6.17242	3.51635
6.16508	3.51666
6.15776	3.52058
6.15045	3.50323
6.14317	3.55948
6.1359	3.66529
6.12864	3.69658
6.12141	3.66389
6.11419	3.65298
6.10699	3.62396
6.0998	3.70915
6.09263	3.79905
6.08549	3.79478
6.07835	3.84394
6.07123	3.91174
6.06413	4.02309
6.05705	4.01767
6.04998	3.99544
6.04293	4.09104
6.0359	4.17919
6.02888	4.26808
6.02187	4.33222
6.01489	4.3962
6.00792	4.39969
6.00096	4.44622
5.99403	4.56193
5.98711	4.71576
5.9802	4.72428
5.97331	4.73104
5.96644	4.87449
5.95958	4.92809
5.95274	5.00374
5.94591	5.12635
5.9391	5.26495
5.9323	5.46493
5.92552	5.62653
5.91876	5.74177
5.91201	5.79187
5.90528	5.80844
5.89856	6.02579
5.89186	6.24644
5.88517	6.32787
5.8785	6.46893
5.87184	6.6088
5.8652	6.73184
5.85857	6.80551
5.85196	6.88509
5.84536	7.00567
5.83878	7.21438
5.83221	7.40049
5.82566	7.62805
5.81912	7.65356
5.81259	7.66862
5.80608	7.88245
5.79959	8.01892
5.79311	8.09004
5.78665	8.27651
5.78019	8.44664
5.77376	8.61686
5.76734	8.76131
5.76093	8.72
5.75453	8.69715
5.74815	8.84599
5.74179	9.02737
5.73543	9.22387
5.7291	9.38452
5.72277	9.50948
5.71646	9.66803
5.71017	9.76605
5.70389	9.806
5.69762	9.87586
5.69136	10.0187
5.68513	10.1329
5.6789	10.2609
5.67268	10.3613
5.66648	10.4089
5.6603	10.5567
5.65413	10.6516
5.64797	10.6971
5.64182	10.8451
5.63569	10.9168
5.62957	11.0078
5.62347	11.1473
5.61737	11.2053
5.61129	11.2542
5.60522	11.3912
5.59917	11.4457
5.59313	11.5282
5.5871	11.6669
5.58109	11.8246
5.57509	11.9065
5.5691	11.8529
5.56312	11.8386
5.55716	11.9495
5.55121	12.1043
5.54528	12.1474
5.53935	12.2226
5.53344	12.2915
5.52754	12.333
5.52166	12.3636
5.51578	12.4752
5.50992	12.5538
5.50407	12.5646
5.49823	12.5889
5.49241	12.7191
5.4866	12.7988
5.4808	12.8359
5.47501	12.8835
5.46923	12.996
5.46347	13.018
5.45772	13.0287
5.45198	13.0631
5.44625	13.1192
5.44054	13.1948
5.43484	13.269
5.42914	13.3253
5.42347	13.4773
5.4178	13.5964
5.41214	13.6035
5.4065	13.5656
5.40087	13.5526
5.39525	13.612
5.38964	13.7046
5.38404	13.785
5.37846	13.8126
5.37288	13.8134
5.36732	13.8363
5.36177	13.8557
5.35623	13.9546
5.35071	14.09
5.34519	14.1478
5.33968	14.1875
5.33419	14.2123
5.32871	14.1606
5.32324	14.1307
5.31778	14.1994
5.31233	14.2916
5.30689	14.3614
5.30147	14.4116
5.29605	14.4218
5.29065	14.4559
5.28525	14.5047
5.27987	14.5799
5.2745	14.5697
5.26914	14.5241
5.26379	14.5354
5.25845	14.5568
5.25312	14.5905
5.24781	14.732
5.2425	14.89
5.23721	14.8974
5.23192	14.8469
5.22665	14.8055
5.22138	14.8673
5.21613	14.9744
5.21089	14.9962
5.20566	15.0157
5.20044	15.0051
5.19522	15.0117
5.19002	15.0298
5.18483	15.0048
5.17965	15.0348
5.17448	15.0539
5.16933	15.0491
5.16418	15.0834
5.15904	15.1374
5.15391	15.1868
5.14879	15.1808
5.14368	15.1308
5.13859	15.1001
5.1335	15.1224
5.12842	15.2503
5.12335	15.3428
5.1183	15.3071
5.11325	15.2514
5.10821	15.2757
5.10318	15.3071
5.09817	15.3195
5.09316	15.3339
5.08816	15.3786
5.08317	15.3963
5.07819	15.3937
5.07322	15.4753
5.06826	15.5009
5.06331	15.5229
5.05837	15.579
5.05344	15.5569
5.04852	15.5439
5.04361	15.5555
5.03871	15.5712
5.03382	15.6003
5.02894	15.6393
5.02406	15.65
5.0192	15.6648
5.01435	15.7131
5.0095	15.7491
5.00467	15.7955
4.99984	15.8589
4.99502	15.8574
4.99021	15.7887
4.98542	15.767
4.98063	15.7781
4.97585	15.8398
4.97108	15.9208
4.96632	15.99
4.96156	16.0321
4.95682	16.0307
4.95209	16.0834
4.94736	16.0951
4.94264	16.0722
4.93794	16.1531
4.93324	16.1502
4.92855	16.1505
4.92387	16.2564
4.9192	16.2864
4.91453	16.242
4.90988	16.2415
4.90524	16.2946
4.9006	16.4018
4.89597	16.4261
4.89135	16.4143
4.88674	16.4721
4.88214	16.565
4.87755	16.6298
4.87296	16.6171
4.86839	16.5441
4.86382	16.6083
4.85926	16.6027
4.85471	16.5209
4.85017	16.5614
4.84564	16.6396
4.84111	16.6904
4.8366	16.7012
4.83209	16.7564
4.82759	16.8346
4.8231	16.8926
4.81862	16.8917
4.81415	16.8788
4.80968	16.8055
4.80522	16.8355
4.80077	16.9065
4.79633	16.9473
4.7919	16.9464
4.78747	17.053
4.78306	17.1013
4.77865	17.057
4.77425	17.1075
4.76986	17.2078
4.76547	17.2981
4.7611	17.3182
4.75673	17.3689
4.75237	17.4005
4.74802	17.478
4.74367	17.4891
4.73934	17.4604
4.73501	17.4873
4.73069	17.5533
4.72638	17.6241
4.72207	17.6257
4.71777	17.6406
4.71348	17.7389
4.7092	17.7647
4.70493	17.7584
4.70066	17.7675
4.69641	17.8284
4.69216	17.9247
4.68791	17.996
4.68368	18.0015
4.67945	18.0076
4.67523	18.0352
4.67102	18.1044
4.66682	18.1666
4.66262	18.2391
4.65843	18.2754
4.65425	18.2359
4.65007	18.2714
4.64591	18.32
4.64175	18.3573
4.6376	18.3769
4.63345	18.4161
4.62932	18.4294
4.62519	18.4869
4.62106	18.5908
4.61695	18.6377
4.61284	18.6323
4.60874	18.6494
4.60465	18.7183
4.60056	18.7291
4.59648	18.7452
4.59241	18.7453
4.58835	18.7269
4.58429	18.7868
4.58024	18.8573
4.5762	18.9208
4.57216	19.0393
4.56814	19.138
4.56411	19.1214
4.5601	19.0981
4.55609	19.1648
4.55209	19.2488
4.5481	19.2875
4.54411	19.3413
4.54013	19.4199
4.53616	19.4805
4.5322	19.4731
4.52824	19.4811
4.52429	19.5702
4.52034	19.6568
4.51641	19.6521
4.51247	19.7071
4.50855	19.7626
4.50463	19.83
4.50072	19.8629
4.49682	19.8612
4.49292	19.9409
4.48903	20.033
4.48515	20.0743
4.48127	20.1363
4.4774	20.2228
4.47354	20.258
4.46968	20.2878
4.46584	20.3434
4.46199	20.397
4.45815	20.4337
4.45432	20.5013
4.4505	20.5744
4.44668	20.5882
4.44287	20.6153
4.43907	20.6793
4.43527	20.7749
4.43148	20.8116
4.4277	20.8451
4.42392	20.9234
4.42015	21.0077
4.41638	21.1005
4.41262	21.143
4.40887	21.1781
4.40513	21.2414
4.40139	21.364
4.39765	21.3786
4.39393	21.4075
4.39021	21.4808
4.38649	21.4393
4.38278	21.4865
4.37908	21.6057
4.37539	21.6981
4.3717	21.8071
4.36801	21.8289
4.36434	21.811
4.36067	21.7942
4.357	21.8697
4.35335	22.0748
4.34969	22.1815
4.34605	22.0819
4.34241	22.0482
4.33877	22.1262
4.33514	22.1687
4.33152	22.2661
4.32791	22.3461
4.3243	22.3663
4.32069	22.47
4.3171	22.5272
4.31351	22.616
4.30992	22.6445
4.30634	22.6447
4.30277	22.6522
4.2992	22.766
4.29564	22.8152
4.29208	22.7664
4.28853	22.7484
4.28499	22.8262
4.28145	22.9797
4.27792	23.0529
4.27439	23.0598
4.27087	23.0597
4.26735	23.0447
4.26384	23.0305
4.26034	23.0501
4.25684	23.0928
4.25335	23.179
4.24986	23.2284
4.24638	23.248
4.24291	23.2491
4.23944	23.3153
4.23598	23.367
4.23252	23.4147
4.22906	23.5484
4.22562	23.5512
4.22218	23.4791
4.21874	23.4531
4.21531	23.4956
4.21189	23.5983
4.20847	23.6347
4.20506	23.5663
4.20165	23.5789
4.19825	23.614
4.19485	23.591
4.19146	23.6305
4.18807	23.6623
4.18469	23.6526
4.18132	23.7245
4.17795	23.7398
4.17458	23.7323
4.17123	23.7526
4.16787	23.835
4.16453	23.8405
4.16118	23.8349
4.15785	23.9218
4.15451	23.9249
4.15119	23.7984
4.14787	23.8328
4.14455	23.8946
4.14124	23.8773
4.13794	23.884
4.13464	23.889
4.13134	23.9227
4.12805	24.0064
4.12477	24.0751
4.12149	24.1151
4.11822	24.1029
4.11495	24.0917
4.11168	24.0484
4.10843	24.0692
4.10517	24.0986
4.10192	24.08
4.09868	24.0664
4.09545	24.0551
4.09221	24.0836
4.08899	24.0977
4.08576	24.0872
4.08255	24.1307
4.07933	24.1171
4.07613	24.101
4.07292	24.1738
4.06973	24.188
4.06654	24.1555
4.06335	24.1546
4.06017	24.2165
4.05699	24.2271
4.05382	24.2114
4.05065	24.1676
4.04749	24.1403
4.04433	24.1812
4.04118	24.251
4.03803	24.2792
4.03489	24.2589
4.03175	24.2435
4.02862	24.2537
4.02549	24.2752
4.02237	24.3113
4.01925	24.2836
4.01614	24.2091
4.01303	24.1546
4.00993	24.1029
4.00683	24.165
4.00373	24.1989
4.00064	24.1333
3.99756	24.1693
3.99448	24.2028
3.9914	24.1975
3.98833	24.2173
3.98527	24.1614
3.98221	24.1229
3.97915	24.2095
3.9761	24.2044
3.97305	24.078
3.97001	24.052
3.96697	24.0079
3.96394	24.0036
3.96091	24.0307
3.95789	24.0345
3.95487	23.9466
3.95186	23.8971
3.94885	23.9075
3.94584	23.8964
3.94284	23.8751
3.93984	23.8485
3.93685	23.8701
3.93386	23.8404
3.93088	23.7668
3.9279	23.7737
3.92493	23.7842
3.92196	23.7489
3.919	23.7544
3.91604	23.7635
3.91308	23.6894
3.91013	23.6212
3.90718	23.6125
3.90424	23.6856
3.9013	23.7019
3.89837	23.6584
3.89544	23.5507
3.89252	23.4816
3.8896	23.508
3.88668	23.4685
3.88377	23.4595
3.88086	23.4751
3.87796	23.4559
3.87506	23.484
3.87217	23.5117
3.86928	23.4859
3.86639	23.3956
3.86351	23.3464
3.86064	23.3225
3.85776	23.2676
3.8549	23.2184
3.85203	23.2477
3.84917	23.3386
3.84631	23.2757
3.84346	23.1832
3.84062	23.225
3.83777	23.2451
3.83494	23.1329
3.8321	23.0162
3.82927	23.0529
3.82644	23.052
3.82362	22.9882
3.82081	22.9212
3.81799	22.8543
3.81518	22.7727
3.81238	22.7238
3.80958	22.7007
3.80678	22.6517
3.80399	22.6138
3.8012	22.6264
3.79841	22.6067
3.79563	22.4198
3.79286	22.2785
3.79008	22.3034
3.78731	22.3027
3.78455	22.3238
3.78179	22.2697
3.77903	22.1468
3.77628	22.1023
3.77353	22.1401
3.77079	22.0855
3.76805	21.9764
3.76531	21.8705
3.76258	21.8538
3.75985	21.8492
3.75713	21.8546
3.7544	21.7733
3.75169	21.6379
3.74898	21.5932
3.74627	21.5916
3.74356	21.4742
3.74086	21.3983
3.73816	21.4071
3.73547	21.378
3.73278	21.2898
3.7301	21.1319
3.72741	20.9761
3.72474	20.9204
3.72206	20.8257
3.71939	20.6576
3.71673	20.5124
3.71406	20.3496
3.71141	20.1508
3.70875	19.8994
3.7061	19.2615
3.70345	17.5481
3.70081	15.4393
3.69817	16.1615
3.69553	18.4565
3.6929	19.5946
3.69027	19.8636
3.68765	19.8745
3.68503	19.8569
3.68241	19.8272
3.6798	19.7154
3.67719	19.6007
3.67458	19.5051
3.67198	19.4207
3.66938	19.3411
3.66678	19.2504
3.66419	19.1216
3.66161	19.0593
3.65902	18.9638
3.65644	18.8398
3.65387	18.7408
3.65129	18.685
3.64872	18.6342
3.64616	18.5016
3.64359	18.4201
3.64103	18.4673
3.63848	18.3548
3.63593	18.1274
3.63338	18.0807
3.63084	18.0418
3.6283	17.9338
3.62576	17.7971
3.62322	17.7303
3.62069	17.6392
3.61817	17.5708
3.61564	17.5516
3.61312	17.4193
3.61061	17.2721
3.6081	17.1938
3.60559	17.1562
3.60308	17.0738
3.60058	16.9904
3.59808	16.9037
3.59558	16.8349
3.59309	16.6965
3.59061	16.6206
3.58812	16.551
3.58564	16.4532
3.58316	16.508
3.58069	16.5303
3.57822	16.5393
3.57575	16.5304
3.57328	16.4903
3.57082	16.4336
3.56836	16.4628
3.56591	16.4216
3.56346	16.3455
3.56101	16.2584
3.55857	16.1517
3.55613	16.0622
3.55369	15.9652
3.55126	15.802
3.54883	15.64
3.5464	15.5823
3.54397	15.5429
3.54155	15.5189
3.53914	15.4552
3.53672	15.2582
3.53431	15.1789
3.5319	15.1059
3.5295	15.0207
3.5271	15.012
3.5247	14.8721
3.52231	14.7376
3.51991	14.6294
3.51753	14.542
3.51514	14.4056
3.51276	14.3023
3.51038	14.2278
3.50801	14.1906
3.50563	14.1276
3.50327	13.9703
3.5009	13.9191
3.49854	13.9498
3.49618	13.9357
3.49382	13.8313
3.49147	13.7356
3.48912	13.6133
3.48677	13.6333
3.48443	13.6259
3.48209	13.5477
3.47975	13.5411
3.47742	13.4769
3.47509	13.3684
3.47276	13.2953
3.47044	13.2249
3.46812	13.0986
3.4658	13.035
3.46348	13.1101
3.46117	13.2254
3.45886	13.2181
3.45656	13.0647
3.45425	12.9662
3.45195	12.8664
3.44966	12.7236
3.44736	12.7343
3.44507	12.808
3.44279	12.6878
3.4405	12.4646
3.43822	12.3765
3.43594	12.4126
3.43367	12.3709
3.43139	12.3441
3.42912	12.2773
3.42686	12.1799
3.42459	12.1173
3.42233	12.061
3.42007	11.9915
3.41782	11.9155
3.41557	11.9485
3.41332	12.0041
3.41108	11.9351
3.40883	11.8595
3.40659	11.7559
3.40435	11.7745
3.40212	11.8292
3.39989	11.7258
3.39766	11.6905
3.39544	11.6699
3.39322	11.6037
3.391	11.5006
3.38878	11.437
3.38657	11.3778
3.38436	11.448
3.38215	11.4389
3.37994	11.2771
3.37774	11.2031
3.37554	11.1679
3.37335	11.168
3.37115	11.1287
3.36896	10.992
3.36678	10.8619
3.36459	10.9042
3.36241	10.8788
3.36023	10.7535
3.35805	10.7095
3.35588	10.6582
3.35371	10.5784
3.35154	10.4777
3.34938	10.4182
3.34721	10.4137
3.34505	10.3645
3.3429	10.3068
3.34074	10.2011
3.33859	10.1376
3.33644	10.0078
3.3343	9.81579
3.33215	9.8201
3.33001	9.85813
3.32788	9.82865
3.32574	9.70077
3.32361	9.56741
3.32148	9.58105
3.31936	9.49227
3.31723	9.36237
3.31511	9.36473
3.31299	9.37417
3.31088	9.40989
3.30876	9.3709
3.30665	9.24483
3.30455	9.17974
3.30244	9.19664
3.30034	9.22769
3.29824	9.10409
3.29614	9.0118
3.29405	8.99458
3.29196	9.03442
3.28987	9.17919
3.28778	9.20106
3.2857	9.06777
3.28362	9.10931
3.28154	9.22544
3.27946	9.19364
3.27739	9.25214
3.27532	9.33108
3.27325	9.30977
3.27119	9.3382
3.26913	9.34907
3.26707	9.35281
3.26501	9.30011
3.26295	9.30897
3.2609	9.25897
3.25885	9.27565
3.2568	9.29634
3.25476	9.34192
3.25272	9.33646
3.25068	9.25103
3.24864	9.24171
3.24661	9.21331
3.24458	9.21228
3.24255	9.23536
3.24052	9.24719
3.2385	9.24543
3.23648	9.2432
3.23446	9.18331
3.23244	8.90457
3.23043	8.79351
3.22841	8.85889
3.2264	8.88978
3.2244	8.87222
3.22239	8.85604
3.22039	8.88269
3.21839	8.90102
3.2164	8.89408
3.2144	8.85604
3.21241	8.84778
3.21042	8.8006
3.20844	8.61804
3.20645	8.47447
3.20447	8.542
3.20249	8.63052
3.20051	8.56378
3.19854	8.52461
3.19657	8.44358
3.1946	8.4011
3.19263	8.2894
3.19067	8.22538
3.1887	8.18439
3.18674	8.21629
3.18479	8.20958
3.18283	8.17283
3.18088	8.11537
3.17893	8.1364
3.17698	8.1945
3.17504	8.06611
3.17309	7.94834
3.17115	7.88109
3.16921	7.76587
3.16728	7.72262
3.16534	7.72656
3.16341	7.67367
3.16148	7.61623
3.15956	7.51767
3.15763	7.46791
3.15571	7.42869
3.15379	7.43313
3.15187	7.48744
3.14996	7.36292
3.14805	7.16236
3.14614	7.10436
3.14423	6.99487
3.14232	6.85819
3.14042	6.84974
3.13852	6.81264
3.13662	6.63453
3.13472	6.55007
3.13283	6.39388
3.13094	6.21211
3.12905	6.131
3.12716	6.01671
3.12528	5.90056
3.12339	5.85209
3.12151	5.69961
3.11964	5.53683
3.11776	5.52137
3.11589	5.39724
3.11401	5.1437
3.11214	5.06467
3.11028	5.14414
3.10841	5.12102
3.10655	4.9538
3.10469	4.90512
3.10283	4.9715
3.10098	4.89451
3.09912	4.77685
3.09727	4.74716
3.09542	4.70834
3.09358	4.53202
3.09173	4.42747
3.08989	4.33632
3.08805	4.18871
3.08621	4.16145
3.08437	4.24832
3.08254	4.24263
3.08071	4.13658
3.07888	4.05991
3.07705	3.97822
3.07523	3.84198
3.0734	3.77298
3.07158	3.88289
3.06977	3.96703
3.06795	3.84578
3.06613	3.80947
3.06432	3.63512
3.06251	3.5625
3.0607	3.62202
3.0589	3.60266
3.0571	3.57629
3.05529	3.61972
3.05349	3.62849
3.0517	3.61977
3.0499	3.67832
3.04811	3.72552
3.04632	3.75592
3.04453	3.79215
3.04274	3.85554
3.04096	3.8868
3.03918	3.96965
3.0374	3.99981
3.03562	3.96261
3.03384	4.16257
3.03207	4.34943
3.03029	4.37486
3.02852	4.37937
3.02676	4.48266
3.02499	4.57772
3.02323	4.61299
3.02146	4.56083
3.0197	4.63335
3.01795	4.72172
3.01619	4.66683
3.01444	4.66088
3.01269	4.70895
3.01094	4.66769
3.00919	4.79612
3.00744	4.8422
3.0057	4.86031
3.00396	4.93695
3.00222	4.89
3.00048	4.95052
2.99875	5.05542
2.99701	5.05124
2.99528	5.17485
2.99355	5.17158
2.99183	5.11852
2.9901	5.1318
2.98838	5.26333
2.98666	5.24479
2.98494	5.00438
2.98322	4.87191
2.9815	5.02288
2.97979	4.93372
2.97808	4.69779
2.97637	4.59479
2.97466	4.68202
2.97295	4.6842
2.97125	4.58385
2.96955	4.65314
2.96785	4.7297
2.96615	4.74037
2.96446	4.80431
2.96276	4.79622
2.96107	4.70314
2.95938	4.66556
2.95769	4.74927
2.95601	4.78927
2.95432	4.91075
2.95264	4.88498
2.95096	4.83119
2.94928	4.87776
2.9476	5.01294
2.94593	5.13655
2.94425	5.09653
2.94258	5.08055
2.94092	5.08265
2.93925	5.15269
2.93758	5.20807
2.93592	5.20545
2.93426	5.23734
2.9326	5.24783
2.93094	5.26441
2.92928	5.23836
2.92763	5.13258
2.92598	5.13721
2.92433	5.26303
2.92268	5.32565
2.92103	5.28654
2.91939	5.19617
2.91775	5.20645
2.9161	5.11851
2.91447	5.12215
2.91283	5.15025
2.91119	5.05004
2.90956	5.10183
2.90793	5.20873
2.9063	5.08284
2.90467	4.88629
2.90304	4.76691
2.90142	4.77415
2.89979	4.75207
2.89817	4.69262
2.89656	4.7649
2.89494	4.68186
2.89332	4.55885
2.89171	4.46579
2.8901	4.33149
2.88849	4.1319
2.88688	3.96632
2.88527	3.97583
2.88367	3.88328
2.88206	3.92121
2.88046	3.87843
2.87886	3.65604
2.87727	3.54435
2.87567	3.59989
2.87408	3.80811
2.87248	3.85194
2.87089	3.76432
2.8693	3.85256
2.86772	3.98459
2.86613	4.03977
2.86455	3.95952
2.86297	3.95854
2.86139	3.98416
2.85981	3.93053
2.85823	3.96286
2.85666	3.95426
2.85508	3.88466
2.85351	3.98543
2.85194	4.07764
2.85038	3.98795
2.84881	3.84061
2.84724	3.721
2.84568	3.85089
2.84412	3.98634
2.84256	3.82134
2.841	3.80035
2.83945	3.90191
2.83789	3.86632
2.83634	3.70173
2.83479	3.56376
2.83324	3.72708
2.83169	3.86573
2.83015	3.7986
2.82861	3.71956
2.82706	3.85885
2.82552	3.76793
2.82398	3.65768
2.82245	3.71256
2.82091	3.6997
2.81938	3.6401
2.81784	3.70938
2.81631	3.64433
2.81479	3.41341
2.81326	3.33145
2.81173	3.38689
2.81021	3.45776
2.80869	3.62039
2.80716	3.77814
2.80565	3.86148
2.80413	3.88486
2.80261	3.82778
2.8011	3.6885
2.79959	3.55978
2.79808	3.36174
2.79657	3.2081
2.79506	3.32965
2.79355	3.52337
2.79205	3.54784
2.79055	3.68237
2.78904	3.95277
2.78754	4.03374
2.78605	4.09839
2.78455	4.15355
2.78306	4.18405
2.78156	4.1315
2.78007	4.36142
2.77858	4.75885
2.77709	4.67035
2.77561	4.30476
2.77412	4.34862
2.77264	4.59266
2.77116	4.55602
2.76968	4.51055
2.7682	4.46729
2.76672	4.33158
2.76524	4.26952
2.76377	4.26957
2.7623	4.36315
2.76083	4.50999
2.75936	4.62943
2.75789	4.50134
2.75642	4.51241
2.75496	4.40503
2.7535	4.10036
2.75203	3.77475
2.75057	3.72862
2.74912	3.89835
2.74766	4.03125
2.7462	4.04205
2.74475	3.96488
2.7433	3.77879
2.74185	3.72279
2.7404	3.87149
2.73895	4.02412
2.7375	3.872
2.73606	3.74173
2.73462	3.97473
2.73318	4.09523
2.73174	4.00061
2.7303	3.98364
2.72886	3.94829
2.72742	3.91511
2.72599	3.89462
2.72456	3.77985
2.72313	3.72296
2.7217	3.71805
2.72027	3.58779
2.71884	3.50899
2.71742	3.47716
2.71599	3.28562
2.71457	3.1203
2.71315	3.1427
2.71173	3.13724
2.71032	3.02699
2.7089	2.98805
2.70748	3.10825
2.70607	3.22811
2.70466	3.24634
2.70325	3.27033
2.70184	3.56113
2.70043	4.08964
2.69903	4.48555
2.69762	4.70037
2.69622	4.85711
2.69482	4.65653
2.69342	4.42139
2.69202	4.72546
2.69062	5.43913
2.68923	5.88606
2.68783	6.24809
2.68644	6.68889
2.68505	6.92498
2.68366	7.05741
2.68227	7.05404
2.68089	7.13294
2.6795	7.29729
2.67812	7.41213
2.67673	7.50629
2.67535	7.57512
2.67397	7.66005
2.6726	7.69327
2.67122	7.84602
2.66984	7.81664
2.66847	7.5639
2.6671	7.29105
2.66572	7.1031
2.66435	7.01369
2.66299	6.92536
2.66162	6.9338
2.66025	6.89981
2.65889	6.75302
2.65753	6.63396
2.65616	6.52784
2.65481	6.3361
2.65345	6.16455
2.65209	6.06839
2.65073	5.88978
2.64938	5.74207
2.64803	5.61274
2.64667	5.44753
2.64532	5.37514
2.64397	5.26437
2.64263	5.1093
2.64128	5.03437
2.63994	4.95119
2.63859	4.87664
2.63725	4.92621
2.63591	5.02162
2.63457	5.1275
2.63323	5.20161
2.6319	5.19827
2.63056	5.17208
2.62923	5.19546
2.62789	5.27272
2.62656	5.40843
2.62523	5.63093
2.6239	5.64615
2.62258	5.58517
2.62125	5.75442
2.61993	6.0982
2.6186	6.29183
2.61728	6.40066
2.61596	6.44797
2.61464	6.47557
2.61332	6.53748
2.61201	6.64786
2.61069	6.82672
2.60938	7.02066
2.60807	7.04432
2.60675	6.99794
2.60544	7.09189
2.60414	7.28234
2.60283	7.65116
2.60152	7.95239
2.60022	7.81674
2.59891	8.01084
2.59761	8.34888
2.59631	8.59444
2.59501	8.83919
2.59371	8.93487
2.59242	9.00077
2.59112	9.27374
2.58983	9.65455
2.58853	10.1171
2.58724	10.4465
2.58595	10.6591
2.58466	10.9722
2.58338	11.192
2.58209	11.2896
2.5808	11.2623
2.57952	11.1293
2.57824	11.0712
2.57695	11.0097
2.57567	10.9526
2.5744	10.9271
2.57312	10.4936
2.57184	10.1694
2.57057	10.2939
2.56929	10.2148
2.56802	9.92315
2.56675	9.70258
2.56548	9.70306
2.56421	9.55116
2.56294	9.2984
2.56168	9.08571
2.56041	8.68722
2.55915	8.31444
2.55789	8.01616
2.55662	7.8914
2.55536	7.85806
2.5541	7.62399
2.55285	7.35033
2.55159	7.17591
2.55034	7.08885
2.54908	6.90404
2.54783	6.62094
2.54658	6.4722
2.54533	6.31808
2.54408	6.17488
2.54283	5.94259
2.54159	5.77613
2.54034	5.6605
2.5391	5.46187
2.53785	5.37036
2.53661	5.24381
2.53537	4.97551
2.53413	4.6497
2.53289	4.44839
2.53166	4.46614
2.53042	4.48602
2.52919	4.43213
2.52795	4.40428
2.52672	4.5079
2.52549	4.59931
2.52426	4.6861
2.52303	4.83397
2.52181	4.84039
2.52058	5.0297
2.51936	5.39417
2.51813	5.49188
2.51691	5.53539
2.51569	5.46795
2.51447	5.31577
2.51325	5.26448
2.51203	5.26065
2.51082	5.21305
2.5096	4.98383
2.50839	4.78089
2.50717	4.86831
2.50596	4.71331
2.50475	4.35016
2.50354	4.1161
2.50233	4.04237
2.50113	3.96194
2.49992	3.90288
2.49872	3.85759
2.49751	3.71195
2.49631	3.61187
2.49511	3.67203
2.49391	3.80667
2.49271	3.84658
2.49151	3.74689
2.49031	3.62552
2.48912	3.56971
2.48792	3.28908
2.48673	3.13659
2.48554	3.16586
2.48435	3.15689
2.48316	3.2375
2.48197	3.25302
2.48078	3.18616
2.4796	3.20471
2.47841	3.22201
2.47723	3.13523
2.47604	3.13707
2.47486	3.18321
2.47368	3.28538
2.4725	3.2747
2.47132	3.41648
2.47014	3.62304
2.46897	3.61097
2.46779	3.62342
2.46662	3.71965
2.46545	3.81558
2.46427	3.77504
2.4631	3.68644
2.46193	3.68692
2.46077	3.98612
2.4596	4.07388
2.45843	3.82181
2.45727	3.67474
2.4561	3.90064
2.45494	4.29773
2.45378	4.47397
2.45262	4.3672
2.45146	4.2671
2.4503	4.32887
2.44914	4.48383
2.44799	4.78348
2.44683	4.79291
2.44568	4.68725
2.44452	4.72941
2.44337	4.80958
2.44222	4.94698
2.44107	5.0576
2.43992	5.2386
2.43877	5.41689
2.43763	5.6469
2.43648	5.80814
2.43534	5.83386
2.43419	5.86681
2.43305	6.05781
2.43191	6.17345
2.43077	6.30584
2.42963	6.35601
2.42849	6.41199
2.42736	6.57232
2.42622	6.90025
2.42509	7.16113
2.42395	7.52872
2.42282	8.02117
2.42169	8.34255
2.42056	8.94659
2.41943	9.62464
2.4183	10.1159
2.41717	10.6255
2.41605	11.358
2.41492	12.2523
2.4138	12.9652
2.41267	13.5138
2.41155	14.1477
2.41043	14.7853
2.40931	15.4153
2.40819	15.9752
2.40707	16.721
2.40595	17.2817
2.40484	17.6338
2.40372	17.9589
2.40261	18.3895
2.4015	18.6811
2.40039	18.8521
2.39928	19.0368
2.39817	19.2895
2.39706	19.7464
2.39595	19.9677
2.39484	19.9278
2.39374	19.9505
2.39263	19.9751
2.39153	20.0851
2.39043	20.4051
2.38932	20.5218
2.38822	20.5247
2.38712	20.5708
2.38603	20.5651
2.38493	20.7567
2.38383	20.8931
2.38274	20.6951
2.38164	20.6301
2.38055	20.7523
2.37946	20.7655
2.37836	20.7462
2.37727	20.9032
2.37618	20.9719
2.3751	20.7977
2.37401	20.7159
2.37292	20.6905
2.37184	20.6418
2.37075	20.6679
2.36967	20.595
2.36859	20.511
2.3675	20.481
2.36642	20.4603
2.36534	20.291
2.36427	20.021
2.36319	19.8503
2.36211	19.8675
2.36104	19.7514
2.35996	19.5551
2.35889	19.418
2.35781	19.298
2.35674	19.0959
2.35567	18.7534
2.3546	18.4206
2.35353	18.1961
2.35247	18.0501
2.3514	17.8984
2.35033	17.5638
2.34927	17.0377
2.3482	16.6006
2.34714	16.2815
2.34608	16.0564
2.34502	15.6726
2.34396	15.1874
2.3429	14.9017
2.34184	14.5446
2.34078	13.9481
2.33973	13.3375
2.33867	12.9557
2.33762	12.7077
2.33656	12.2256
2.33551	11.6446
2.33446	11.3734
2.33341	11.3528
2.33236	11.1384
2.33131	10.7585
2.33026	10.5965
2.32922	10.4943
2.32817	10.1253
2.32712	9.95092
2.32608	9.92967
2.32504	9.794
2.324	9.64455
2.32295	9.70449
2.32191	9.7701
2.32087	9.81462
2.31984	9.83645
2.3188	9.83179
2.31776	10.0291
2.31673	9.95437
2.31569	9.81153
2.31466	9.97823
2.31362	10.0587
2.31259	10.2602
2.31156	10.593
2.31053	10.6699
2.3095	10.7804
2.30847	10.8181
2.30745	11.0949
2.30642	11.3402
2.3054	11.4452
2.30437	11.6966
2.30335	11.7931
2.30232	11.9278
2.3013	12.2201
2.30028	12.5905
2.29926	12.7027
2.29824	12.7405
2.29722	13.0619
2.29621	13.3581
2.29519	13.4948
2.29417	13.6361
2.29316	13.8682
2.29215	14.2807
2.29113	14.4295
2.29012	14.5713
2.28911	14.6884
2.2881	14.7749
2.28709	14.9271
2.28608	15.0951
2.28507	15.1588
2.28407	15.3127
2.28306	15.5198
2.28206	15.7033
2.28105	15.8191
2.28005	15.7131
2.27905	15.7419
2.27805	15.7314
2.27705	15.8266
2.27605	16.0072
2.27505	15.9542
2.27405	15.9166
2.27305	15.7164
2.27206	15.7809
2.27106	16.0084
2.27007	16.1355
2.26907	16.086
2.26808	16.0305
2.26709	16.1277
2.2661	16.1735
2.26511	16.1929
2.26412	16.2073
2.26313	16.1667
2.26214	16.1555
2.26116	16.1704
2.26017	16.269
2.25919	16.3491
2.2582	16.3637
2.25722	16.3201
2.25624	16.2751
2.25526	16.4124
2.25428	16.5793
2.2533	16.5801
2.25232	16.642
2.25134	16.7777
2.25036	16.7395
2.24939	16.5689
2.24841	16.6203
2.24744	16.8175
2.24646	16.8896
2.24549	17.0385
2.24452	17.0401
2.24355	17.0332
2.24257	17.1161
2.24161	17.2156
2.24064	17.2938
2.23967	17.5241
2.2387	17.5937
2.23774	17.6546
2.23677	17.7995
2.23581	17.9375
2.23484	18.0294
2.23388	18.0841
2.23292	18.3033
2.23196	18.5142
2.231	18.5845
2.23004	18.5492
2.22908	18.6985
2.22812	18.9025
2.22716	18.9479
2.22621	18.9821
2.22525	19.2163
2.2243	19.4039
2.22334	19.5153
2.22239	19.581
2.22144	19.8206
2.22049	20.0891
2.21953	20.2178
2.21859	20.3784
2.21764	20.4693
2.21669	20.4273
2.21574	20.6009
2.21479	20.9594
2.21385	21.2486
2.2129	21.1841
2.21196	21.2112
2.21102	21.3607
2.21007	21.6476
2.20913	21.8177
2.20819	21.9413
2.20725	22.059
2.20631	21.8677
2.20537	21.7331
2.20444	21.8625
2.2035	21.9805
2.20256	22.1163
2.20163	22.1858
2.20069	22.1747
2.19976	22.3209
2.19883	22.693
2.19789	22.7535
2.19696	22.8502
2.19603	23.1594
2.1951	23.4597
2.19417	23.5962
2.19325	23.6797
2.19232	23.8906
2.19139	24.2008
2.19047	24.6176
2.18954	24.8505
2.18862	24.9094
2.18769	25.0523
2.18677	25.3885
2.18585	25.8656
2.18493	26.3415
2.18401	26.5602
2.18309	26.8136
2.18217	27.2117
2.18125	27.6017
2.18033	27.7486
2.17942	27.8813
2.1785	28.4545
2.17759	28.9234
2.17667	29.1382
2.17576	29.4251
2.17485	29.8546
2.17393	30.1842
2.17302	30.4531
2.17211	30.6591
2.1712	30.9076
2.17029	31.251
2.16939	31.6291
2.16848	31.7913
2.16757	32.023
2.16667	32.285
2.16576	32.3353
2.16486	32.2545
2.16395	32.4137
2.16305	32.8519
2.16215	33.0563
2.16125	33.1506
2.16035	33.1882
2.15945	33.2183
2.15855	33.2449
2.15765	33.2783
2.15675	33.2524
2.15586	33.2016
2.15496	33.1734
2.15406	33.2472
2.15317	33.4048
2.15228	33.3404
2.15138	33.2617
2.15049	33.1469
2.1496	33.0444
2.14871	33.1041
2.14782	33.2954
2.14693	33.342
2.14604	32.9533
2.14515	32.7978
2.14427	32.6087
2.14338	32.4564
2.14249	32.5311
2.14161	32.4281
2.14072	32.3485
2.13984	32.3209
2.13896	32.165
2.13808	32.1259
2.13719	32.4165
2.13631	32.5575
2.13543	32.3793
2.13455	32.1952
2.13368	32.1542
2.1328	32.0955
2.13192	32.152
2.13105	32.1163
2.13017	32.1039
2.1293	32.0125
2.12842	32.077
2.12755	32.0793
2.12668	31.9353
2.1258	31.9411
2.12493	32.0772
2.12406	32.1101
2.12319	32.1645
2.12232	32.1648
2.12145	32.0972
2.12059	32.0814
2.11972	32.1898
2.11885	32.4226
2.11799	32.3913
2.11712	32.2207
2.11626	32.2028
2.1154	32.1658
2.11453	32.3265
2.11367	32.4158
2.11281	32.3234
2.11195	32.2644
2.11109	32.3051
2.11023	32.5058
2.10937	32.6918
2.10851	32.5878
2.10766	32.3494
2.1068	32.496
2.10594	32.842
2.10509	33.0291
2.10423	32.911
2.10338	32.9063
2.10253	32.755
2.10168	32.6284
2.10082	32.9854
2.09997	33.1503
2.09912	33.2516
2.09827	33.2872
2.09742	33.2257
2.09658	33.2713
2.09573	32.9021
2.09488	32.7976
2.09404	33.2464
2.09319	33.773
2.09235	33.5445
2.0915	32.9882
2.09066	32.9514
2.08982	33.1203
2.08897	33.5729
2.08813	33.832
2.08729	33.8406
2.08645	33.731
2.08561	33.6758
2.08477	33.6506
2.08394	33.5578
2.0831	33.3114
2.08226	33.4571
2.08143	33.4412
2.08059	33.5191
2.07976	33.78
2.07892	33.8202
2.07809	33.4007
2.07726	33.4462
2.07643	33.7983
2.07559	33.884
2.07476	33.7674
2.07393	33.7576
2.0731	34.0692
2.07228	33.6269
2.07145	33.3414
2.07062	33.7913
2.06979	34.2444
2.06897	34.3599
2.06814	34.2269
2.06732	34.1809
2.06649	34.3644
2.06567	34.5384
2.06485	34.402
2.06403	33.7567
2.0632	33.682
2.06238	33.9833
2.06156	33.9652
2.06074	34.0465
2.05993	34.1279
2.05911	34.1476
2.05829	33.981
2.05747	33.883
2.05666	34.0499
2.05584	34.3893
2.05503	34.6074
2.05421	34.8339
2.0534	34.857
2.05259	34.6923
2.05177	35.1307
2.05096	35.471
2.05015	35.2562
2.04934	34.9465
2.04853	34.9655
2.04772	35.1406
2.04691	35.1678
2.04611	35.3482
2.0453	35.6883
2.04449	35.7385
2.04369	35.5101
2.04288	35.5832
2.04208	35.687
2.04127	35.8058
2.04047	35.8251
2.03967	35.9464
2.03886	36.1018
2.03806	36.0487
2.03726	36.1357
2.03646	36.1588
2.03566	36.224
2.03486	36.4735
2.03407	36.6897
2.03327	36.9381
2.03247	36.909
2.03167	36.7391
2.03088	36.9125
2.03008	36.9847
2.02929	36.8046
2.0285	36.7432
2.0277	36.8167
2.02691	36.9051
2.02612	36.9614
2.02533	37.069
2.02453	37.0318
2.02374	37.047
2.02295	37.2074
2.02217	37.247
2.02138	37.4281
2.02059	37.5298
2.0198	37.6276
2.01902	37.7665
2.01823	37.7764
2.01744	37.9205
2.01666	38.0268
2.01588	38.111
2.01509	38.3291
2.01431	38.417
2.01353	38.5799
2.01275	38.6523
2.01196	38.6458
2.01118	38.8098
2.0104	39.0272
2.00963	39.256
2.00885	39.4858
2.00807	39.683
2.00729	39.7177
2.00651	39.9109
2.00574	40.1918
2.00496	40.3271
2.00419	40.3504
2.00341	40.695
2.00264	40.9451
2.00187	41.1253
2.00109	41.4281
2.00032	41.3846
