Name: Dolomite Marble
Type: Rock
Class: Metamorphic
Subclass:  Marble 
Particle Size: Solid surface
Sample No.: Ward97.txt
Owner: JPL
Wavelength range:  VNIR SWIR IR 
Origin: Ward's Collection of American Rocks.  Sample locality - Thornwood, Westchester County, New York.  Collected by - JPL.
Collected by:  Ward's Natural Science
Description: A coarse granular marble composed mainly of dolomite.
Geologic age -  Pre-Cambrian




Measurement: Hemispherical reflectance
First Column: X
Second Column: Y
X Units: Wavelength (micrometers)
Y Units: Reflectance (percent)
First X Value: 2.500
Last X Value: 0.400
Number of X Values: 2101
Additional information: None

2.500  11.666233
2.499  11.446121
2.498  11.658253
2.497  12.058320
2.496  11.220181
2.495  12.076928
2.494  11.848775
2.493  11.973741
2.492  11.949731
2.491  12.245344
2.490  12.212209
2.489  12.567228
2.488  12.418207
2.487  12.605090
2.486  12.579176
2.485  12.870070
2.484  12.682633
2.483  13.041468
2.482  12.869051
2.481  13.159159
2.480  12.998137
2.479  13.470977
2.478  13.318232
2.477  13.491267
2.476  13.526330
2.475  13.569708
2.474  13.693032
2.473  13.875648
2.472  13.714247
2.471  13.962886
2.470  13.834846
2.469  13.941363
2.468  13.979628
2.467  14.127316
2.466  14.076022
2.465  14.110204
2.464  14.179596
2.463  14.227632
2.462  14.217919
2.461  14.371371
2.460  14.325114
2.459  14.521858
2.458  14.403861
2.457  14.596827
2.456  14.737786
2.455  14.918203
2.454  14.854131
2.453  15.178191
2.452  15.148571
2.451  15.388608
2.450  15.455111
2.449  15.719250
2.448  15.711713
2.447  16.035088
2.446  16.176456
2.445  16.425608
2.444  16.485142
2.443  16.816467
2.442  16.927784
2.441  17.134896
2.440  17.317095
2.439  17.655575
2.438  17.867429
2.437  18.147445
2.436  18.325836
2.435  18.649645
2.434  18.794175
2.433  19.163065
2.432  19.285321
2.431  19.586176
2.430  19.816319
2.429  20.132130
2.428  20.293798
2.427  20.582205
2.426  20.797983
2.425  21.179709
2.424  21.385209
2.423  21.756777
2.422  22.062145
2.421  22.315524
2.420  22.479500
2.419  22.844811
2.418  23.104084
2.417  23.365364
2.416  23.602635
2.415  23.852100
2.414  24.131163
2.413  24.423635
2.412  24.530984
2.411  24.810812
2.410  24.979911
2.409  25.193557
2.408  25.371626
2.407  25.540063
2.406  25.673213
2.405  25.895168
2.404  25.976739
2.403  26.144242
2.402  26.276634
2.401  26.406493
2.400  26.559443
2.399  26.691974
2.398  26.828161
2.397  26.999564
2.396  27.070175
2.395  27.238124
2.394  27.307779
2.393  27.434209
2.392  27.537619
2.391  27.691241
2.390  27.777176
2.389  27.910139
2.388  28.085919
2.387  28.294592
2.386  28.365593
2.385  28.469274
2.384  28.610459
2.383  28.699591
2.382  28.816359
2.381  28.955023
2.380  29.092232
2.379  29.316891
2.378  29.437162
2.377  29.561635
2.376  29.762255
2.375  29.980721
2.374  30.081871
2.373  30.272104
2.372  30.402946
2.371  30.475416
2.370  30.662957
2.369  30.887929
2.368  30.971186
2.367  31.015803
2.366  31.118234
2.365  31.207064
2.364  31.221236
2.363  31.252045
2.362  31.214983
2.361  31.167243
2.360  31.051514
2.359  30.864560
2.358  30.691038
2.357  30.499916
2.356  30.222177
2.355  29.944717
2.354  29.631633
2.353  29.177193
2.352  28.658007
2.351  28.197664
2.350  27.786538
2.349  27.262827
2.348  26.750738
2.347  26.206102
2.346  25.587002
2.345  24.954119
2.344  24.429377
2.343  23.812612
2.342  23.158718
2.341  22.573450
2.340  21.965498
2.339  21.378725
2.338  20.855477
2.337  20.299865
2.336  19.798846
2.335  19.256841
2.334  18.861368
2.333  18.471216
2.332  18.097062
2.331  17.771902
2.330  17.473560
2.329  17.103934
2.328  16.835386
2.327  16.641268
2.326  16.473496
2.325  16.246408
2.324  16.102918
2.323  15.937125
2.322  15.893568
2.321  15.796358
2.320  15.728555
2.319  15.676686
2.318  15.693076
2.317  15.602484
2.316  15.658732
2.315  15.745969
2.314  15.760955
2.313  15.774417
2.312  15.848236
2.311  15.868843
2.310  15.998501
2.309  16.120256
2.308  16.230013
2.307  16.328427
2.306  16.443467
2.305  16.443334
2.304  16.633010
2.303  16.703959
2.302  16.841589
2.301  16.950107
2.300  17.091532
2.299  17.137522
2.298  17.332091
2.297  17.393803
2.296  17.566863
2.295  17.661431
2.294  17.761873
2.293  17.868355
2.292  18.076915
2.291  18.096260
2.290  18.323315
2.289  18.497542
2.288  18.579871
2.287  18.632427
2.286  18.762599
2.285  18.875315
2.284  18.995938
2.283  19.061065
2.282  19.210385
2.281  19.351167
2.280  19.513827
2.279  19.505578
2.278  19.639042
2.277  19.700120
2.276  19.825049
2.275  19.792665
2.274  20.040083
2.273  20.009087
2.272  20.180466
2.271  20.269310
2.270  20.491518
2.269  20.492361
2.268  20.655522
2.267  20.779284
2.266  20.967213
2.265  21.127054
2.264  21.396667
2.263  21.467066
2.262  21.681636
2.261  21.956394
2.260  22.270852
2.259  22.454989
2.258  22.739575
2.257  22.906131
2.256  23.295029
2.255  23.535656
2.254  23.948783
2.253  24.208262
2.252  24.466008
2.251  24.813130
2.250  25.143886
2.249  25.409618
2.248  25.714664
2.247  26.120145
2.246  26.357630
2.245  26.622405
2.244  26.998762
2.243  27.308097
2.242  27.677585
2.241  27.921011
2.240  28.210869
2.239  28.543273
2.238  28.893377
2.237  29.097692
2.236  29.447437
2.235  29.671844
2.234  30.049230
2.233  30.233859
2.232  30.616110
2.231  30.700578
2.230  31.060145
2.229  31.260866
2.228  31.519446
2.227  31.724427
2.226  32.015142
2.225  32.097826
2.224  32.383920
2.223  32.569925
2.222  32.829468
2.221  32.945958
2.220  33.288247
2.219  33.446691
2.218  33.705653
2.217  33.769139
2.216  34.162135
2.215  34.221462
2.214  34.633743
2.213  34.649064
2.212  35.027905
2.211  34.986335
2.210  35.551706
2.209  35.755533
2.208  35.956739
2.207  36.138005
2.206  36.455560
2.205  36.639973
2.204  37.071040
2.203  37.071760
2.202  37.473607
2.201  37.607279
2.200  38.070633
2.199  38.125651
2.198  38.434298
2.197  38.523293
2.196  38.902026
2.195  39.125572
2.194  39.306308
2.193  39.480604
2.192  39.741922
2.191  39.860200
2.190  40.156570
2.189  40.374119
2.188  40.536394
2.187  40.678516
2.186  40.886492
2.185  40.954010
2.184  41.226240
2.183  41.388807
2.182  41.444370
2.181  41.623341
2.180  41.774007
2.179  41.782618
2.178  41.957351
2.177  42.053840
2.176  42.079601
2.175  42.102145
2.174  42.283767
2.173  42.264074
2.172  42.325273
2.171  42.284299
2.170  42.348623
2.169  42.375517
2.168  42.397890
2.167  42.375201
2.166  42.462696
2.165  42.390282
2.164  42.410672
2.163  42.257022
2.162  42.386303
2.161  42.215768
2.160  42.237512
2.159  42.051877
2.158  42.007226
2.157  41.994678
2.156  41.881419
2.155  41.742811
2.154  41.643888
2.153  41.534159
2.152  41.419666
2.151  41.279194
2.150  41.146067
2.149  41.052058
2.148  40.963804
2.147  40.768548
2.146  40.722485
2.145  40.633045
2.144  40.621762
2.143  40.576422
2.142  40.476732
2.141  40.394671
2.140  40.416643
2.139  40.406999
2.138  40.539440
2.137  40.469895
2.136  40.540192
2.135  40.599357
2.134  40.688789
2.133  40.652140
2.132  40.791833
2.131  40.883856
2.130  41.044467
2.129  41.208058
2.128  41.296383
2.127  41.359315
2.126  41.578525
2.125  41.738843
2.124  41.999572
2.123  42.105717
2.122  42.258054
2.121  42.336605
2.120  42.448910
2.119  42.619944
2.118  42.838386
2.117  42.934885
2.116  43.068504
2.115  43.284734
2.114  43.424385
2.113  43.549336
2.112  43.711644
2.111  43.721560
2.110  43.846346
2.109  43.936958
2.108  44.007502
2.107  44.145753
2.106  44.288894
2.105  44.383666
2.104  44.511419
2.103  44.542875
2.102  44.575936
2.101  44.644115
2.100  44.754441
2.099  44.788488
2.098  44.875209
2.097  44.906787
2.096  44.929457
2.095  44.985326
2.094  45.115218
2.093  45.205995
2.092  45.293482
2.091  45.334755
2.090  45.378280
2.089  45.414624
2.088  45.487897
2.087  45.582340
2.086  45.697072
2.085  45.749939
2.084  45.850426
2.083  45.917083
2.082  45.895325
2.081  46.046287
2.080  46.230652
2.079  46.268058
2.078  46.323679
2.077  46.448431
2.076  46.556507
2.075  46.650190
2.074  46.712686
2.073  46.821544
2.072  46.965781
2.071  47.046208
2.070  47.083420
2.069  47.143543
2.068  47.266304
2.067  47.372070
2.066  47.370735
2.065  47.398428
2.064  47.474548
2.063  47.522069
2.062  47.541020
2.061  47.594472
2.060  47.652824
2.059  47.638325
2.058  47.627288
2.057  47.700087
2.056  47.748165
2.055  47.792446
2.054  47.814369
2.053  47.703666
2.052  47.695487
2.051  47.792206
2.050  47.856633
2.049  47.801110
2.048  47.809790
2.047  47.785697
2.046  47.763494
2.045  47.786543
2.044  47.798332
2.043  47.816070
2.042  47.794142
2.041  47.820989
2.040  47.748962
2.039  47.716889
2.038  47.680974
2.037  47.683486
2.036  47.695879
2.035  47.658792
2.034  47.615746
2.033  47.619811
2.032  47.570641
2.031  47.561921
2.030  47.460656
2.029  47.346086
2.028  47.372876
2.027  47.390748
2.026  47.281705
2.025  47.178148
2.024  47.106877
2.023  47.042829
2.022  46.908326
2.021  46.828780
2.020  46.739880
2.019  46.677372
2.018  46.598486
2.017  46.407417
2.016  46.273667
2.015  46.157313
2.014  46.047389
2.013  46.030708
2.012  45.909699
2.011  45.827141
2.010  45.593271
2.009  45.525499
2.008  45.304415
2.007  45.193636
2.006  45.071293
2.005  44.879798
2.004  44.760407
2.003  44.546620
2.002  44.336556
2.001  44.166704
2.000  43.909589
1.999  43.594929
1.998  43.351003
1.997  43.138303
1.996  42.835176
1.995  42.503871
1.994  42.201699
1.993  41.955730
1.992  41.637581
1.991  41.329505
1.990  40.994187
1.989  40.786169
1.988  40.484061
1.987  40.315660
1.986  40.039641
1.985  39.882876
1.984  39.681301
1.983  39.604846
1.982  39.516977
1.981  39.465487
1.980  39.360622
1.979  39.353749
1.978  39.368407
1.977  39.343045
1.976  39.343279
1.975  39.463435
1.974  39.399593
1.973  39.517194
1.972  39.515550
1.971  39.574505
1.970  39.614720
1.969  39.755905
1.968  39.805875
1.967  39.929765
1.966  39.825211
1.965  39.966335
1.964  40.012017
1.963  40.100039
1.962  40.031263
1.961  40.137805
1.960  40.158347
1.959  40.212580
1.958  40.265392
1.957  40.394381
1.956  40.318042
1.955  40.355061
1.954  40.303877
1.953  40.385804
1.952  40.397513
1.951  40.337926
1.950  40.352112
1.949  40.402022
1.948  40.263004
1.947  40.373204
1.946  40.257349
1.945  40.469279
1.944  40.238452
1.943  40.322406
1.942  40.297424
1.941  40.343244
1.940  40.333147
1.939  40.444987
1.938  40.336523
1.937  40.536290
1.936  40.410633
1.935  40.537545
1.934  40.489085
1.933  40.703871
1.932  40.618642
1.931  40.877430
1.930  40.774390
1.929  40.938244
1.928  40.850318
1.927  41.075350
1.926  40.910051
1.925  41.240939
1.924  41.164361
1.923  41.339433
1.922  41.422998
1.921  41.496316
1.920  41.483302
1.919  41.745545
1.918  41.690253
1.917  41.920352
1.916  41.964243
1.915  42.192867
1.914  42.323789
1.913  42.375879
1.912  42.406813
1.911  42.619443
1.910  42.744697
1.909  42.945838
1.908  43.067034
1.907  43.195054
1.906  43.326897
1.905  43.587718
1.904  43.748429
1.903  44.132437
1.902  44.297798
1.901  44.680544
1.900  44.892014
1.899  45.338926
1.898  45.589419
1.897  45.906876
1.896  46.286735
1.895  46.656587
1.894  46.973483
1.893  47.318932
1.892  47.451855
1.891  47.925835
1.890  48.220021
1.889  48.513496
1.888  48.743025
1.887  49.161937
1.886  49.326453
1.885  49.596469
1.884  49.600494
1.883  49.893488
1.882  50.024402
1.881  50.215027
1.880  50.076605
1.879  50.080947
1.878  50.020889
1.877  50.021741
1.876  49.761771
1.875  49.516310
1.874  49.115367
1.873  48.972697
1.872  48.592520
1.871  48.299616
1.870  47.799979
1.869  47.455865
1.868  47.123943
1.867  46.819117
1.866  46.498123
1.865  46.237491
1.864  45.910111
1.863  45.887123
1.862  45.702861
1.861  45.693236
1.860  45.777730
1.859  45.853601
1.858  45.960253
1.857  46.153160
1.856  46.377640
1.855  46.534848
1.854  46.686090
1.853  46.935138
1.852  47.166855
1.851  47.481413
1.850  47.607440
1.849  47.906164
1.848  48.190347
1.847  48.364818
1.846  48.533638
1.845  48.806186
1.844  48.970751
1.843  49.100151
1.842  49.302942
1.841  49.539904
1.840  49.734275
1.839  49.914145
1.838  50.084299
1.837  50.235640
1.836  50.351547
1.835  50.570249
1.834  50.728763
1.833  50.830920
1.832  50.859799
1.831  50.957421
1.830  51.093668
1.829  51.183253
1.828  51.292931
1.827  51.419714
1.826  51.446652
1.825  51.615530
1.824  51.657801
1.823  51.716032
1.822  51.827630
1.821  51.896332
1.820  52.001720
1.819  52.145466
1.818  52.265976
1.817  52.488618
1.816  52.611662
1.815  52.717677
1.814  52.785708
1.813  52.915753
1.812  52.999944
1.811  53.167648
1.810  53.373768
1.809  53.478470
1.808  53.530117
1.807  53.673419
1.806  53.765494
1.805  53.877535
1.804  53.969001
1.803  54.060375
1.802  54.134582
1.801  54.252610
1.800  54.313835
1.799  54.415261
1.798  54.573421
1.797  54.679039
1.796  54.708336
1.795  54.763831
1.794  54.825859
1.793  54.870329
1.792  54.880571
1.791  54.961829
1.790  55.104270
1.789  55.153328
1.788  55.165289
1.787  55.196610
1.786  55.262505
1.785  55.313940
1.784  55.381708
1.783  55.397168
1.782  55.379265
1.781  55.444503
1.780  55.513055
1.779  55.519344
1.778  55.639771
1.777  55.692012
1.776  55.633828
1.775  55.703205
1.774  55.759124
1.773  55.774685
1.772  55.801709
1.771  55.788147
1.770  55.791518
1.769  55.814598
1.768  55.898078
1.767  55.966319
1.766  55.995936
1.765  56.001717
1.764  55.962303
1.763  55.826611
1.762  55.856866
1.761  55.837650
1.760  55.862379
1.759  55.885484
1.758  55.829947
1.757  55.740334
1.756  55.616714
1.755  55.530707
1.754  55.501454
1.753  55.435525
1.752  55.292922
1.751  55.170240
1.750  55.113394
1.749  55.037530
1.748  55.009440
1.747  54.917861
1.746  54.840149
1.745  54.804545
1.744  54.815207
1.743  54.796223
1.742  54.788135
1.741  54.784951
1.740  54.810159
1.739  54.767401
1.738  54.809280
1.737  54.820869
1.736  54.793217
1.735  54.820575
1.734  54.869388
1.733  54.872617
1.732  54.933364
1.731  54.853855
1.730  54.881371
1.729  54.915902
1.728  54.962197
1.727  54.999314
1.726  54.950783
1.725  54.966470
1.724  55.041189
1.723  55.010926
1.722  55.118239
1.721  55.166730
1.720  55.136421
1.719  55.172599
1.718  55.118506
1.717  55.141487
1.716  55.167042
1.715  55.202952
1.714  55.283732
1.713  55.246215
1.712  55.412952
1.711  55.350089
1.710  55.334134
1.709  55.352051
1.708  55.367553
1.707  55.312958
1.706  55.431520
1.705  55.409666
1.704  55.479084
1.703  55.460502
1.702  55.694106
1.701  55.707643
1.700  55.740980
1.699  55.690303
1.698  55.794500
1.697  55.813782
1.696  55.863284
1.695  55.857885
1.694  55.967993
1.693  55.992951
1.692  56.077900
1.691  56.131680
1.690  56.234844
1.689  56.258767
1.688  56.260849
1.687  56.186064
1.686  56.276110
1.685  56.295576
1.684  56.390485
1.683  56.452682
1.682  56.428223
1.681  56.454594
1.680  56.547041
1.679  56.628560
1.678  56.656702
1.677  56.646562
1.676  56.769575
1.675  56.721880
1.674  56.768957
1.673  56.833637
1.672  56.849146
1.671  56.875976
1.670  56.866139
1.669  57.138856
1.668  56.952078
1.667  57.030024
1.666  56.977630
1.665  56.967549
1.664  57.009086
1.663  57.025845
1.662  57.167124
1.661  57.062620
1.660  57.108821
1.659  57.057857
1.658  57.163990
1.657  57.195032
1.656  57.162548
1.655  57.172932
1.654  57.128585
1.653  57.157966
1.652  57.177821
1.651  57.207725
1.650  57.093579
1.649  57.082492
1.648  57.211376
1.647  57.137860
1.646  57.155846
1.645  57.116332
1.644  57.132913
1.643  57.083172
1.642  57.121646
1.641  56.967303
1.640  57.134279
1.639  57.098267
1.638  57.106784
1.637  57.026356
1.636  57.144792
1.635  57.033340
1.634  57.086176
1.633  57.092039
1.632  57.168868
1.631  57.110766
1.630  57.144695
1.629  57.055231
1.628  57.273030
1.627  57.268944
1.626  57.226881
1.625  57.153483
1.624  57.238588
1.623  57.264167
1.622  57.226071
1.621  57.284645
1.620  57.329799
1.619  57.231418
1.618  57.317416
1.617  57.185787
1.616  57.297104
1.615  57.282284
1.614  57.306431
1.613  57.211801
1.612  57.194062
1.611  57.260593
1.610  57.284636
1.609  57.189777
1.608  57.280404
1.607  57.265149
1.606  57.254755
1.605  57.307244
1.604  57.349996
1.603  57.308851
1.602  57.268513
1.601  57.223467
1.600  57.384187
1.599  57.318418
1.598  57.323066
1.597  57.256744
1.596  57.297916
1.595  57.304759
1.594  57.320126
1.593  57.272393
1.592  57.227696
1.591  57.250309
1.590  57.170533
1.589  57.181446
1.588  57.303520
1.587  57.172804
1.586  57.198860
1.585  57.196273
1.584  57.189835
1.583  57.135329
1.582  57.089952
1.581  57.081310
1.580  57.091577
1.579  57.039455
1.578  57.102009
1.577  57.077754
1.576  57.080786
1.575  57.008228
1.574  57.062410
1.573  56.996526
1.572  56.966999
1.571  56.936103
1.570  56.975432
1.569  56.840325
1.568  56.838044
1.567  56.772453
1.566  56.734593
1.565  56.629515
1.564  56.485667
1.563  56.573449
1.562  56.516666
1.561  56.398605
1.560  56.328842
1.559  56.319566
1.558  56.287869
1.557  56.158688
1.556  56.201593
1.555  56.174404
1.554  56.152446
1.553  56.044233
1.552  56.022942
1.551  56.069578
1.550  56.088430
1.549  56.054644
1.548  56.042146
1.547  55.958799
1.546  55.999732
1.545  56.024769
1.544  56.043846
1.543  55.982310
1.542  56.000592
1.541  56.025458
1.540  55.988382
1.539  55.929358
1.538  55.877450
1.537  55.903731
1.536  55.849779
1.535  55.768275
1.534  55.745790
1.533  55.773822
1.532  55.758210
1.531  55.688217
1.530  55.658756
1.529  55.684443
1.528  55.641502
1.527  55.588323
1.526  55.569519
1.525  55.543893
1.524  55.463368
1.523  55.391296
1.522  55.383765
1.521  55.357170
1.520  55.294602
1.519  55.272582
1.518  55.255513
1.517  55.240084
1.516  55.299246
1.515  55.267220
1.514  55.198894
1.513  55.140215
1.512  55.073516
1.511  55.025209
1.510  55.040670
1.509  54.986512
1.508  54.946065
1.507  54.915309
1.506  54.850610
1.505  54.781458
1.504  54.652371
1.503  54.651013
1.502  54.702640
1.501  54.619966
1.500  54.520242
1.499  54.456047
1.498  54.471825
1.497  54.449788
1.496  54.419109
1.495  54.306388
1.494  54.237638
1.493  54.266178
1.492  54.235033
1.491  54.209179
1.490  54.067006
1.489  53.988841
1.488  54.027833
1.487  53.983187
1.486  53.904121
1.485  53.822498
1.484  53.799267
1.483  53.781093
1.482  53.691245
1.481  53.642305
1.480  53.622834
1.479  53.604257
1.478  53.477967
1.477  53.423609
1.476  53.348755
1.475  53.339497
1.474  53.293167
1.473  53.240006
1.472  53.234481
1.471  53.160397
1.470  53.050508
1.469  52.969813
1.468  52.922905
1.467  52.937282
1.466  52.920970
1.465  52.921784
1.464  52.893675
1.463  52.879026
1.462  52.820802
1.461  52.781321
1.460  52.719125
1.459  52.782626
1.458  52.739636
1.457  52.690449
1.456  52.632742
1.455  52.601108
1.454  52.583692
1.453  52.599513
1.452  52.595740
1.451  52.539248
1.450  52.438310
1.449  52.512712
1.448  52.492213
1.447  52.481957
1.446  52.470342
1.445  52.434312
1.444  52.304684
1.443  52.285828
1.442  52.383306
1.441  52.361462
1.440  52.348528
1.439  52.307972
1.438  52.301834
1.437  52.299875
1.436  52.184541
1.435  52.168475
1.434  52.170070
1.433  52.205537
1.432  52.131694
1.431  52.096878
1.430  52.127063
1.429  52.090211
1.428  52.040453
1.427  52.095242
1.426  52.097414
1.425  52.040558
1.424  52.005634
1.423  52.107881
1.422  52.044125
1.421  52.086933
1.420  52.003390
1.419  52.070099
1.418  52.002190
1.417  52.052153
1.416  52.034030
1.415  52.068555
1.414  52.025906
1.413  52.013051
1.412  52.063374
1.411  52.148341
1.410  52.115041
1.409  52.075070
1.408  52.087193
1.407  52.061253
1.406  52.077384
1.405  52.145458
1.404  52.050481
1.403  52.150505
1.402  52.064671
1.401  52.049009
1.400  51.907630
1.399  51.940397
1.398  51.894228
1.397  51.806922
1.396  51.496902
1.395  51.199383
1.394  50.814626
1.393  50.665615
1.392  50.622779
1.391  50.988051
1.390  51.194727
1.389  51.548276
1.388  51.732757
1.387  51.911061
1.386  51.996823
1.385  51.962332
1.384  51.951158
1.383  51.902480
1.382  51.750005
1.381  51.517403
1.380  51.010686
1.379  50.781638
1.378  50.385540
1.377  50.085148
1.376  49.767164
1.375  49.752365
1.374  49.828076
1.373  50.247367
1.372  50.626903
1.371  51.354939
1.370  51.854535
1.369  52.418041
1.368  52.561348
1.367  52.849246
1.366  52.859109
1.365  53.005713
1.364  52.852867
1.363  52.845767
1.362  52.848565
1.361  52.827976
1.360  52.872360
1.359  52.939703
1.358  52.808519
1.357  52.903493
1.356  52.960441
1.355  52.928362
1.354  52.730891
1.353  52.868743
1.352  52.844888
1.351  52.873418
1.350  52.848106
1.349  52.912330
1.348  52.798959
1.347  52.777362
1.346  52.673482
1.345  52.861273
1.344  52.717658
1.343  52.711580
1.342  52.673380
1.341  52.726488
1.340  52.673755
1.339  52.712378
1.338  52.744546
1.337  52.636813
1.336  52.513004
1.335  52.601963
1.334  52.591569
1.333  52.619561
1.332  52.582362
1.331  52.514773
1.330  52.449432
1.329  52.493493
1.328  52.430083
1.327  52.549745
1.326  52.491131
1.325  52.394201
1.324  52.355906
1.323  52.347505
1.322  52.355640
1.321  52.379641
1.320  52.335806
1.319  52.341214
1.318  52.274152
1.317  52.345154
1.316  52.194833
1.315  52.271035
1.314  52.237984
1.313  52.265074
1.312  52.151157
1.311  52.218268
1.310  52.223298
1.309  52.190943
1.308  52.207165
1.307  52.152246
1.306  52.079374
1.305  52.123992
1.304  52.045163
1.303  52.111345
1.302  52.067199
1.301  52.038644
1.300  52.020044
1.299  51.993959
1.298  51.901222
1.297  51.985263
1.296  51.949471
1.295  51.940886
1.294  51.839774
1.293  51.849327
1.292  51.891131
1.291  51.913513
1.290  51.864633
1.289  51.821064
1.288  51.809435
1.287  51.843750
1.286  51.871680
1.285  51.797099
1.284  51.782272
1.283  51.814319
1.282  51.750032
1.281  51.798631
1.280  51.741808
1.279  51.737090
1.278  51.780168
1.277  51.701721
1.276  51.726958
1.275  51.767478
1.274  51.696504
1.273  51.680200
1.272  51.558517
1.271  51.634862
1.270  51.716519
1.269  51.705926
1.268  51.668646
1.267  51.688853
1.266  51.669690
1.265  51.631422
1.264  51.626992
1.263  51.598043
1.262  51.602488
1.261  51.593440
1.260  51.596770
1.259  51.623994
1.258  51.587190
1.257  51.602428
1.256  51.628719
1.255  51.583935
1.254  51.570792
1.253  51.507693
1.252  51.486572
1.251  51.516878
1.250  51.508732
1.249  51.558771
1.248  51.531417
1.247  51.586655
1.246  51.568930
1.245  51.578929
1.244  51.539055
1.243  51.519041
1.242  51.512405
1.241  51.506343
1.240  51.480378
1.239  51.535025
1.238  51.502396
1.237  51.475112
1.236  51.471402
1.235  51.467225
1.234  51.447003
1.233  51.458087
1.232  51.429225
1.231  51.416451
1.230  51.418344
1.229  51.432791
1.228  51.413301
1.227  51.425765
1.226  51.418375
1.225  51.432815
1.224  51.438424
1.223  51.437104
1.222  51.434944
1.221  51.406158
1.220  51.402142
1.219  51.431681
1.218  51.380520
1.217  51.385112
1.216  51.363423
1.215  51.338804
1.214  51.371136
1.213  51.359440
1.212  51.331402
1.211  51.352672
1.210  51.382112
1.209  51.392881
1.208  51.352780
1.207  51.312424
1.206  51.347025
1.205  51.365571
1.204  51.336578
1.203  51.319709
1.202  51.325995
1.201  51.296645
1.200  51.355415
1.199  51.334284
1.198  51.360804
1.197  51.340371
1.196  51.305777
1.195  51.303615
1.194  51.364227
1.193  51.334808
1.192  51.304006
1.191  51.239377
1.190  51.242692
1.189  51.308750
1.188  51.236699
1.187  51.224136
1.186  51.326240
1.185  51.307103
1.184  51.300505
1.183  51.294563
1.182  51.278136
1.181  51.229299
1.180  51.293264
1.179  51.311499
1.178  51.296183
1.177  51.195138
1.176  51.194781
1.175  51.197741
1.174  51.192309
1.173  51.162531
1.172  51.252726
1.171  51.247422
1.170  51.227532
1.169  51.132097
1.168  51.127334
1.167  51.140440
1.166  51.194484
1.165  51.128248
1.164  51.093519
1.163  51.109061
1.162  51.141667
1.161  51.053336
1.160  51.096554
1.159  51.149577
1.158  51.134747
1.157  51.057527
1.156  51.050112
1.155  51.109592
1.154  51.056642
1.153  51.111458
1.152  51.066444
1.151  51.003767
1.150  51.061590
1.149  51.028457
1.148  50.993964
1.147  50.949592
1.146  50.977139
1.145  50.905559
1.144  50.977586
1.143  50.914330
1.142  50.929787
1.141  50.867776
1.140  50.850855
1.139  50.818894
1.138  50.891923
1.137  50.846013
1.136  50.820336
1.135  50.763785
1.134  50.814590
1.133  50.800040
1.132  50.770686
1.131  50.657307
1.130  50.849436
1.129  50.744114
1.128  50.772064
1.127  50.689808
1.126  50.645289
1.125  50.707089
1.124  50.686568
1.123  50.648540
1.122  50.662236
1.121  50.545217
1.120  50.615936
1.119  50.536958
1.118  50.595697
1.117  50.537219
1.116  50.529048
1.115  50.499153
1.114  50.466529
1.113  50.377042
1.112  50.469648
1.111  50.391991
1.110  50.394417
1.109  50.372467
1.108  50.337417
1.107  50.224849
1.106  50.315830
1.105  50.268053
1.104  50.293125
1.103  50.185589
1.102  50.218849
1.101  50.186833
1.100  50.200013
1.099  50.090649
1.098  50.168971
1.097  50.060070
1.096  50.158792
1.095  50.013943
1.094  49.953612
1.093  50.005718
1.092  50.015954
1.091  49.897551
1.090  50.003980
1.089  49.829154
1.088  49.975148
1.087  49.800254
1.086  49.835810
1.085  49.799864
1.084  49.815590
1.083  49.711981
1.082  49.727675
1.081  49.709921
1.080  49.805753
1.079  49.628501
1.078  49.782164
1.077  49.582085
1.076  49.577361
1.075  49.529908
1.074  49.532974
1.073  49.578547
1.072  49.609687
1.071  49.508543
1.070  49.393374
1.069  49.368948
1.068  49.411017
1.067  49.455525
1.066  49.491664
1.065  49.467945
1.064  49.417249
1.063  49.388124
1.062  49.385466
1.061  49.215653
1.060  49.320765
1.059  49.236291
1.058  49.413745
1.057  49.245179
1.056  49.255186
1.055  49.284519
1.054  49.217595
1.053  49.170257
1.052  49.313052
1.051  49.157075
1.050  49.152013
1.049  49.078399
1.048  49.130433
1.047  49.091385
1.046  49.211146
1.045  49.191104
1.044  49.203751
1.043  48.977621
1.042  49.035481
1.041  49.127479
1.040  49.226539
1.039  49.115392
1.038  49.103395
1.037  49.173881
1.036  49.155351
1.035  49.049379
1.034  49.091132
1.033  49.059342
1.032  49.182730
1.031  49.081767
1.030  49.068752
1.029  49.133852
1.028  49.116248
1.027  48.985927
1.026  49.073725
1.025  49.046649
1.024  49.074094
1.023  49.071836
1.022  49.106566
1.021  49.025232
1.020  49.071633
1.019  49.005905
1.018  49.087710
1.017  49.038534
1.016  49.105892
1.015  49.080858
1.014  49.173144
1.013  49.098018
1.012  49.146769
1.011  49.146140
1.010  49.225067
1.009  49.167646
1.008  49.250326
1.007  49.176943
1.006  49.232951
1.005  49.267136
1.004  49.315324
1.003  49.331475
1.002  49.343839
1.001  49.328574
1.000  49.334001
0.999  49.298481
0.998  49.311280
0.997  49.314708
0.996  49.392341
0.995  49.380712
0.994  49.460620
0.993  49.346040
0.992  49.408197
0.991  49.441589
0.990  49.485188
0.989  49.508931
0.988  49.544639
0.987  49.520650
0.986  49.608524
0.985  49.571661
0.984  49.653236
0.983  49.658390
0.982  49.674304
0.981  49.706760
0.980  49.678028
0.979  49.743777
0.978  49.753384
0.977  49.730769
0.976  49.770452
0.975  49.769222
0.974  49.894974
0.973  49.882449
0.972  49.887899
0.971  49.913479
0.970  50.057724
0.969  50.017132
0.968  50.056624
0.967  50.035827
0.966  50.034079
0.965  50.077120
0.964  50.144846
0.963  50.185376
0.962  50.242026
0.961  50.247404
0.960  50.247564
0.959  50.239724
0.958  50.269629
0.957  50.299704
0.956  50.381494
0.955  50.390548
0.954  50.374181
0.953  50.379890
0.952  50.430778
0.951  50.456993
0.950  50.464325
0.949  50.477907
0.948  50.541902
0.947  50.563188
0.946  50.646145
0.945  50.695752
0.944  50.634982
0.943  50.666579
0.942  50.731164
0.941  50.712077
0.940  50.767912
0.939  50.847671
0.938  50.865503
0.937  50.862295
0.936  50.866054
0.935  50.853208
0.934  50.902683
0.933  50.941919
0.932  50.987427
0.931  51.115523
0.930  51.201784
0.929  51.196071
0.928  51.238393
0.927  51.235333
0.926  51.220429
0.925  51.268985
0.924  51.291265
0.923  51.252212
0.922  51.330687
0.921  51.419098
0.920  51.406353
0.919  51.404809
0.918  51.420947
0.917  51.490192
0.916  51.498900
0.915  51.540329
0.914  51.528869
0.913  51.526880
0.912  51.521926
0.911  51.562749
0.910  51.607335
0.909  51.622955
0.908  51.584137
0.907  51.662287
0.906  51.752496
0.905  51.753884
0.904  51.664138
0.903  51.670574
0.902  51.733593
0.901  51.788695
0.900  51.798186
0.899  51.829668
0.898  51.817237
0.897  51.843643
0.896  51.861379
0.895  51.840960
0.894  51.810898
0.893  51.892513
0.892  51.922740
0.891  51.959673
0.890  51.955863
0.889  51.946287
0.888  51.931568
0.887  51.937102
0.886  52.018465
0.885  52.138177
0.884  52.058260
0.883  51.985302
0.882  52.005988
0.881  52.080759
0.880  52.101556
0.879  52.165600
0.878  52.069096
0.877  52.137813
0.876  52.131560
0.875  52.176496
0.874  52.249127
0.873  52.208770
0.872  52.225257
0.871  52.255120
0.870  52.140302
0.869  52.211386
0.868  52.241247
0.867  52.331914
0.866  52.274355
0.865  52.266726
0.864  52.314406
0.863  52.290340
0.862  52.333779
0.861  52.399238
0.860  52.039447
0.859  51.850245
0.858  51.873230
0.857  51.873889
0.856  51.946246
0.855  52.018817
0.854  52.023052
0.853  52.027461
0.852  52.053701
0.851  52.084369
0.850  52.088497
0.849  52.120617
0.848  52.163349
0.847  52.167041
0.846  52.189038
0.845  52.186698
0.844  52.241501
0.843  52.236622
0.842  52.255137
0.841  52.252260
0.840  52.319727
0.839  52.292168
0.838  52.346666
0.837  52.380988
0.836  52.380148
0.835  52.417296
0.834  52.416728
0.833  52.428263
0.832  52.446859
0.831  52.461306
0.830  52.495568
0.829  52.498522
0.828  52.491225
0.827  52.523562
0.826  52.501349
0.825  52.525168
0.824  52.571219
0.823  52.604496
0.822  52.583967
0.821  52.600714
0.820  52.586200
0.819  52.644774
0.818  52.642338
0.817  52.630860
0.816  52.692130
0.815  52.687783
0.814  52.655880
0.813  52.707988
0.812  52.723857
0.811  52.707391
0.810  52.734911
0.809  52.746674
0.808  52.767319
0.807  52.755550
0.806  52.773761
0.805  52.767831
0.804  52.804980
0.803  52.804187
0.802  52.796613
0.801  52.792204
0.800  52.804633
0.799  52.824377
0.798  52.841612
0.797  52.807205
0.796  52.806133
0.795  52.769908
0.794  52.787570
0.793  52.782452
0.792  52.788856
0.791  52.787816
0.790  52.812311
0.789  52.807030
0.788  52.814273
0.787  52.834121
0.786  52.829164
0.785  52.821825
0.784  52.818428
0.783  52.812092
0.782  52.806856
0.781  52.821358
0.780  52.825364
0.779  52.807237
0.778  52.821690
0.777  52.857769
0.776  52.793902
0.775  52.810025
0.774  52.781187
0.773  52.773924
0.772  52.781544
0.771  52.793571
0.770  52.778266
0.769  52.759418
0.768  52.761114
0.767  52.771826
0.766  52.777803
0.765  52.744364
0.764  52.739306
0.763  52.761351
0.762  52.749185
0.761  52.737934
0.760  52.726861
0.759  52.736331
0.758  52.716718
0.757  52.732753
0.756  52.705650
0.755  52.701873
0.754  52.705870
0.753  52.685222
0.752  52.682007
0.751  52.683502
0.750  52.665271
0.749  52.656476
0.748  52.636918
0.747  52.664415
0.746  52.639569
0.745  52.612198
0.744  52.608824
0.743  52.598158
0.742  52.607957
0.741  52.592991
0.740  52.572088
0.739  52.562028
0.738  52.555077
0.737  52.582305
0.736  52.538569
0.735  52.523496
0.734  52.536258
0.733  52.504782
0.732  52.491458
0.731  52.488750
0.730  52.483452
0.729  52.466366
0.728  52.439334
0.727  52.427919
0.726  52.408095
0.725  52.411831
0.724  52.385721
0.723  52.398761
0.722  52.356924
0.721  52.343179
0.720  52.343409
0.719  52.334766
0.718  52.307879
0.717  52.291929
0.716  52.287380
0.715  52.272858
0.714  52.247756
0.713  52.228824
0.712  52.222945
0.711  52.192155
0.710  52.180038
0.709  52.173858
0.708  52.162987
0.707  52.137458
0.706  52.114582
0.705  52.079363
0.704  52.081765
0.703  52.067861
0.702  52.049752
0.701  52.037725
0.700  52.007634
0.699  51.998787
0.698  51.987262
0.697  51.963705
0.696  51.924804
0.695  51.905181
0.694  51.901387
0.693  51.888296
0.692  51.865149
0.691  51.831956
0.690  51.814147
0.689  51.797499
0.688  51.777872
0.687  51.764920
0.686  51.755814
0.685  51.727488
0.684  51.701504
0.683  51.674449
0.682  51.661893
0.681  51.639054
0.680  51.621854
0.679  51.600503
0.678  51.567319
0.677  51.542823
0.676  51.512746
0.675  51.488375
0.674  51.480094
0.673  51.466280
0.672  51.429694
0.671  51.407562
0.670  51.389124
0.669  51.359349
0.668  51.345531
0.667  51.323875
0.666  51.288841
0.665  51.263514
0.664  51.236284
0.663  51.216730
0.662  51.192694
0.661  51.166361
0.660  51.139376
0.659  51.120356
0.658  51.084911
0.657  51.062280
0.656  51.044200
0.655  51.010237
0.654  50.985070
0.653  50.956477
0.652  50.938071
0.651  50.922059
0.650  50.888879
0.649  50.858094
0.648  50.832309
0.647  50.812824
0.646  50.790361
0.645  50.760568
0.644  50.726151
0.643  50.699675
0.642  50.684195
0.641  50.647922
0.640  50.617945
0.639  50.599835
0.638  50.562325
0.637  50.534828
0.636  50.507634
0.635  50.472213
0.634  50.453776
0.633  50.423211
0.632  50.383442
0.631  50.359007
0.630  50.336632
0.629  50.299176
0.628  50.265552
0.627  50.244179
0.626  50.212245
0.625  50.182131
0.624  50.155975
0.623  50.124322
0.622  50.088222
0.621  50.058005
0.620  50.028970
0.619  49.998522
0.618  49.972702
0.617  49.939856
0.616  49.912238
0.615  49.879049
0.614  49.840258
0.613  49.811208
0.612  49.787192
0.611  49.743149
0.610  49.706357
0.609  49.676378
0.608  49.644158
0.607  49.617434
0.606  49.580087
0.605  49.541439
0.604  49.521278
0.603  49.483557
0.602  49.444613
0.601  49.408295
0.600  49.365957
0.599  49.355252
0.598  49.335148
0.597  49.298604
0.596  49.265778
0.595  49.242552
0.594  49.203059
0.593  49.163444
0.592  49.121181
0.591  49.085667
0.590  49.048497
0.589  49.013184
0.588  48.972434
0.587  48.940330
0.586  48.900342
0.585  48.850565
0.584  48.804767
0.583  48.764273
0.582  48.725005
0.581  48.685568
0.580  48.649652
0.579  48.592489
0.578  48.555768
0.577  48.509064
0.576  48.464478
0.575  48.427225
0.574  48.378947
0.573  48.336240
0.572  48.283532
0.571  48.240326
0.570  48.188571
0.569  48.143539
0.568  48.094545
0.567  48.047486
0.566  48.000097
0.565  47.954165
0.564  47.903198
0.563  47.851657
0.562  47.806799
0.561  47.736214
0.560  47.672067
0.559  47.618981
0.558  47.560540
0.557  47.511529
0.556  47.461462
0.555  47.407249
0.554  47.349247
0.553  47.294125
0.552  47.234227
0.551  47.180061
0.550  47.117132
0.549  47.057059
0.548  47.008248
0.547  46.951764
0.546  46.894706
0.545  46.838113
0.544  46.771524
0.543  46.714368
0.542  46.658518
0.541  46.589204
0.540  46.533167
0.539  46.481560
0.538  46.414207
0.537  46.349990
0.536  46.283002
0.535  46.218869
0.534  46.168109
0.533  46.102900
0.532  46.036693
0.531  45.964836
0.530  45.912923
0.529  45.843516
0.528  45.778936
0.527  45.704223
0.526  45.633604
0.525  45.576666
0.524  45.502126
0.523  45.439906
0.522  45.374202
0.521  45.308613
0.520  45.239671
0.519  45.169154
0.518  45.095485
0.517  45.031724
0.516  44.963135
0.515  44.890842
0.514  44.823829
0.513  44.751991
0.512  44.683140
0.511  44.612278
0.510  44.537796
0.509  44.471871
0.508  44.396468
0.507  44.324907
0.506  44.248050
0.505  44.167680
0.504  44.106994
0.503  44.035646
0.502  43.943938
0.501  43.883850
0.500  43.785710
0.499  43.728009
0.498  43.649780
0.497  43.556787
0.496  43.486576
0.495  43.410173
0.494  43.330000
0.493  43.263434
0.492  43.174305
0.491  43.090778
0.490  43.001085
0.489  42.921315
0.488  42.853418
0.487  42.776207
0.486  42.679907
0.485  42.595150
0.484  42.518633
0.483  42.473141
0.482  42.430105
0.481  42.364621
0.480  42.323460
0.479  42.251757
0.478  42.186797
0.477  42.117215
0.476  42.055064
0.475  42.004104
0.474  41.954816
0.473  41.889615
0.472  41.825445
0.471  41.775287
0.470  41.714403
0.469  41.663339
0.468  41.601432
0.467  41.543437
0.466  41.483634
0.465  41.435325
0.464  41.370048
0.463  41.307623
0.462  41.250987
0.461  41.185505
0.460  41.126674
0.459  41.063107
0.458  40.981864
0.457  40.932335
0.456  40.866990
0.455  40.808253
0.454  40.718733
0.453  40.657334
0.452  40.589480
0.451  40.509953
0.450  40.443203
0.449  40.358961
0.448  40.279687
0.447  40.187933
0.446  40.105779
0.445  40.030447
0.444  39.953354
0.443  39.859533
0.442  39.778126
0.441  39.683721
0.440  39.585521
0.439  39.510009
0.438  39.397651
0.437  39.300463
0.436  39.212833
0.435  39.117990
0.434  39.004290
0.433  38.898505
0.432  38.791545
0.431  38.692437
0.430  38.584054
0.429  38.481500
0.428  38.392234
0.427  38.285052
0.426  38.176563
0.425  38.064532
0.424  37.966740
0.423  37.858120
0.422  37.750130
0.421  37.659932
0.420  37.586725
0.419  37.490597
0.418  37.384506
0.417  37.288184
0.416  37.186040
0.415  37.090084
0.414  36.984049
0.413  36.883190
0.412  36.789892
0.411  36.679853
0.410  36.578380
0.409  36.469284
0.408  36.365367
0.407  36.266804
0.406  36.168462
0.405  36.063914
0.404  35.947772
0.403  35.845430
0.402  35.731303
0.401  35.606859
0.400  35.492851
