Name: Hypersthene Gabbro (Norite)
Type: Rock
Class: Igneous
Subclass:  Mafic 
Particle Size: Solid surface
Sample No.: Ward40.txt
Owner: JPL
Wavelength range:  IR 
Origin: Ward's Collection of American Rocks.  Sample locality - Elizabethtown, Essex County, New York.
Collected by:  Ward's Natural Science
Description: A brownish-black, granular rock composed of hypersthene,
plagioclase, garnet and magnetite.
Geologic age - Pre-Cambrian.



Measurement: Hemispherical reflectance
First Column: X
Second Column: Y
X Units: Wavelength (micrometers)
Y Units: Reflectance (percent)
First X Value: 15.3871
Last X Value: 1.9998
Number of X Values: 2257
Additional information: None

15.3871   5.51282
15.3416   4.71030
15.2964   4.33962
15.2514   4.46853
15.2066   4.48374
15.1622   4.41100
15.1180   4.39282
15.0740   4.08205
15.0303   4.10896
14.9869   4.06771
14.9437   3.72759
14.9008   3.69031
14.8581   3.90303
14.8156   4.04275
14.7734   4.16409
14.7314   4.11569
14.6897   4.12218
14.6482   4.32068
14.6069   4.27649
14.5659   4.28653
14.5251   4.27776
14.4845   4.11716
14.4442   4.25477
14.4041   4.32016
14.3642   4.40860
14.3245   4.50365
14.2850   4.38079
14.2458   4.39698
14.2068   4.47294
14.1679   4.51673
14.1293   4.59582
14.0909   4.71732
14.0528   4.79755
14.0148   4.71212
13.9770   4.56023
13.9394   4.68483
13.9021   4.80362
13.8649   4.79016
13.8279   4.91808
13.7911   5.15104
13.7546   5.16837
13.7182   5.24504
13.6820   5.27757
13.6460   4.99695
13.6101   4.95267
13.5745   5.24465
13.5391   5.37016
13.5038   5.29749
13.4687   5.22384
13.4339   5.21945
13.3991   5.31565
13.3646   5.27300
13.3302   5.24703
13.2961   5.11689
13.2621   4.92575
13.2282   4.89732
13.1946   4.98288
13.1611   5.13556
13.1278   5.25899
13.0946   5.34673
13.0616   5.21649
13.0288   5.17357
12.9962   5.07595
12.9637   5.17051
12.9313   5.21834
12.8992   5.20877
12.8672   5.29161
12.8353   5.37489
12.8036   5.35991
12.7721   5.29503
12.7407   5.32895
12.7095   5.45904
12.6784   5.30552
12.6475   5.27018
12.6167   5.33701
12.5861   5.41031
12.5556   5.37980
12.5253   5.38629
12.4951   5.44053
12.4651   5.44441
12.4352   5.58594
12.4054   5.78982
12.3758   5.91675
12.3463   6.03664
12.3170   6.24293
12.2878   6.23218
12.2588   6.27164
12.2299   6.47065
12.2011   6.69002
12.1725   6.78492
12.1439   6.88724
12.1156   6.98945
12.0873   7.33675
12.0592   7.48376
12.0312   7.44542
12.0034   7.73603
11.9757   8.07721
11.9481   8.19868
11.9206   8.24049
11.8933   8.24185
11.8661   8.29306
11.8390   8.34491
11.8120   8.55064
11.7852   8.84968
11.7584   9.08136
11.7318   9.14510
11.7053   9.36672
11.6790   9.71275
11.6527   9.90373
11.6266  10.04550
11.6006  10.48520
11.5747  10.78880
11.5489  10.79320
11.5233  10.88090
11.4977  11.13660
11.4723  11.32660
11.4469  11.55050
11.4217  11.67720
11.3966  11.62960
11.3716  11.68180
11.3468  11.65320
11.3220  11.71670
11.2973  11.89180
11.2728  12.07550
11.2483  12.25520
11.2240  12.49800
11.1997  12.75560
11.1756  13.07560
11.1515  13.20780
11.1276  13.20360
11.1038  13.33030
11.0801  13.38820
11.0564  13.38110
11.0329  13.53330
11.0095  13.50310
10.9862  13.47750
10.9629  13.54790
10.9398  13.63450
10.9168  13.57240
10.8938  13.47570
10.8710  13.38400
10.8483  13.25010
10.8256  13.26770
10.8031  13.24850
10.7806  13.34480
10.7582  13.57880
10.7360  13.81660
10.7138  13.93610
10.6917  14.02430
10.6697  14.13720
10.6478  14.34620
10.6260  14.58300
10.6042  14.97590
10.5826  15.19170
10.5610  15.29260
10.5396  15.54320
10.5182  15.89790
10.4969  16.14420
10.4757  16.37210
10.4546  16.71570
10.4335  16.99540
10.4126  17.17450
10.3917  17.57690
10.3709  17.82640
10.3502  17.86660
10.3296  17.88520
10.3091  17.91120
10.2886  17.93780
10.2683  17.95860
10.2480  18.06140
10.2277  18.07240
10.2076  18.07680
10.1876  18.15580
10.1676  18.36530
10.1477  18.58990
10.1279  18.65420
10.1081  18.69620
10.0885  18.64220
10.0689  18.63360
10.0494  18.61490
10.0299  18.68260
10.0106  18.83270
 9.9913  18.94910
 9.9720  18.92420
 9.9529  18.99390
 9.9338  19.16410
 9.9148  19.29220
 9.8959  19.38510
 9.8771  19.37780
 9.8583  19.21270
 9.8396  19.10460
 9.8210  19.00780
 9.8024  18.85200
 9.7839  18.74710
 9.7655  18.59570
 9.7471  18.39670
 9.7288  18.19230
 9.7106  17.90190
 9.6925  17.48880
 9.6744  17.06800
 9.6564  16.70930
 9.6384  16.51830
 9.6205  16.27280
 9.6027  15.85700
 9.5850  15.36100
 9.5673  15.11560
 9.5497  14.95800
 9.5321  14.60480
 9.5146  14.27060
 9.4972  13.96120
 9.4798  13.55500
 9.4625  13.26980
 9.4453  12.87850
 9.4281  12.56360
 9.4110  12.30330
 9.3940  12.06800
 9.3770  11.97090
 9.3600  11.80070
 9.3432  11.55350
 9.3264  11.43230
 9.3096  11.34220
 9.2930  11.16300
 9.2763  10.95840
 9.2598  10.93690
 9.2432  10.98410
 9.2268  10.94530
 9.2104  10.85210
 9.1941  10.85910
 9.1778  10.92990
 9.1616  11.11260
 9.1454  11.31320
 9.1293  11.33400
 9.1133  11.24480
 9.0973  11.36580
 9.0814  11.55560
 9.0655  11.63510
 9.0497  11.50900
 9.0339  11.25590
 9.0182  11.27620
 9.0025  11.35300
 8.9870  11.46090
 8.9714  11.33290
 8.9559  11.20610
 8.9405  11.23030
 8.9251  11.20280
 8.9097  11.13480
 8.8945  10.95180
 8.8792  10.86940
 8.8641  10.86400
 8.8489  10.75700
 8.8338  10.60300
 8.8188  10.49310
 8.8039  10.24290
 8.7889  10.06980
 8.7741   9.97261
 8.7592   9.87011
 8.7445   9.90302
 8.7297   9.83925
 8.7151   9.80381
 8.7005   9.77036
 8.6859   9.61965
 8.6714   9.47862
 8.6569   9.52579
 8.6425   9.54928
 8.6281   9.41604
 8.6137   9.11866
 8.5994   8.99434
 8.5852   8.97205
 8.5710   8.90880
 8.5569   8.90319
 8.5428   8.81492
 8.5287   8.70097
 8.5147   8.71093
 8.5008   8.74418
 8.4869   8.71554
 8.4730   8.58307
 8.4592   8.51226
 8.4454   8.45699
 8.4316   8.36946
 8.4180   8.28492
 8.4043   8.19199
 8.3907   7.92586
 8.3772   7.75275
 8.3637   7.78677
 8.3502   7.78711
 8.3368   7.61214
 8.3234   7.17117
 8.3100   6.92098
 8.2967   6.77267
 8.2835   6.37314
 8.2703   5.80916
 8.2571   5.42705
 8.2440   5.10476
 8.2309   4.75307
 8.2179   4.38503
 8.2049   4.07621
 8.1919   3.83477
 8.1790   3.64521
 8.1661   3.32853
 8.1532   3.05491
 8.1404   3.00149
 8.1277   2.92912
 8.1150   2.85687
 8.1023   2.73378
 8.0897   2.63831
 8.0770   2.61096
 8.0645   2.63126
 8.0520   2.66388
 8.0395   2.53446
 8.0270   2.45870
 8.0146   2.36867
 8.0023   2.33180
 7.9899   2.32782
 7.9776   2.31095
 7.9654   2.37358
 7.9532   2.32739
 7.9410   2.20566
 7.9288   2.19326
 7.9167   2.26467
 7.9047   2.26441
 7.8926   2.20360
 7.8807   2.23339
 7.8687   2.24168
 7.8568   2.21296
 7.8449   2.23190
 7.8330   2.32142
 7.8212   2.34255
 7.8094   2.33817
 7.7977   2.33765
 7.7860   2.30749
 7.7743   2.29338
 7.7627   2.33382
 7.7511   2.32976
 7.7395   2.40328
 7.7280   2.45752
 7.7165   2.50194
 7.7050   2.51994
 7.6936   2.56136
 7.6822   2.52010
 7.6708   2.50742
 7.6595   2.58701
 7.6482   2.60228
 7.6369   2.64725
 7.6257   2.63972
 7.6145   2.58155
 7.6033   2.66921
 7.5922   2.69571
 7.5811   2.55780
 7.5700   2.62435
 7.5590   2.69644
 7.5480   2.70216
 7.5370   2.70883
 7.5261   2.67566
 7.5152   2.65189
 7.5043   2.64550
 7.4935   2.75188
 7.4826   2.85654
 7.4718   2.88266
 7.4611   2.82824
 7.4504   2.86330
 7.4397   2.86617
 7.4290   2.88254
 7.4184   2.95377
 7.4078   2.93665
 7.3972   2.94833
 7.3867   3.02850
 7.3762   3.07013
 7.3657   3.05621
 7.3553   3.06102
 7.3449   3.06790
 7.3345   3.10621
 7.3241   3.24714
 7.3138   3.30393
 7.3035   3.26910
 7.2932   3.19717
 7.2830   3.26832
 7.2727   3.39548
 7.2626   3.39362
 7.2524   3.38927
 7.2423   3.43023
 7.2322   3.43793
 7.2221   3.48967
 7.2120   3.54255
 7.2020   3.59360
 7.1921   3.66687
 7.1821   3.75216
 7.1722   3.79351
 7.1623   3.80794
 7.1524   3.95040
 7.1425   3.93452
 7.1327   3.82205
 7.1229   3.87539
 7.1131   3.95936
 7.1034   4.01563
 7.0937   4.07883
 7.0840   4.04039
 7.0743   3.99921
 7.0647   3.96443
 7.0551   3.94166
 7.0455   4.04394
 7.0359   4.12136
 7.0264   4.05971
 7.0169   4.05643
 7.0074   4.12589
 6.9979   4.08430
 6.9885   4.01812
 6.9791   4.00583
 6.9697   4.09334
 6.9604   4.09896
 6.9510   4.07652
 6.9417   4.09991
 6.9324   4.07119
 6.9232   4.03552
 6.9140   3.95789
 6.9047   3.94129
 6.8956   3.98796
 6.8864   3.93791
 6.8773   3.96066
 6.8682   4.04793
 6.8591   4.09344
 6.8500   4.10568
 6.8410   4.04671
 6.8320   3.96144
 6.8230   4.02693
 6.8140   4.14298
 6.8051   4.14895
 6.7962   4.06859
 6.7873   4.11862
 6.7784   4.22072
 6.7695   4.17285
 6.7607   4.10666
 6.7519   4.16261
 6.7431   4.16418
 6.7344   4.14687
 6.7256   4.17806
 6.7169   4.20840
 6.7082   4.23794
 6.6996   4.21348
 6.6909   4.23760
 6.6823   4.23468
 6.6737   4.17594
 6.6651   4.20265
 6.6566   4.30502
 6.6480   4.28745
 6.6395   4.27383
 6.6310   4.23172
 6.6226   4.30310
 6.6141   4.33555
 6.6057   4.24915
 6.5973   4.19901
 6.5889   4.26557
 6.5805   4.27053
 6.5722   4.20377
 6.5639   4.25731
 6.5556   4.32330
 6.5473   4.27949
 6.5390   4.20968
 6.5308   4.21699
 6.5226   4.23839
 6.5144   4.19844
 6.5062   4.17971
 6.4981   4.19458
 6.4900   4.19162
 6.4818   4.14293
 6.4737   4.09480
 6.4657   4.01103
 6.4576   3.93304
 6.4496   3.94232
 6.4416   4.02419
 6.4336   4.09538
 6.4256   4.04186
 6.4177   4.05984
 6.4097   4.02194
 6.4018   3.89844
 6.3939   3.79540
 6.3860   3.67471
 6.3782   3.74959
 6.3704   3.74805
 6.3625   3.66711
 6.3547   3.62810
 6.3470   3.68997
 6.3392   3.72474
 6.3315   3.60056
 6.3237   3.60507
 6.3160   3.68510
 6.3083   3.66171
 6.3007   3.58040
 6.2930   3.48904
 6.2854   3.44247
 6.2778   3.37145
 6.2702   3.37331
 6.2626   3.35172
 6.2551   3.35657
 6.2476   3.38388
 6.2400   3.34991
 6.2325   3.34693
 6.2251   3.35989
 6.2176   3.35623
 6.2101   3.31547
 6.2027   3.35309
 6.1953   3.43593
 6.1879   3.34721
 6.1805   3.34902
 6.1732   3.46666
 6.1658   3.50534
 6.1585   3.47273
 6.1512   3.37701
 6.1439   3.40033
 6.1367   3.49378
 6.1294   3.49483
 6.1222   3.50688
 6.1149   3.50423
 6.1077   3.48811
 6.1006   3.43668
 6.0934   3.40898
 6.0862   3.49353
 6.0791   3.51056
 6.0720   3.46528
 6.0649   3.50986
 6.0578   3.62072
 6.0507   3.69369
 6.0437   3.52398
 6.0366   3.41637
 6.0296   3.37933
 6.0226   3.43894
 6.0156   3.52249
 6.0087   3.41641
 6.0017   3.35850
 5.9948   3.37237
 5.9878   3.44317
 5.9809   3.47930
 5.9740   3.48997
 5.9672   3.53089
 5.9603   3.48289
 5.9535   3.40196
 5.9466   3.33612
 5.9398   3.38179
 5.9330   3.61692
 5.9262   3.51858
 5.9195   3.30966
 5.9127   3.33122
 5.9060   3.42075
 5.8993   3.50009
 5.8926   3.53059
 5.8859   3.51768
 5.8792   3.47679
 5.8726   3.42639
 5.8659   3.40364
 5.8593   3.36721
 5.8527   3.44035
 5.8461   3.47212
 5.8395   3.40661
 5.8329   3.39000
 5.8264   3.44647
 5.8198   3.41049
 5.8133   3.32689
 5.8068   3.41160
 5.8003   3.47450
 5.7938   3.42485
 5.7874   3.44190
 5.7809   3.48202
 5.7745   3.51143
 5.7680   3.51786
 5.7616   3.46823
 5.7552   3.49127
 5.7489   3.52837
 5.7425   3.48886
 5.7361   3.47594
 5.7298   3.57946
 5.7235   3.61814
 5.7172   3.57978
 5.7109   3.60566
 5.7046   3.56558
 5.6983   3.54310
 5.6921   3.55092
 5.6858   3.58618
 5.6796   3.61994
 5.6734   3.64001
 5.6672   3.57597
 5.6610   3.56438
 5.6548   3.66844
 5.6487   3.73221
 5.6425   3.69708
 5.6364   3.64104
 5.6303   3.63119
 5.6242   3.57511
 5.6181   3.60099
 5.6120   3.67378
 5.6059   3.65937
 5.5999   3.62672
 5.5938   3.67659
 5.5878   3.66530
 5.5818   3.70421
 5.5758   3.86165
 5.5698   3.94406
 5.5638   3.84795
 5.5578   3.74236
 5.5519   3.78223
 5.5460   3.82853
 5.5400   3.81578
 5.5341   3.87508
 5.5282   3.95094
 5.5223   3.88689
 5.5164   3.84194
 5.5106   3.86796
 5.5047   3.92787
 5.4989   3.91584
 5.4931   3.88398
 5.4873   3.92078
 5.4815   4.01834
 5.4757   4.08095
 5.4699   4.08712
 5.4641   4.12176
 5.4584   4.09026
 5.4527   4.04635
 5.4469   4.01492
 5.4412   3.98497
 5.4355   4.01182
 5.4298   4.07630
 5.4241   4.07060
 5.4185   4.04324
 5.4128   4.11873
 5.4072   4.22379
 5.4015   4.24800
 5.3959   4.13823
 5.3903   4.13073
 5.3847   4.25656
 5.3791   4.24903
 5.3735   4.23130
 5.3680   4.22937
 5.3624   4.25265
 5.3569   4.33929
 5.3514   4.36853
 5.3458   4.33346
 5.3403   4.32193
 5.3348   4.26671
 5.3294   4.27057
 5.3239   4.32711
 5.3184   4.29502
 5.3130   4.29030
 5.3075   4.33340
 5.3021   4.38496
 5.2967   4.45524
 5.2913   4.43763
 5.2859   4.36509
 5.2805   4.39613
 5.2751   4.42539
 5.2698   4.38626
 5.2644   4.34462
 5.2591   4.35168
 5.2538   4.45221
 5.2485   4.56769
 5.2431   4.53119
 5.2378   4.35082
 5.2326   4.33505
 5.2273   4.46653
 5.2220   4.55590
 5.2168   4.49346
 5.2115   4.48884
 5.2063   4.49573
 5.2011   4.54335
 5.1959   4.61945
 5.1907   4.64493
 5.1855   4.62982
 5.1803   4.60341
 5.1751   4.58912
 5.1700   4.65525
 5.1648   4.68775
 5.1597   4.61562
 5.1545   4.63491
 5.1494   4.72435
 5.1443   4.74634
 5.1392   4.77243
 5.1341   4.73321
 5.1291   4.76819
 5.1240   4.84031
 5.1189   4.82788
 5.1139   4.76179
 5.1088   4.78404
 5.1038   4.88204
 5.0988   4.87730
 5.0938   4.89762
 5.0888   5.01483
 5.0838   5.09991
 5.0788   5.11771
 5.0738   4.99926
 5.0689   4.95960
 5.0639   5.03311
 5.0590   5.14354
 5.0541   5.13611
 5.0491   5.07499
 5.0442   5.08504
 5.0393   5.06846
 5.0344   5.07094
 5.0296   5.12053
 5.0247   5.21613
 5.0198   5.26665
 5.0150   5.25155
 5.0101   5.28051
 5.0053   5.29886
 5.0004   5.32377
 4.9956   5.41634
 4.9908   5.35877
 4.9860   5.30212
 4.9812   5.35594
 4.9765   5.42563
 4.9717   5.35458
 4.9669   5.32263
 4.9622   5.34218
 4.9574   5.41285
 4.9527   5.51249
 4.9480   5.43905
 4.9432   5.38781
 4.9385   5.44872
 4.9338   5.45987
 4.9291   5.42912
 4.9245   5.49911
 4.9198   5.54858
 4.9151   5.54778
 4.9105   5.58305
 4.9058   5.64510
 4.9012   5.64223
 4.8966   5.59706
 4.8919   5.58691
 4.8873   5.60021
 4.8827   5.59774
 4.8781   5.64690
 4.8736   5.67775
 4.8690   5.65315
 4.8644   5.67904
 4.8599   5.75859
 4.8553   5.66629
 4.8508   5.65276
 4.8462   5.69378
 4.8417   5.69377
 4.8372   5.72700
 4.8327   5.73818
 4.8282   5.80483
 4.8237   5.87842
 4.8192   5.87647
 4.8147   5.89843
 4.8103   5.85772
 4.8058   5.77830
 4.8014   5.76601
 4.7969   5.85446
 4.7925   5.82996
 4.7881   5.82023
 4.7836   5.88985
 4.7792   5.89023
 4.7748   5.93509
 4.7704   6.00803
 4.7660   5.95504
 4.7617   5.87616
 4.7573   5.88454
 4.7530   5.93128
 4.7486   6.00897
 4.7443   6.01703
 4.7399   5.91569
 4.7356   5.96853
 4.7313   6.15793
 4.7270   6.09191
 4.7226   6.06432
 4.7184   6.20419
 4.7141   6.18225
 4.7098   6.05771
 4.7055   5.98847
 4.7012   6.09013
 4.6970   6.22719
 4.6927   6.28751
 4.6885   6.26709
 4.6842   6.31299
 4.6800   6.35387
 4.6758   6.27384
 4.6716   6.22255
 4.6674   6.29061
 4.6632   6.36157
 4.6590   6.36690
 4.6548   6.34576
 4.6506   6.34427
 4.6465   6.34181
 4.6423   6.41865
 4.6382   6.55755
 4.6340   6.56803
 4.6299   6.53287
 4.6258   6.55267
 4.6216   6.62639
 4.6175   6.65425
 4.6134   6.71748
 4.6093   6.79106
 4.6052   6.78365
 4.6011   6.78383
 4.5971   6.80579
 4.5930   6.89955
 4.5889   6.94181
 4.5849   6.79835
 4.5808   6.78649
 4.5768   6.93264
 4.5727   7.04960
 4.5687   7.08348
 4.5647   7.04768
 4.5607   7.15589
 4.5567   7.23009
 4.5526   7.13660
 4.5487   7.04719
 4.5447   7.02805
 4.5407   7.01825
 4.5367   7.09216
 4.5328   7.17685
 4.5288   7.13342
 4.5248   7.20359
 4.5209   7.35313
 4.5170   7.40287
 4.5130   7.37329
 4.5091   7.42194
 4.5052   7.53892
 4.5013   7.53425
 4.4974   7.56906
 4.4935   7.58154
 4.4896   7.50484
 4.4857   7.52170
 4.4818   7.56543
 4.4779   7.53896
 4.4741   7.50428
 4.4702   7.49089
 4.4664   7.69982
 4.4625   7.78022
 4.4587   7.69717
 4.4549   7.66624
 4.4510   7.68440
 4.4472   7.75704
 4.4434   7.88820
 4.4396   7.89723
 4.4358   7.85968
 4.4320   7.90445
 4.4282   7.84466
 4.4245   7.73242
 4.4207   7.76944
 4.4169   7.84582
 4.4132   7.94941
 4.4094   8.03103
 4.4057   8.05609
 4.4019   8.08638
 4.3982   8.09573
 4.3945   8.03934
 4.3907   8.10837
 4.3870   8.11936
 4.3833   8.06899
 4.3796   8.15224
 4.3759   8.14659
 4.3722   8.03150
 4.3685   8.10825
 4.3649   8.28421
 4.3612   8.35012
 4.3575   8.28180
 4.3539   8.29107
 4.3502   8.29513
 4.3466   8.24619
 4.3429   8.26628
 4.3393   8.40822
 4.3357   8.50244
 4.3320   8.50426
 4.3284   8.49531
 4.3248   8.58197
 4.3212   8.50684
 4.3176   8.43825
 4.3140   8.52724
 4.3105   8.61260
 4.3069   8.53399
 4.3033   8.50552
 4.2997   8.55564
 4.2962   8.72343
 4.2926   8.76617
 4.2890   8.67351
 4.2855   8.61555
 4.2820   8.67610
 4.2784   8.65023
 4.2749   8.61551
 4.2714   8.74555
 4.2679   8.77795
 4.2644   8.68168
 4.2609   8.74592
 4.2574   8.92480
 4.2539   8.98585
 4.2504   8.89424
 4.2469   8.84689
 4.2434   8.87190
 4.2400   8.92048
 4.2365   8.94812
 4.2330   8.96373
 4.2296   9.05230
 4.2261   8.95402
 4.2227   8.86865
 4.2193   8.94086
 4.2158   9.09025
 4.2124   9.14287
 4.2090   9.13896
 4.2056   9.14144
 4.2022   9.16381
 4.1988   9.11447
 4.1954   9.13944
 4.1920   9.16957
 4.1886   9.15136
 4.1852   9.08261
 4.1818   9.07857
 4.1785   9.22143
 4.1751   9.17295
 4.1717   9.08079
 4.1684   9.20895
 4.1650   9.24775
 4.1617   9.27449
 4.1584   9.41341
 4.1550   9.40574
 4.1517   9.42012
 4.1484   9.42065
 4.1451   9.38394
 4.1418   9.38746
 4.1384   9.36004
 4.1351   9.34387
 4.1319   9.36750
 4.1286   9.41332
 4.1253   9.36513
 4.1220   9.29859
 4.1187   9.38688
 4.1155   9.42297
 4.1122   9.37861
 4.1089   9.47502
 4.1057   9.67474
 4.1024   9.60853
 4.0992   9.40311
 4.0959   9.35631
 4.0927   9.41660
 4.0895   9.40662
 4.0863   9.38071
 4.0830   9.45853
 4.0798   9.53884
 4.0766   9.55608
 4.0734   9.52173
 4.0702   9.60181
 4.0670   9.64223
 4.0639   9.47126
 4.0607   9.33129
 4.0575   9.26479
 4.0543   9.29844
 4.0511   9.36076
 4.0480   9.36922
 4.0448   9.50287
 4.0417   9.56859
 4.0385   9.62243
 4.0354   9.46807
 4.0323   9.44401
 4.0291   9.59638
 4.0260   9.65383
 4.0229   9.57302
 4.0197   9.46972
 4.0166   9.51110
 4.0135   9.56714
 4.0104   9.46046
 4.0073   9.40832
 4.0042   9.43605
 4.0011   9.47158
 3.9981   9.47824
 3.9950   9.40611
 3.9919   9.35808
 3.9888   9.38877
 3.9857   9.44919
 3.9827   9.43617
 3.9796   9.42696
 3.9766   9.43860
 3.9735   9.34831
 3.9705   9.30222
 3.9675   9.42053
 3.9644   9.44178
 3.9614   9.43070
 3.9584   9.41345
 3.9554   9.39057
 3.9523   9.47569
 3.9493   9.56219
 3.9463   9.57104
 3.9433   9.57331
 3.9403   9.48803
 3.9373   9.40263
 3.9343   9.48422
 3.9314   9.63520
 3.9284   9.68348
 3.9254   9.52135
 3.9224   9.53775
 3.9195   9.69839
 3.9165   9.72423
 3.9136   9.65265
 3.9106   9.69063
 3.9077   9.75480
 3.9047   9.64606
 3.9018   9.52523
 3.8988   9.47605
 3.8959   9.45643
 3.8930   9.58847
 3.8901   9.77314
 3.8872   9.77310
 3.8842   9.61730
 3.8813   9.48975
 3.8784   9.65687
 3.8755   9.79961
 3.8726   9.65783
 3.8697   9.65306
 3.8669   9.67091
 3.8640   9.75233
 3.8611   9.93130
 3.8582   9.88892
 3.8554   9.63911
 3.8525   9.71537
 3.8496   9.79797
 3.8468   9.70818
 3.8439   9.63354
 3.8411   9.74043
 3.8382   9.72067
 3.8354   9.68365
 3.8326   9.59144
 3.8297   9.58543
 3.8269   9.71780
 3.8241   9.80439
 3.8213   9.78517
 3.8185   9.74922
 3.8157   9.59519
 3.8128   9.43145
 3.8100   9.63486
 3.8072   9.82676
 3.8045   9.80307
 3.8017   9.71020
 3.7989   9.67784
 3.7961   9.74350
 3.7933   9.78490
 3.7906   9.71512
 3.7878   9.60948
 3.7850   9.59941
 3.7822   9.71049
 3.7795   9.78576
 3.7767   9.80000
 3.7740   9.82506
 3.7713   9.81400
 3.7685   9.68143
 3.7658   9.73442
 3.7630   9.81705
 3.7603   9.86614
 3.7576   9.80567
 3.7549   9.71054
 3.7521   9.63197
 3.7494   9.60479
 3.7467   9.73121
 3.7440   9.87521
 3.7413   9.83737
 3.7386   9.55934
 3.7359   9.42688
 3.7332   9.71439
 3.7306   9.83404
 3.7279   9.84227
 3.7252   9.81506
 3.7225   9.69641
 3.7199   9.65038
 3.7172   9.67096
 3.7145   9.78512
 3.7119   9.82546
 3.7092   9.82528
 3.7066   9.63142
 3.7039   9.51568
 3.7013   9.55605
 3.6986   9.61027
 3.6960   9.62917
 3.6934   9.62267
 3.6907   9.63513
 3.6881   9.68223
 3.6855   9.83284
 3.6829   9.77891
 3.6803   9.68219
 3.6776   9.63529
 3.6750   9.60002
 3.6724   9.68513
 3.6698   9.71063
 3.6672   9.57683
 3.6646   9.49281
 3.6620   9.54586
 3.6595   9.60771
 3.6569   9.63148
 3.6543   9.57083
 3.6517   9.46632
 3.6492   9.54817
 3.6466   9.69534
 3.6440   9.63667
 3.6415   9.46406
 3.6389   9.46994
 3.6364   9.54080
 3.6338   9.41119
 3.6313   9.43870
 3.6287   9.54532
 3.6262   9.64855
 3.6237   9.56105
 3.6211   9.30185
 3.6186   9.30340
 3.6161   9.37302
 3.6136   9.36402
 3.6111   9.50972
 3.6085   9.54628
 3.6060   9.26892
 3.6035   9.28374
 3.6010   9.33492
 3.5985   9.25855
 3.5960   9.27280
 3.5935   9.32559
 3.5910   9.28031
 3.5886   9.18746
 3.5861   9.15729
 3.5836   9.34574
 3.5811   9.29971
 3.5787   9.16064
 3.5762   9.20327
 3.5737   9.24245
 3.5713   9.17711
 3.5688   9.14379
 3.5663   9.08640
 3.5639   9.01967
 3.5614   9.19924
 3.5590   9.24723
 3.5566   9.17104
 3.5541   9.27111
 3.5517   9.29416
 3.5493   9.22178
 3.5468   9.21850
 3.5444   9.12651
 3.5420   9.00878
 3.5396   9.02815
 3.5372   8.97358
 3.5347   8.94967
 3.5323   9.00231
 3.5299   8.99469
 3.5275   8.85907
 3.5251   8.72318
 3.5227   8.68479
 3.5203   8.80393
 3.5180   8.89595
 3.5156   8.84793
 3.5132   8.83282
 3.5108   8.74051
 3.5084   8.53342
 3.5061   8.62102
 3.5037   8.61929
 3.5013   8.47370
 3.4990   8.41248
 3.4966   8.46304
 3.4943   8.53528
 3.4919   8.60101
 3.4895   8.55931
 3.4872   8.52719
 3.4849   8.55518
 3.4825   8.64151
 3.4802   8.55195
 3.4778   8.43856
 3.4755   8.53840
 3.4732   8.74324
 3.4709   8.53493
 3.4685   8.27594
 3.4662   8.27336
 3.4639   8.38583
 3.4616   8.40381
 3.4593   8.40240
 3.4570   8.21839
 3.4547   8.15615
 3.4524   8.33364
 3.4501   8.36535
 3.4478   8.27588
 3.4455   8.31971
 3.4432   8.32565
 3.4409   8.23639
 3.4386   8.11992
 3.4364   8.11040
 3.4341   8.11410
 3.4318   8.13445
 3.4295   8.17589
 3.4273   8.17001
 3.4250   8.17508
 3.4228   8.16524
 3.4205   8.11195
 3.4182   8.01264
 3.4160   8.08010
 3.4137   8.30001
 3.4115   8.14687
 3.4093   8.03941
 3.4070   8.17595
 3.4048   8.16055
 3.4025   8.24642
 3.4003   8.11966
 3.3981   8.11801
 3.3958   8.18278
 3.3936   8.22196
 3.3914   8.30482
 3.3892   8.10851
 3.3870   7.96124
 3.3848   7.93742
 3.3826   7.84082
 3.3804   7.92149
 3.3782   7.99456
 3.3760   7.91202
 3.3738   8.00601
 3.3716   7.93340
 3.3694   7.94230
 3.3672   7.95071
 3.3650   7.88546
 3.3628   7.86048
 3.3606   7.81890
 3.3585   8.12767
 3.3563   8.19290
 3.3541   8.06758
 3.3520   7.92465
 3.3498   7.78009
 3.3476   7.90848
 3.3455   7.84822
 3.3433   7.82435
 3.3411   7.74468
 3.3390   7.83710
 3.3369   8.08826
 3.3347   8.04296
 3.3326   7.87997
 3.3304   7.64772
 3.3283   7.57956
 3.3262   7.74688
 3.3240   7.82956
 3.3219   7.58752
 3.3198   7.60414
 3.3176   7.77241
 3.3155   7.78938
 3.3134   7.80506
 3.3113   7.70321
 3.3092   7.66566
 3.3071   7.77280
 3.3049   7.79165
 3.3028   7.62796
 3.3007   7.67601
 3.2986   7.67114
 3.2965   7.61438
 3.2944   7.45404
 3.2924   7.63973
 3.2903   7.63337
 3.2882   7.32715
 3.2861   7.26701
 3.2840   7.50246
 3.2819   7.58812
 3.2799   7.35945
 3.2778   7.25736
 3.2757   7.55554
 3.2736   7.92334
 3.2716   7.79903
 3.2695   7.49348
 3.2675   7.73343
 3.2654   7.64143
 3.2634   7.34216
 3.2613   7.41780
 3.2593   7.38335
 3.2572   7.23469
 3.2552   7.40359
 3.2531   7.42398
 3.2511   7.47211
 3.2490   7.41820
 3.2470   7.33772
 3.2450   7.30948
 3.2429   7.31846
 3.2409   7.39248
 3.2389   7.27604
 3.2369   7.31004
 3.2348   7.33898
 3.2328   7.18083
 3.2308   7.35268
 3.2288   7.40610
 3.2268   7.11372
 3.2248   7.07802
 3.2228   7.41434
 3.2208   7.35530
 3.2188   7.03871
 3.2168   6.99586
 3.2148   7.07964
 3.2128   7.08089
 3.2108   6.81410
 3.2088   6.81380
 3.2068   7.07170
 3.2049   7.21990
 3.2029   7.40399
 3.2009   7.38619
 3.1989   7.06025
 3.1970   6.81419
 3.1950   6.82218
 3.1930   6.90590
 3.1911   6.89728
 3.1891   6.87548
 3.1871   6.79516
 3.1852   6.88042
 3.1832   7.25481
 3.1813   7.28972
 3.1793   6.93092
 3.1774   7.06750
 3.1754   6.92692
 3.1735   6.69324
 3.1715   6.81656
 3.1696   6.75402
 3.1677   6.58492
 3.1657   6.67004
 3.1638   6.67100
 3.1619   6.28296
 3.1599   6.46017
 3.1580   6.40175
 3.1561   6.34139
 3.1542   6.73799
 3.1523   6.83281
 3.1503   6.59236
 3.1484   6.78505
 3.1465   7.05136
 3.1446   6.90351
 3.1427   6.49120
 3.1408   6.57870
 3.1389   6.69997
 3.1370   6.87509
 3.1351   7.16221
 3.1332   6.89017
 3.1313   6.52321
 3.1294   6.50101
 3.1275   6.32843
 3.1257   6.45064
 3.1238   6.40196
 3.1219   6.51064
 3.1200   6.39673
 3.1181   6.06278
 3.1163   6.19047
 3.1144   6.66912
 3.1125   6.79699
 3.1107   6.45326
 3.1088   6.54566
 3.1069   6.70368
 3.1051   6.44636
 3.1032   6.09875
 3.1014   6.15733
 3.0995   6.62362
 3.0976   6.24205
 3.0958   5.86323
 3.0940   6.00210
 3.0921   6.04867
 3.0903   6.28000
 3.0884   6.40717
 3.0866   6.50092
 3.0848   6.50621
 3.0829   6.33128
 3.0811   6.20071
 3.0793   6.08824
 3.0774   6.19521
 3.0756   6.52510
 3.0738   6.61682
 3.0720   6.30918
 3.0701   5.78968
 3.0683   5.74718
 3.0665   5.92442
 3.0647   6.06089
 3.0629   6.16409
 3.0611   6.68217
 3.0593   6.93155
 3.0575   6.50697
 3.0557   6.18266
 3.0539   6.33249
 3.0521   6.07194
 3.0503   5.73404
 3.0485   5.60994
 3.0467   5.52047
 3.0449   5.57455
 3.0431   5.85653
 3.0413   6.40208
 3.0396   6.45976
 3.0378   6.03530
 3.0360   5.95891
 3.0342   6.10220
 3.0324   6.00006
 3.0307   6.20212
 3.0289   6.34620
 3.0271   6.20053
 3.0254   6.03923
 3.0236   5.86329
 3.0218   6.00893
 3.0201   6.40001
 3.0183   6.55421
 3.0166   6.17055
 3.0148   5.89621
 3.0130   5.65598
 3.0113   5.62032
 3.0096   5.95240
 3.0078   6.20084
 3.0061   6.00834
 3.0043   6.00910
 3.0026   5.87619
 3.0008   5.69314
 2.9991   5.86034
 2.9974   5.92233
 2.9956   5.93553
 2.9939   6.08295
 2.9922   5.93777
 2.9905   5.82716
 2.9887   6.20579
 2.9870   6.34257
 2.9853   6.03886
 2.9836   5.61155
 2.9819   5.69161
 2.9802   5.65563
 2.9784   5.53300
 2.9767   5.78167
 2.9750   5.89586
 2.9733   5.59710
 2.9716   5.37208
 2.9699   5.66163
 2.9682   5.74947
 2.9665   5.52076
 2.9648   6.12543
 2.9631   6.64670
 2.9614   6.15520
 2.9597   5.62240
 2.9581   5.65419
 2.9564   6.03070
 2.9547   6.05459
 2.9530   5.81469
 2.9513   5.82657
 2.9496   6.10335
 2.9480   5.88095
 2.9463   5.30774
 2.9446   5.43584
 2.9429   5.81138
 2.9413   6.01352
 2.9396   5.92204
 2.9379   5.95862
 2.9363   5.92077
 2.9346   5.81082
 2.9330   5.97107
 2.9313   6.02488
 2.9296   5.68289
 2.9280   5.50965
 2.9263   5.37584
 2.9247   5.04345
 2.9230   5.30477
 2.9214   5.67302
 2.9197   5.61766
 2.9181   6.02281
 2.9165   6.13050
 2.9148   5.71647
 2.9132   5.58822
 2.9116   5.92148
 2.9099   6.11261
 2.9083   6.01938
 2.9067   5.85797
 2.9050   5.74805
 2.9034   5.67269
 2.9018   5.54147
 2.9002   5.33462
 2.8985   5.35087
 2.8969   5.58691
 2.8953   6.01176
 2.8937   5.84829
 2.8921   5.69971
 2.8905   5.57145
 2.8888   5.09946
 2.8872   4.90134
 2.8856   5.12577
 2.8840   5.58731
 2.8824   5.82240
 2.8808   5.97765
 2.8792   6.14555
 2.8776   6.16224
 2.8760   5.80157
 2.8744   5.51371
 2.8728   5.46631
 2.8712   5.27689
 2.8697   5.41310
 2.8681   5.58943
 2.8665   5.75483
 2.8649   5.86807
 2.8633   5.65812
 2.8617   5.69597
 2.8602   6.07037
 2.8586   5.65621
 2.8570   5.11315
 2.8554   5.30490
 2.8539   5.62713
 2.8523   5.56731
 2.8507   5.37740
 2.8492   5.58003
 2.8476   5.59237
 2.8460   5.73523
 2.8445   5.78530
 2.8429   5.35070
 2.8413   5.31769
 2.8398   5.70526
 2.8382   5.99040
 2.8367   5.86933
 2.8351   5.94770
 2.8336   5.94163
 2.8320   5.73290
 2.8305   5.25793
 2.8289   5.17074
 2.8274   5.55558
 2.8259   5.57896
 2.8243   5.39249
 2.8228   5.56686
 2.8213   5.57406
 2.8197   6.01942
 2.8182   6.37290
 2.8167   6.50180
 2.8151   5.88719
 2.8136   5.67568
 2.8121   5.52883
 2.8106   4.97311
 2.8090   5.42392
 2.8075   6.13139
 2.8060   5.52805
 2.8045   5.10811
 2.8030   4.76043
 2.8014   5.34614
 2.7999   5.89935
 2.7984   5.50949
 2.7969   5.79699
 2.7954   6.19645
 2.7939   5.88601
 2.7924   5.86542
 2.7909   5.54832
 2.7894   5.48044
 2.7879   6.00944
 2.7864   5.80649
 2.7849   5.54276
 2.7834   5.69541
 2.7819   5.40296
 2.7804   5.21977
 2.7789   4.87465
 2.7774   5.17753
 2.7759   6.12838
 2.7745   6.16793
 2.7730   5.65625
 2.7715   5.31701
 2.7700   5.29248
 2.7685   5.19625
 2.7671   5.24670
 2.7656   5.66952
 2.7641   5.88296
 2.7626   5.50866
 2.7612   5.41115
 2.7597   5.20688
 2.7582   5.23409
 2.7568   5.83151
 2.7553   6.16956
 2.7538   5.77052
 2.7524   5.49285
 2.7509   5.44716
 2.7494   5.65648
 2.7480   5.90939
 2.7465   5.81058
 2.7451   5.55425
 2.7436   5.57982
 2.7422   5.58751
 2.7407   5.63458
 2.7393   5.74363
 2.7378   5.81988
 2.7364   6.04597
 2.7350   6.19002
 2.7335   5.74368
 2.7321   5.77351
 2.7306   5.93714
 2.7292   5.95321
 2.7278   6.06929
 2.7263   6.11710
 2.7249   6.02296
 2.7235   5.92550
 2.7220   5.95287
 2.7206   6.43224
 2.7192   6.89731
 2.7178   6.95901
 2.7163   7.13189
 2.7149   7.39732
 2.7135   6.90009
 2.7121   6.73708
 2.7106   7.16192
 2.7092   7.26452
 2.7078   6.82134
 2.7064   6.87054
 2.7050   7.25859
 2.7036   7.29417
 2.7022   6.99260
 2.7008   7.07038
 2.6994   7.30296
 2.6980   7.32906
 2.6965   7.63764
 2.6951   7.84245
 2.6938   7.77234
 2.6923   7.79982
 2.6910   7.94620
 2.6896   7.90966
 2.6882   7.85345
 2.6868   7.96824
 2.6854   8.10214
 2.6840   8.45521
 2.6826   8.23591
 2.6812   8.09708
 2.6798   8.29698
 2.6784   8.27428
 2.6771   8.30092
 2.6757   8.19823
 2.6743   8.03076
 2.6729   8.28740
 2.6715   8.36297
 2.6702   8.45948
 2.6688   8.60325
 2.6674   8.51046
 2.6660   8.21398
 2.6647   8.05594
 2.6633   8.21329
 2.6619   8.50864
 2.6606   8.65401
 2.6592   8.37303
 2.6578   8.10555
 2.6565   8.25604
 2.6551   8.39250
 2.6538   8.29168
 2.6524   8.37761
 2.6511   8.28927
 2.6497   8.18339
 2.6484   8.33824
 2.6470   8.30069
 2.6456   8.17098
 2.6443   8.23427
 2.6429   8.14847
 2.6416   8.31635
 2.6403   8.29495
 2.6389   8.32051
 2.6376   8.50190
 2.6362   8.41319
 2.6349   8.23632
 2.6336   7.98658
 2.6322   8.14120
 2.6309   8.71832
 2.6296   8.43802
 2.6282   8.46047
 2.6269   8.74962
 2.6256   8.61636
 2.6242   8.27984
 2.6229   8.13027
 2.6216   8.39592
 2.6203   8.52540
 2.6189   8.48091
 2.6176   8.26511
 2.6163   8.14230
 2.6150   8.29690
 2.6136   7.89882
 2.6123   7.89798
 2.6110   8.56989
 2.6097   8.61057
 2.6084   8.26747
 2.6071   8.26528
 2.6058   8.52723
 2.6044   8.37395
 2.6031   8.21004
 2.6018   8.27468
 2.6005   8.28288
 2.5992   8.13717
 2.5979   7.99835
 2.5966   7.90269
 2.5953   8.10992
 2.5940   7.98255
 2.5927   7.75534
 2.5914   7.78857
 2.5901   7.61461
 2.5888   8.02488
 2.5876   8.61571
 2.5863   8.79396
 2.5850   8.60408
 2.5837   8.75703
 2.5824   8.83960
 2.5811   8.80091
 2.5798   8.74821
 2.5785   8.28897
 2.5773   7.90428
 2.5760   8.41279
 2.5747   8.34533
 2.5734   8.08226
 2.5722   7.72605
 2.5709   7.90393
 2.5696   7.82903
 2.5683   7.72439
 2.5671   8.08821
 2.5658   8.23028
 2.5645   8.15212
 2.5633   8.35748
 2.5620   8.89908
 2.5607   8.82520
 2.5595   7.89993
 2.5582   8.00565
 2.5569   8.35415
 2.5557   8.23451
 2.5544   7.66673
 2.5532   7.82167
 2.5519   8.64369
 2.5507   8.49837
 2.5494   7.82875
 2.5481   7.52122
 2.5469   7.37930
 2.5456   7.43948
 2.5444   7.64339
 2.5431   7.60702
 2.5419   7.59640
 2.5406   7.79336
 2.5394   7.96269
 2.5382   8.37615
 2.5369   8.42782
 2.5357   7.98589
 2.5344   7.88082
 2.5332   8.22037
 2.5320   8.59981
 2.5307   8.88256
 2.5295   8.68841
 2.5283   8.12977
 2.5270   7.82963
 2.5258   7.82789
 2.5246   7.63552
 2.5233   7.74808
 2.5221   8.13175
 2.5209   8.01982
 2.5197   8.08008
 2.5184   8.04732
 2.5172   7.89441
 2.5160   8.13768
 2.5148   8.32859
 2.5136   8.02824
 2.5123   7.88297
 2.5111   7.90602
 2.5099   7.72769
 2.5087   7.98388
 2.5075   8.11710
 2.5063   7.83103
 2.5051   7.96249
 2.5038   8.19317
 2.5026   7.99855
 2.5014   8.02609
 2.5002   8.17059
 2.4990   8.08533
 2.4978   7.81610
 2.4966   7.81456
 2.4954   7.99245
 2.4942   8.19095
 2.4930   8.10396
 2.4918   7.92080
 2.4906   7.91374
 2.4894   8.25123
 2.4882   8.38885
 2.4870   8.37700
 2.4858   8.26507
 2.4846   8.17668
 2.4835   7.65204
 2.4823   7.49262
 2.4811   7.62401
 2.4799   7.65586
 2.4787   8.09416
 2.4775   8.15810
 2.4764   7.87167
 2.4752   7.87397
 2.4740   8.05584
 2.4728   8.25025
 2.4716   8.33954
 2.4705   8.32141
 2.4693   7.87825
 2.4681   7.48848
 2.4669   7.65174
 2.4657   7.54943
 2.4646   7.38602
 2.4634   7.68441
 2.4622   8.09783
 2.4611   8.13676
 2.4599   8.02950
 2.4587   7.95819
 2.4576   7.70877
 2.4564   7.79442
 2.4552   7.65578
 2.4541   7.78714
 2.4529   8.43186
 2.4518   8.26187
 2.4506   7.50102
 2.4494   7.64330
 2.4483   8.52005
 2.4471   8.72252
 2.4460   8.37381
 2.4448   8.14893
 2.4437   7.80570
 2.4425   7.73975
 2.4414   7.91242
 2.4402   8.22856
 2.4391   8.18669
 2.4379   8.11057
 2.4368   8.36529
 2.4356   8.65437
 2.4345   8.72842
 2.4333   8.26940
 2.4322   7.81487
 2.4311   8.18448
 2.4299   8.09956
 2.4288   7.46097
 2.4276   7.12742
 2.4265   7.06127
 2.4254   7.58152
 2.4242   8.00859
 2.4231   8.55884
 2.4220   8.84564
 2.4209   8.20003
 2.4197   7.55564
 2.4186   8.09081
 2.4175   8.13447
 2.4163   8.23096
 2.4152   8.71604
 2.4141   8.40838
 2.4130   7.92422
 2.4118   7.63991
 2.4107   7.34176
 2.4096   7.16724
 2.4085   7.00477
 2.4074   7.41810
 2.4063   8.35405
 2.4051   8.61704
 2.4040   8.02163
 2.4029   7.78055
 2.4018   7.92536
 2.4007   8.10905
 2.3996   8.00582
 2.3985   8.02408
 2.3973   8.26363
 2.3962   8.17016
 2.3951   7.74048
 2.3940   7.60285
 2.3929   8.22206
 2.3918   8.13005
 2.3907   7.89213
 2.3896   7.91435
 2.3885   7.91117
 2.3874   7.66166
 2.3863   7.49377
 2.3852   7.92485
 2.3841   8.10053
 2.3830   8.56764
 2.3819   8.32387
 2.3808   8.26026
 2.3798   8.58413
 2.3786   8.17468
 2.3776   7.90987
 2.3765   7.33929
 2.3754   7.24494
 2.3743   7.66435
 2.3732   7.90887
 2.3721   8.05060
 2.3710   8.36468
 2.3700   8.39396
 2.3689   7.68642
 2.3678   7.50586
 2.3667   7.93677
 2.3656   7.76264
 2.3645   7.71942
 2.3635   7.80170
 2.3624   8.13567
 2.3613   8.49735
 2.3603   8.16895
 2.3592   7.71034
 2.3581   8.14691
 2.3570   8.67985
 2.3560   8.07460
 2.3549   7.39126
 2.3538   7.91657
 2.3527   8.23517
 2.3517   8.10984
 2.3506   8.21265
 2.3495   7.97446
 2.3485   7.67761
 2.3474   7.48341
 2.3464   7.76655
 2.3453   8.17243
 2.3442   8.20398
 2.3432   7.84036
 2.3421   7.12633
 2.3411   6.87767
 2.3400   7.24427
 2.3390   8.03760
 2.3379   8.18450
 2.3369   7.48443
 2.3358   7.30563
 2.3347   7.46657
 2.3337   7.55243
 2.3326   7.32945
 2.3316   7.24371
 2.3306   7.54513
 2.3295   7.88094
 2.3285   7.76025
 2.3274   7.77211
 2.3264   8.09535
 2.3253   7.80491
 2.3243   7.68202
 2.3232   7.51424
 2.3222   7.57349
 2.3212   7.91076
 2.3201   7.72848
 2.3191   7.91043
 2.3180   8.58179
 2.3170   8.38595
 2.3160   7.96432
 2.3149   7.81242
 2.3139   7.71848
 2.3129   7.63543
 2.3118   7.41449
 2.3108   7.64200
 2.3098   7.67997
 2.3088   7.67059
 2.3077   7.33101
 2.3067   7.94412
 2.3057   8.40688
 2.3047   8.24847
 2.3036   8.19505
 2.3026   8.21648
 2.3016   7.99185
 2.3006   8.04642
 2.2995   7.86225
 2.2985   7.88309
 2.2975   8.01852
 2.2965   7.93885
 2.2955   7.79231
 2.2944   7.84264
 2.2934   7.88610
 2.2924   7.94351
 2.2914   7.92783
 2.2904   8.05163
 2.2894   8.22224
 2.2884   8.39153
 2.2874   8.03588
 2.2864   7.22805
 2.2854   6.94968
 2.2843   7.35550
 2.2833   7.38976
 2.2823   7.35559
 2.2813   7.93789
 2.2803   8.53451
 2.2793   8.52780
 2.2783   8.29938
 2.2773   8.35752
 2.2763   8.10146
 2.2753   7.50137
 2.2743   7.09060
 2.2733   7.64709
 2.2723   8.12110
 2.2713   7.92010
 2.2703   8.45400
 2.2694   8.67525
 2.2684   7.82901
 2.2674   7.62162
 2.2664   8.04817
 2.2654   7.96124
 2.2644   7.85340
 2.2634   8.47549
 2.2624   8.63657
 2.2614   7.75923
 2.2605   7.77292
 2.2595   8.04987
 2.2585   7.96820
 2.2575   7.53277
 2.2565   7.11499
 2.2555   7.27056
 2.2546   7.48802
 2.2536   7.57495
 2.2526   8.02324
 2.2516   7.87752
 2.2506   7.90435
 2.2497   8.45982
 2.2487   8.74205
 2.2477   8.32079
 2.2467   8.34729
 2.2458   8.13750
 2.2448   8.13219
 2.2438   8.19509
 2.2428   7.96914
 2.2419   7.72820
 2.2409   8.41750
 2.2399   8.70104
 2.2390   8.14966
 2.2380   8.21091
 2.2370   8.16137
 2.2361   8.01569
 2.2351   8.53011
 2.2342   9.17685
 2.2332   9.10948
 2.2322   8.83475
 2.2313   8.47899
 2.2303   8.26048
 2.2294   8.47004
 2.2284   8.42721
 2.2274   8.10272
 2.2265   7.52392
 2.2255   7.67108
 2.2246   7.75223
 2.2236   7.34799
 2.2227   7.56005
 2.2217   8.02530
 2.2208   8.43971
 2.2198   8.37903
 2.2189   7.59483
 2.2179   7.31747
 2.2170   7.81560
 2.2160   8.04227
 2.2151   7.48368
 2.2141   7.73268
 2.2132   8.22355
 2.2122   7.71904
 2.2113   7.24326
 2.2103   8.16330
 2.2094   8.54263
 2.2085   7.97235
 2.2075   7.73845
 2.2066   7.60062
 2.2056   7.84499
 2.2047   8.64287
 2.2038   9.03163
 2.2028   8.61104
 2.2019   8.20782
 2.2010   8.47536
 2.2000   8.51802
 2.1991   7.84688
 2.1982   7.18710
 2.1972   7.58630
 2.1963   7.45951
 2.1954   7.16711
 2.1944   6.93894
 2.1935   7.34620
 2.1926   7.95612
 2.1917   8.57043
 2.1907   8.38908
 2.1898   8.31853
 2.1889   8.47524
 2.1880   7.68551
 2.1870   7.15417
 2.1861   7.10421
 2.1852   7.04812
 2.1843   7.86032
 2.1833   8.19054
 2.1824   7.99908
 2.1815   8.03889
 2.1806   7.89852
 2.1797   7.82500
 2.1788   7.86573
 2.1778   7.90518
 2.1769   7.86331
 2.1760   7.74754
 2.1751   8.47973
 2.1742   8.82690
 2.1733   7.87445
 2.1724   7.73767
 2.1715   7.40061
 2.1706   7.75695
 2.1696   8.24515
 2.1687   7.94079
 2.1678   7.92898
 2.1669   8.35913
 2.1660   7.71012
 2.1651   7.54943
 2.1642   7.87323
 2.1633   8.35361
 2.1624   9.12166
 2.1615   8.37772
 2.1606   7.56274
 2.1597   8.22682
 2.1588   8.84857
 2.1579   8.65878
 2.1570   8.16378
 2.1561   7.38199
 2.1552   7.53556
 2.1543   6.94285
 2.1534   7.06502
 2.1525   8.07844
 2.1517   7.95664
 2.1507   7.55582
 2.1499   8.48739
 2.1490   8.61681
 2.1481   8.39165
 2.1472   8.14487
 2.1463   7.96963
 2.1454   7.87098
 2.1445   7.72981
 2.1436   7.79677
 2.1428   8.24948
 2.1419   7.81952
 2.1410   7.27190
 2.1401   7.98433
 2.1392   8.21065
 2.1383   8.11550
 2.1375   8.57121
 2.1366   8.18243
 2.1357   7.77286
 2.1348   7.69476
 2.1339   7.74867
 2.1331   8.28487
 2.1322   8.35387
 2.1313   7.79050
 2.1304   7.28012
 2.1296   7.46998
 2.1287   8.87366
 2.1278   9.00863
 2.1269   8.42714
 2.1261   8.06837
 2.1252   7.98839
 2.1243   7.99636
 2.1235   7.20592
 2.1226   6.93962
 2.1217   7.32908
 2.1208   8.43559
 2.1200   8.70626
 2.1191   8.04267
 2.1183   7.29344
 2.1174   7.97758
 2.1165   8.34359
 2.1157   7.44867
 2.1148   8.32958
 2.1139   8.96694
 2.1131   8.35862
 2.1122   7.34724
 2.1113   7.33991
 2.1105   7.94107
 2.1096   8.59145
 2.1088   8.49922
 2.1079   7.31428
 2.1071   7.46681
 2.1062   8.77759
 2.1054   8.00973
 2.1045   6.50070
 2.1036   6.98547
 2.1028   7.74797
 2.1019   7.63733
 2.1011   8.04611
 2.1002   8.24446
 2.0994   7.98006
 2.0985   6.99843
 2.0977   7.29785
 2.0968   7.97665
 2.0960   7.32461
 2.0951   7.13160
 2.0943   7.59525
 2.0934   7.89427
 2.0926   7.79548
 2.0918   7.53173
 2.0909   8.36522
 2.0901   8.00955
 2.0892   7.04691
 2.0884   7.24376
 2.0875   7.60958
 2.0867   8.81926
 2.0859   9.18167
 2.0850   8.30660
 2.0842   8.50140
 2.0833   8.34929
 2.0825   7.31838
 2.0817   8.15282
 2.0808   8.19558
 2.0800   7.20052
 2.0792   6.81892
 2.0783   7.11432
 2.0775   8.06973
 2.0767   8.60426
 2.0759   8.66842
 2.0750   8.11900
 2.0742   6.83522
 2.0734   7.25215
 2.0725   8.90806
 2.0717   9.16425
 2.0709   8.05933
 2.0701   6.87882
 2.0692   6.81673
 2.0684   7.04699
 2.0676   7.39242
 2.0667   7.48802
 2.0659   7.68148
 2.0651   7.53316
 2.0643   8.69293
 2.0635   9.90663
 2.0626   8.58914
 2.0618   7.80783
 2.0610   8.24270
 2.0602   7.66993
 2.0594   7.24900
 2.0585   8.13023
 2.0577   8.85398
 2.0569   9.31548
 2.0561   8.94707
 2.0553   8.83250
 2.0545  10.11060
 2.0537  10.61620
 2.0528   9.58891
 2.0520   8.96889
 2.0512   6.55174
 2.0504   6.24907
 2.0496   7.84760
 2.0488   9.07109
 2.0480   8.88559
 2.0472   8.04520
 2.0464   7.74735
 2.0456   6.95868
 2.0447  10.27720
 2.0439  10.68360
 2.0431   8.07748
 2.0423   8.43939
 2.0415   6.20744
 2.0407   5.94697
 2.0399   8.08544
 2.0391   8.10006
 2.0383   9.18293
 2.0375   9.87774
 2.0367   8.96979
 2.0359   9.10348
 2.0351   8.54850
 2.0343   7.65458
 2.0335   7.82632
 2.0327   8.79589
 2.0319   9.43958
 2.0311   8.80068
 2.0303   9.12484
 2.0295   8.46837
 2.0287   6.21359
 2.0280   6.04033
 2.0272   6.83055
 2.0264   6.58358
 2.0256   6.85127
 2.0248   8.59793
 2.0240   8.95879
 2.0232   8.52824
 2.0224   8.74470
 2.0216   7.31110
 2.0208   7.36265
 2.0200   8.00331
 2.0193   6.73875
 2.0185   6.59468
 2.0177   7.65507
 2.0169  10.43870
 2.0161  10.68230
 2.0153   8.48919
 2.0146   9.04065
 2.0138   9.62082
 2.0130   6.91568
 2.0122   5.65593
 2.0114   6.78886
 2.0107   8.34378
 2.0099   7.95597
 2.0091   6.95054
 2.0083   7.60349
 2.0075   8.88946
 2.0068   9.32938
 2.0060   8.69678
 2.0052   8.41605
 2.0044   8.10931
 2.0037   7.99549
 2.0029   7.73446
 2.0021   8.14020
 2.0013   8.06972
 2.0006   8.11999
 1.9998   9.50257
