Name: Chlorite
Type: Mineral
Class: Silicates
Subclass: Phyllosilicates
Particle Size: 125-500um
Sample No.: PS-12F
Owner: JPL
Wavelength range: IR
Origin: USA, New Mexico
Collected by Ward's
Description: 





Measurement: Hemispherical reflectance
First Column: X
Second Column: Y
X Units:  Wavelength (micrometers)
Y Units:  Reflectance (percent)
First X Value: 15.3853
Last X Value: 2.00032
Number of X Values: 2256
Additional information: ps12fa.txt
 
15.3853	3.03056
15.3397	2.72068
15.2945	2.38498
15.2495	2.89307
15.2048	2.88993
15.1603	2.87754
15.1161	3.13998
15.0722	3.24288
15.0285	2.85023
14.9851	2.60828
14.9419	2.98862
14.8989	2.95865
14.8563	2.79166
14.8138	2.82919
14.7716	2.6471
14.7296	2.29246
14.6879	2.0496
14.6464	2.04888
14.6052	2.31248
14.5641	2.37273
14.5233	2.34288
14.4828	2.14052
14.4424	1.99821
14.4023	2.02991
14.3624	1.78231
14.3227	1.43985
14.2833	1.47362
14.244	1.72198
14.205	1.85024
14.1662	1.84175
14.1276	1.86242
14.0892	2.0328
14.051	1.93683
14.0131	1.95748
13.9753	2.01964
13.9377	1.94828
13.9004	1.99489
13.8632	1.98598
13.8262	2.01654
13.7895	2.00745
13.7529	2.0811
13.7165	2.09386
13.6803	2.35741
13.6443	2.40247
13.6085	2.35367
13.5729	2.48561
13.5374	2.5129
13.5022	2.57568
13.4671	2.7042
13.4322	2.68633
13.3975	2.69369
13.363	2.75698
13.3286	2.61997
13.2944	2.66339
13.2604	2.77229
13.2266	2.59216
13.193	2.40758
13.1595	2.46252
13.1262	2.5198
13.093	2.64751
13.06	2.52929
13.0272	2.33577
12.9946	2.4449
12.9621	2.54965
12.9298	2.55829
12.8976	2.62215
12.8656	2.59254
12.8337	2.54061
12.8021	2.37833
12.7705	2.19436
12.7391	2.10601
12.7079	2.05598
12.6769	2.10774
12.6459	2.21915
12.6152	2.25818
12.5845	2.09813
12.5541	2.0291
12.5238	2.13626
12.4936	2.10155
12.4635	1.96078
12.4337	1.9286
12.4039	1.9536
12.3743	1.88825
12.3448	1.82869
12.3155	1.90022
12.2863	1.89069
12.2573	1.86838
12.2284	1.7793
12.1996	1.74709
12.171	1.70957
12.1425	1.63345
12.1141	1.55529
12.0859	1.56295
12.0578	1.56374
12.0298	1.6131
12.0019	1.69735
11.9742	1.65445
11.9466	1.65664
11.9192	1.64765
11.8918	1.6439
11.8646	1.8379
11.8375	1.91149
11.8106	1.91844
11.7837	1.99237
11.757	2.09888
11.7304	2.18392
11.7039	2.12219
11.6776	2.03904
11.6513	1.92872
11.6252	1.9651
11.5992	2.0975
11.5733	2.153
11.5475	2.24197
11.5219	2.28371
11.4963	2.39604
11.4709	2.43721
11.4455	2.5231
11.4203	2.66957
11.3952	2.71762
11.3702	2.67964
11.3454	2.66758
11.3206	2.71672
11.2959	2.69896
11.2714	2.74122
11.2469	3.01426
11.2226	3.1837
11.1983	3.01616
11.1742	2.9544
11.1502	3.10244
11.1263	3.11764
11.1024	3.18373
11.0787	3.24088
11.0551	3.36724
11.0316	3.48806
11.0081	3.51294
10.9848	3.66099
10.9616	3.77896
10.9385	3.73175
10.9154	3.79829
10.8925	3.87203
10.8697	4.03877
10.8469	4.23349
10.8243	4.41575
10.8017	4.51751
10.7793	4.56952
10.7569	4.69706
10.7346	4.83862
10.7125	5.0386
10.6904	5.25963
10.6684	5.2887
10.6465	5.47055
10.6247	5.65889
10.6029	5.80847
10.5813	5.99417
10.5597	6.18178
10.5383	6.37229
10.5169	6.59681
10.4956	6.8599
10.4744	7.12437
10.4533	7.25744
10.4323	7.41338
10.4113	7.777
10.3904	8.069
10.3697	8.14827
10.349	8.279
10.3284	8.54091
10.3078	8.75149
10.2874	8.76779
10.267	8.8296
10.2467	9.07903
10.2265	9.44681
10.2064	9.76288
10.1863	9.89962
10.1663	10.095
10.1464	10.3464
10.1266	10.5761
10.1069	10.8792
10.0872	11.2875
10.0676	11.704
10.0481	11.8723
10.0287	12.0353
10.0093	12.3557
9.99005	12.5259
9.97084	12.5899
9.95169	12.6428
9.93263	12.6885
9.91364	12.7005
9.89472	12.8739
9.87587	12.9772
9.8571	12.9747
9.83839	12.9451
9.81976	12.9295
9.80119	12.7499
9.78271	12.5205
9.76428	12.3834
9.74592	12.3902
9.72764	12.3391
9.70943	12.2171
9.69128	12.015
9.6732	11.7074
9.65518	11.5628
9.63724	11.547
9.61935	11.5293
9.60155	11.3836
9.5838	11.1103
9.56611	10.9564
9.5485	10.8106
9.53094	10.7883
9.51345	10.7307
9.49604	10.5965
9.47867	10.4743
9.46137	10.4026
9.44414	10.2534
9.42697	9.95453
9.40986	9.59334
9.39281	9.13351
9.37583	8.58058
9.35891	7.94969
9.34204	7.36265
9.32524	6.8412
9.3085	6.48232
9.29182	6.12294
9.27519	5.51534
9.25863	4.88901
9.24213	4.54657
9.22568	4.35817
9.2093	4.05797
9.19297	3.82283
9.17669	3.63992
9.16048	3.53546
9.14433	3.34423
9.12823	3.08635
9.11218	3.0284
9.0962	2.89034
9.08027	2.73849
9.06439	2.65989
9.04858	2.54698
9.03281	2.44284
9.0171	2.40208
9.00145	2.4655
8.98585	2.46078
8.9703	2.41926
8.9548	2.36814
8.93937	2.41266
8.92398	2.32174
8.90865	2.25169
8.89337	2.24161
8.87814	2.32615
8.86296	2.3129
8.84784	2.07019
8.83277	1.89534
8.81774	1.87551
8.80277	1.98225
8.78786	2.03014
8.77298	2.00706
8.75816	1.94797
8.7434	1.9784
8.72868	2.00685
8.714	1.96619
8.69938	1.86939
8.68481	1.86222
8.67029	1.87579
8.65581	1.74704
8.64139	1.55089
8.62701	1.59826
8.61268	1.70025
8.5984	1.79307
8.58416	1.90587
8.56997	1.90682
8.55583	2.0885
8.54174	2.16301
8.52769	2.05963
8.51368	2.10454
8.49973	2.27815
8.48582	2.31226
8.47195	2.20016
8.45813	2.32936
8.44436	2.48458
8.43062	2.30403
8.41693	2.29963
8.4033	2.45316
8.3897	2.54642
8.37614	2.5545
8.36264	2.52473
8.34917	2.50485
8.33574	2.54718
8.32236	2.63829
8.30903	2.75296
8.29573	2.68945
8.28248	2.56916
8.26927	2.51168
8.2561	2.53569
8.24298	2.71432
8.2299	2.91663
8.21685	2.97809
8.20385	2.90436
8.19089	2.84655
8.17797	2.70781
8.16509	2.76427
8.15225	2.91607
8.13946	2.87808
8.1267	2.7408
8.11398	2.64447
8.10131	2.48178
8.08867	2.34699
8.07606	2.34112
8.0635	2.29218
8.05099	2.29307
8.0385	2.17503
8.02606	2.02413
8.01366	1.97236
8.00129	2.05097
7.98896	2.07745
7.97667	1.98589
7.96442	1.94598
7.9522	1.90985
7.94002	1.86411
7.92788	1.8174
7.91578	1.81789
7.90371	1.82513
7.89168	1.82169
7.87969	1.86698
7.86773	1.90601
7.85581	1.87576
7.84392	1.79469
7.83207	1.77538
7.82026	1.74552
7.80849	1.81734
7.79674	1.86539
7.78503	1.87819
7.77337	1.91369
7.76173	1.87786
7.75012	1.88769
7.73856	1.84046
7.72703	1.84869
7.71553	1.85113
7.70406	1.8231
7.69263	1.88992
7.68123	1.90656
7.66987	1.95409
7.65855	2.01288
7.64725	1.95884
7.63598	1.87574
7.62475	1.96234
7.61356	2.01908
7.60239	2.03052
7.59126	1.97133
7.58017	1.90783
7.5691	1.96813
7.55806	2.03566
7.54707	2.02759
7.5361	2.03367
7.52516	2.01888
7.51425	2.08786
7.50338	2.11582
7.49253	2.09037
7.48172	2.11946
7.47094	2.12366
7.46019	2.20025
7.44947	2.1975
7.43879	2.14906
7.42813	2.11661
7.4175	2.15338
7.4069	2.18445
7.39634	2.17882
7.3858	2.18478
7.37529	2.24957
7.36482	2.31548
7.35437	2.26708
7.34396	2.3022
7.33357	2.35193
7.32321	2.41623
7.31288	2.43478
7.30258	2.35012
7.29231	2.28307
7.28207	2.25804
7.27185	2.27611
7.26167	2.3798
7.25152	2.46919
7.24139	2.50833
7.23129	2.52006
7.22122	2.53751
7.21117	2.57504
7.20116	2.55633
7.19117	2.50136
7.18121	2.5563
7.17128	2.60226
7.16137	2.54515
7.1515	2.5879
7.14164	2.68333
7.13182	2.69175
7.12203	2.7285
7.11225	2.70853
7.10251	2.69677
7.0928	2.74602
7.08311	2.70422
7.07344	2.66241
7.06381	2.68689
7.0542	2.73986
7.04461	2.77431
7.03506	2.80741
7.02552	2.80285
7.01601	2.76877
7.00653	2.82627
6.99708	2.83812
6.98765	2.79402
6.97824	2.80326
6.96886	2.78957
6.95951	2.76608
6.95018	2.81438
6.94087	2.79676
6.9316	2.88235
6.92234	2.97225
6.91311	2.95994
6.90391	2.82316
6.89473	2.81258
6.88557	2.95264
6.87644	2.88884
6.86733	2.75338
6.85824	2.83456
6.84918	2.8755
6.84015	2.92712
6.83114	2.88607
6.82215	2.81908
6.81319	2.86287
6.80424	2.87287
6.79532	2.82673
6.78643	2.82225
6.77756	2.92172
6.76871	2.87509
6.75989	2.82018
6.75109	2.85025
6.74231	2.79044
6.73355	2.74455
6.72482	2.78077
6.71611	2.76646
6.70742	2.75365
6.69875	2.77519
6.69011	2.78152
6.68149	2.82932
6.67289	2.83308
6.66431	2.80833
6.65576	2.75299
6.64722	2.76744
6.63871	2.78766
6.63022	2.8355
6.62175	2.81755
6.61331	2.74437
6.60488	2.74621
6.59648	2.82072
6.5881	2.85374
6.57974	2.83783
6.5714	2.81316
6.56308	2.75416
6.55478	2.68299
6.54651	2.65819
6.53825	2.65037
6.53001	2.6404
6.5218	2.58148
6.51361	2.63467
6.50544	2.72174
6.49729	2.73474
6.48915	2.78333
6.48104	2.74599
6.47295	2.7036
6.46488	2.63934
6.45683	2.60037
6.4488	2.63326
6.44079	2.61621
6.4328	2.66335
6.42482	2.75773
6.41687	2.79456
6.40894	2.75417
6.40103	2.69931
6.39314	2.67223
6.38526	2.68129
6.37741	2.61998
6.36957	2.56308
6.36176	2.62153
6.35396	2.65548
6.34618	2.59838
6.33843	2.59108
6.33069	2.61009
6.32297	2.58983
6.31527	2.54202
6.30758	2.52024
6.29992	2.5271
6.29227	2.55281
6.28465	2.60313
6.27704	2.62816
6.26945	2.59857
6.26188	2.60465
6.25432	2.67444
6.24679	2.5918
6.23927	2.53208
6.23177	2.56675
6.22429	2.58712
6.21683	2.56123
6.20938	2.58519
6.20195	2.65248
6.19454	2.58737
6.18715	2.51077
6.17978	2.55428
6.17242	2.58448
6.16508	2.61069
6.15776	2.61444
6.15045	2.61277
6.14317	2.67898
6.1359	2.73845
6.12864	2.78854
6.12141	2.76746
6.11419	2.65023
6.10699	2.62922
6.0998	2.61908
6.09263	2.60513
6.08549	2.68513
6.07835	2.76653
6.07123	2.76392
6.06413	2.78903
6.05705	2.80917
6.04998	2.83975
6.04293	2.80538
6.0359	2.79768
6.02888	2.82049
6.02187	2.78506
6.01489	2.76009
6.00792	2.76165
6.00096	2.76764
5.99403	2.80926
5.98711	2.79746
5.9802	2.80256
5.97331	2.85538
5.96644	2.83158
5.95958	2.83008
5.95274	2.87691
5.94591	2.91314
5.9391	2.94562
5.9323	3.02034
5.92552	3.01005
5.91876	2.99409
5.91201	3.04592
5.90528	3.01747
5.89856	3.05099
5.89186	3.07952
5.88517	3.02328
5.8785	3.05718
5.87184	3.0947
5.8652	3.13219
5.85857	3.15686
5.85196	3.14961
5.84536	3.08679
5.83878	3.10517
5.83221	3.14122
5.82566	3.15528
5.81912	3.18408
5.81259	3.26193
5.80608	3.33298
5.79959	3.35728
5.79311	3.41091
5.78665	3.34731
5.78019	3.33681
5.77376	3.42771
5.76734	3.45956
5.76093	3.48121
5.75453	3.49484
5.74815	3.50172
5.74179	3.55188
5.73543	3.65844
5.7291	3.66337
5.72277	3.6004
5.71646	3.60682
5.71017	3.59977
5.70389	3.66062
5.69762	3.71058
5.69136	3.67909
5.68513	3.6488
5.6789	3.65235
5.67268	3.64656
5.66648	3.666
5.6603	3.6895
5.65413	3.71385
5.64797	3.73736
5.64182	3.72381
5.63569	3.73826
5.62957	3.71633
5.62347	3.68393
5.61737	3.68904
5.61129	3.695
5.60522	3.72583
5.59917	3.73293
5.59313	3.68602
5.5871	3.70611
5.58109	3.81555
5.57509	3.85646
5.5691	3.86006
5.56312	3.85538
5.55716	3.88661
5.55121	3.91589
5.54528	3.94508
5.53935	3.94188
5.53344	3.94832
5.52754	3.95891
5.52166	3.9338
5.51578	4.02729
5.50992	4.08336
5.50407	4.10934
5.49823	4.10245
5.49241	4.04598
5.4866	4.04896
5.4808	4.16546
5.47501	4.25341
5.46923	4.19902
5.46347	4.14507
5.45772	4.1952
5.45198	4.2367
5.44625	4.20511
5.44054	4.23551
5.43484	4.23316
5.42914	4.23362
5.42347	4.27432
5.4178	4.27717
5.41214	4.2361
5.4065	4.23297
5.40087	4.19399
5.39525	4.1577
5.38964	4.14396
5.38404	4.12868
5.37846	4.22334
5.37288	4.26137
5.36732	4.20914
5.36177	4.18726
5.35623	4.16704
5.35071	4.11386
5.34519	4.16873
5.33968	4.14783
5.33419	4.11732
5.32871	4.17704
5.32324	4.24314
5.31778	4.27481
5.31233	4.27149
5.30689	4.22093
5.30147	4.15686
5.29605	4.15866
5.29065	4.22439
5.28525	4.30762
5.27987	4.35456
5.2745	4.38423
5.26914	4.37115
5.26379	4.32314
5.25845	4.26382
5.25312	4.28439
5.24781	4.37938
5.2425	4.43058
5.23721	4.39869
5.23192	4.43424
5.22665	4.4699
5.22138	4.4377
5.21613	4.46473
5.21089	4.55973
5.20566	4.50573
5.20044	4.41992
5.19522	4.49238
5.19002	4.54087
5.18483	4.52248
5.17965	4.52226
5.17448	4.5219
5.16933	4.55267
5.16418	4.55119
5.15904	4.55325
5.15391	4.57102
5.14879	4.46035
5.14368	4.47374
5.13859	4.57601
5.1335	4.57153
5.12842	4.56985
5.12335	4.61652
5.1183	4.59538
5.11325	4.55083
5.10821	4.5616
5.10318	4.64734
5.09817	4.66186
5.09316	4.65071
5.08816	4.64262
5.08317	4.62271
5.07819	4.62368
5.07322	4.66891
5.06826	4.66989
5.06331	4.60892
5.05837	4.64947
5.05344	4.80187
5.04852	4.75821
5.04361	4.68211
5.03871	4.71851
5.03382	4.6706
5.02894	4.64356
5.02406	4.71388
5.0192	4.66843
5.01435	4.68197
5.0095	4.77999
5.00467	4.77304
4.99984	4.73982
4.99502	4.77164
4.99021	4.74842
4.98542	4.71745
4.98063	4.78758
4.97585	4.79638
4.97108	4.83307
4.96632	4.94752
4.96156	5.02095
4.95682	5.08786
4.95209	5.02342
4.94736	5.01942
4.94264	5.07758
4.93794	5.15983
4.93324	5.17839
4.92855	5.2026
4.92387	5.26785
4.9192	5.32599
4.91453	5.3554
4.90988	5.45448
4.90524	5.5025
4.9006	5.50735
4.89597	5.58417
4.89135	5.66557
4.88674	5.6948
4.88214	5.75503
4.87755	5.76976
4.87296	5.7878
4.86839	5.8887
4.86382	5.973
4.85926	6.10312
4.85471	6.21041
4.85017	6.1673
4.84564	6.11857
4.84111	6.15674
4.8366	6.22518
4.83209	6.3129
4.82759	6.46289
4.8231	6.49204
4.81862	6.50925
4.81415	6.57724
4.80968	6.61871
4.80522	6.67355
4.80077	6.7256
4.79633	6.8017
4.7919	6.85034
4.78747	6.88611
4.78306	6.97627
4.77865	7.02452
4.77425	7.10848
4.76986	7.16057
4.76547	7.17605
4.7611	7.26482
4.75673	7.35459
4.75237	7.46769
4.74802	7.59313
4.74367	7.69607
4.73934	7.76362
4.73501	7.77748
4.73069	7.85603
4.72638	7.92996
4.72207	8.06499
4.71777	8.10136
4.71348	8.10188
4.7092	8.20275
4.70493	8.26006
4.70066	8.30262
4.69641	8.36822
4.69216	8.42442
4.68791	8.52227
4.68368	8.57624
4.67945	8.58634
4.67523	8.61036
4.67102	8.74186
4.66682	8.78608
4.66262	8.78433
4.65843	8.90317
4.65425	8.97244
4.65007	9.02326
4.64591	9.15449
4.64175	9.18396
4.6376	9.2453
4.63345	9.39161
4.62932	9.52262
4.62519	9.56356
4.62106	9.54359
4.61695	9.58408
4.61284	9.6733
4.60874	9.86602
4.60465	9.89601
4.60056	9.95292
4.59648	10.111
4.59241	10.2886
4.58835	10.4303
4.58429	10.5355
4.58024	10.6399
4.5762	10.7106
4.57216	10.7628
4.56814	10.8002
4.56411	10.8385
4.5601	10.9836
4.55609	11.0834
4.55209	11.1689
4.5481	11.3332
4.54411	11.4383
4.54013	11.4216
4.53616	11.4523
4.5322	11.5574
4.52824	11.6649
4.52429	11.7509
4.52034	11.7896
4.51641	11.8268
4.51247	11.8259
4.50855	11.9141
4.50463	11.9683
4.50072	11.952
4.49682	12.0309
4.49292	12.1497
4.48903	12.2257
4.48515	12.2977
4.48127	12.3208
4.4774	12.3666
4.47354	12.4376
4.46968	12.479
4.46584	12.5043
4.46199	12.6228
4.45815	12.7789
4.45432	12.8016
4.4505	12.847
4.44668	12.9609
4.44287	13.0297
4.43907	13.1013
4.43527	13.1349
4.43148	13.2302
4.4277	13.3186
4.42392	13.4116
4.42015	13.4097
4.41638	13.4429
4.41262	13.5414
4.40887	13.6035
4.40513	13.6222
4.40139	13.7239
4.39765	13.8313
4.39393	13.9884
4.39021	14.0688
4.38649	14.0918
4.38278	14.1103
4.37908	14.1315
4.37539	14.2552
4.3717	14.3224
4.36801	14.3199
4.36434	14.4105
4.36067	14.5352
4.357	14.6486
4.35335	14.7425
4.34969	14.804
4.34605	14.8241
4.34241	14.869
4.33877	14.9446
4.33514	14.9967
4.33152	15.0324
4.32791	15.0993
4.3243	15.2404
4.32069	15.2934
4.3171	15.2586
4.31351	15.2817
4.30992	15.3397
4.30634	15.3476
4.30277	15.3797
4.2992	15.5018
4.29564	15.5625
4.29208	15.5741
4.28853	15.596
4.28499	15.6406
4.28145	15.7067
4.27792	15.801
4.27439	15.8474
4.27087	15.9725
4.26735	15.9974
4.26384	16.0027
4.26034	16.0697
4.25684	16.0767
4.25335	16.1045
4.24986	16.1698
4.24638	16.2148
4.24291	16.1994
4.23944	16.2692
4.23598	16.4026
4.23252	16.4245
4.22906	16.4199
4.22562	16.3731
4.22218	16.4432
4.21874	16.607
4.21531	16.669
4.21189	16.6795
4.20847	16.7244
4.20506	16.7214
4.20165	16.6465
4.19825	16.6843
4.19485	16.71
4.19146	16.7181
4.18807	16.7939
4.18469	16.8825
4.18132	16.9144
4.17795	16.911
4.17458	16.9657
4.17123	17.0211
4.16787	17.0408
4.16453	17.0803
4.16118	17.0996
4.15785	17.1638
4.15451	17.1608
4.15119	17.1483
4.14787	17.1812
4.14455	17.2651
4.14124	17.3093
4.13794	17.3351
4.13464	17.3692
4.13134	17.4171
4.12805	17.414
4.12477	17.3676
4.12149	17.351
4.11822	17.3613
4.11495	17.4783
4.11168	17.5438
4.10843	17.5802
4.10517	17.6289
4.10192	17.62
4.09868	17.6335
4.09545	17.657
4.09221	17.631
4.08899	17.619
4.08576	17.6464
4.08255	17.661
4.07933	17.638
4.07613	17.6235
4.07292	17.6607
4.06973	17.748
4.06654	17.8016
4.06335	17.8088
4.06017	17.7982
4.05699	17.7715
4.05382	17.7628
4.05065	17.7661
4.04749	17.7645
4.04433	17.7937
4.04118	17.783
4.03803	17.7496
4.03489	17.7431
4.03175	17.7673
4.02862	17.8309
4.02549	17.8657
4.02237	17.7739
4.01925	17.6591
4.01614	17.6804
4.01303	17.7476
4.00993	17.6789
4.00683	17.6689
4.00373	17.7811
4.00064	17.7639
3.99756	17.8118
3.99448	17.8707
3.9914	17.7907
3.98833	17.7857
3.98527	17.774
3.98221	17.8025
3.97915	17.8301
3.9761	17.7456
3.97305	17.713
3.97001	17.7324
3.96697	17.7411
3.96394	17.6954
3.96091	17.6604
3.95789	17.6724
3.95487	17.6913
3.95186	17.7194
3.94885	17.7216
3.94584	17.6986
3.94284	17.7012
3.93984	17.719
3.93685	17.6334
3.93386	17.5782
3.93088	17.5494
3.9279	17.5548
3.92493	17.6198
3.92196	17.6688
3.919	17.6065
3.91604	17.5487
3.91308	17.5417
3.91013	17.5195
3.90718	17.4527
3.90424	17.4578
3.9013	17.5142
3.89837	17.6091
3.89544	17.5921
3.89252	17.4716
3.8896	17.3653
3.88668	17.3008
3.88377	17.3235
3.88086	17.3485
3.87796	17.3288
3.87506	17.2569
3.87217	17.2265
3.86928	17.1764
3.86639	17.1625
3.86351	17.1802
3.86064	17.0988
3.85776	17.0461
3.8549	17.0437
3.85203	17.0512
3.84917	16.9884
3.84631	16.9195
3.84346	16.9561
3.84062	16.9839
3.83777	16.9428
3.83494	16.911
3.8321	16.8642
3.82927	16.8109
3.82644	16.7503
3.82362	16.7572
3.82081	16.7699
3.81799	16.7092
3.81518	16.6919
3.81238	16.7014
3.80958	16.6633
3.80678	16.6385
3.80399	16.6484
3.8012	16.6178
3.79841	16.5562
3.79563	16.4886
3.79286	16.3896
3.79008	16.2561
3.78731	16.202
3.78455	16.2448
3.78179	16.2621
3.77903	16.1663
3.77628	16.1773
3.77353	16.1928
3.77079	16.1365
3.76805	16.1169
3.76531	16.1193
3.76258	16.0659
3.75985	15.968
3.75713	15.9589
3.7544	15.9646
3.75169	15.947
3.74898	15.9034
3.74627	15.827
3.74356	15.728
3.74086	15.675
3.73816	15.7215
3.73547	15.712
3.73278	15.6715
3.7301	15.5834
3.72741	15.5538
3.72474	15.5283
3.72206	15.4381
3.71939	15.3929
3.71673	15.4057
3.71406	15.3192
3.71141	15.3143
3.70875	15.3963
3.7061	15.3918
3.70345	15.3064
3.70081	15.2544
3.69817	15.1914
3.69553	15.1612
3.6929	15.1456
3.69027	15.0121
3.68765	15.0511
3.68503	15.1095
3.68241	14.9775
3.6798	14.8859
3.67719	14.9085
3.67458	14.8636
3.67198	14.823
3.66938	14.8397
3.66678	14.8235
3.66419	14.7168
3.66161	14.5772
3.65902	14.5575
3.65644	14.5625
3.65387	14.4682
3.65129	14.3196
3.64872	14.2703
3.64616	14.3209
3.64359	14.3029
3.64103	14.262
3.63848	14.2012
3.63593	14.1199
3.63338	14.1091
3.63084	14.1753
3.6283	14.1362
3.62576	14.0013
3.62322	13.8939
3.62069	13.8366
3.61817	13.7804
3.61564	13.8061
3.61312	13.7494
3.61061	13.6829
3.6081	13.6457
3.60559	13.61
3.60308	13.5952
3.60058	13.5524
3.59808	13.5
3.59558	13.3716
3.59309	13.3009
3.59061	13.2847
3.58812	13.1805
3.58564	13.0341
3.58316	12.9583
3.58069	12.9112
3.57822	12.8368
3.57575	12.7777
3.57328	12.7527
3.57082	12.688
3.56836	12.6152
3.56591	12.5544
3.56346	12.5747
3.56101	12.5733
3.55857	12.518
3.55613	12.4223
3.55369	12.3152
3.55126	12.3004
3.54883	12.2238
3.5464	12.0813
3.54397	12.0653
3.54155	12.1142
3.53914	12.1098
3.53672	12.1026
3.53431	12.0434
3.5319	11.9296
3.5295	11.9583
3.5271	12.0335
3.5247	11.9294
3.52231	11.7899
3.51991	11.7676
3.51753	11.8121
3.51514	11.8409
3.51276	11.7447
3.51038	11.6045
3.50801	11.571
3.50563	11.5008
3.50327	11.4038
3.5009	11.3659
3.49854	11.3707
3.49618	11.4242
3.49382	11.4088
3.49147	11.3871
3.48912	11.3838
3.48677	11.334
3.48443	11.2359
3.48209	11.1786
3.47975	11.122
3.47742	11.1099
3.47509	11.0913
3.47276	11.0289
3.47044	11.0003
3.46812	10.9368
3.4658	10.9217
3.46348	10.9381
3.46117	10.9113
3.45886	10.9017
3.45656	10.774
3.45425	10.7208
3.45195	10.6359
3.44966	10.6392
3.44736	10.6316
3.44507	10.5618
3.44279	10.5086
3.4405	10.4012
3.43822	10.3533
3.43594	10.3432
3.43367	10.3665
3.43139	10.3588
3.42912	10.3492
3.42686	10.4025
3.42459	10.2562
3.42233	10.0867
3.42007	10.0764
3.41782	10.1713
3.41557	10.1151
3.41332	9.99807
3.41108	10.032
3.40883	9.99036
3.40659	9.87777
3.40435	9.77468
3.40212	9.72109
3.39989	9.77537
3.39766	9.78925
3.39544	9.77709
3.39322	9.66618
3.391	9.59527
3.38878	9.65539
3.38657	9.52156
3.38436	9.41107
3.38215	9.45343
3.37994	9.51347
3.37774	9.35531
3.37554	9.28765
3.37335	9.3724
3.37115	9.34771
3.36896	9.20584
3.36678	9.1448
3.36459	9.15467
3.36241	9.07572
3.36023	8.96294
3.35805	9.01496
3.35588	9.08018
3.35371	9.0622
3.35154	9.00856
3.34938	8.92539
3.34721	8.77691
3.34505	8.76468
3.3429	8.71949
3.34074	8.63183
3.33859	8.59278
3.33644	8.55393
3.3343	8.56864
3.33215	8.63406
3.33001	8.5489
3.32788	8.43757
3.32574	8.45686
3.32361	8.43401
3.32148	8.39063
3.31936	8.33581
3.31723	8.22639
3.31511	8.20069
3.31299	8.17127
3.31088	8.11788
3.30876	8.14437
3.30665	8.14148
3.30455	8.00457
3.30244	7.79302
3.30034	7.74126
3.29824	7.80338
3.29614	7.77111
3.29405	7.75707
3.29196	7.7357
3.28987	7.71352
3.28778	7.68061
3.2857	7.58659
3.28362	7.53689
3.28154	7.48637
3.27946	7.4259
3.27739	7.42199
3.27532	7.34965
3.27325	7.21069
3.27119	7.18595
3.26913	7.20484
3.26707	7.21966
3.26501	7.19585
3.26295	7.10985
3.2609	7.07246
3.25885	7.06502
3.2568	7.08501
3.25476	6.99058
3.25272	6.83187
3.25068	6.80387
3.24864	6.83005
3.24661	6.70995
3.24458	6.59302
3.24255	6.58399
3.24052	6.68436
3.2385	6.76709
3.23648	6.63809
3.23446	6.37306
3.23244	6.36408
3.23043	6.47476
3.22841	6.45454
3.2264	6.47119
3.2244	6.31634
3.22239	6.26931
3.22039	6.29968
3.21839	6.2724
3.2164	6.11583
3.2144	6.08229
3.21241	6.12364
3.21042	6.04457
3.20844	5.91748
3.20645	5.95815
3.20447	6.04493
3.20249	5.97891
3.20051	5.82079
3.19854	5.76699
3.19657	5.7379
3.1946	5.70501
3.19263	5.71623
3.19067	5.67567
3.1887	5.59523
3.18674	5.52862
3.18479	5.49153
3.18283	5.34074
3.18088	5.2343
3.17893	5.28141
3.17698	5.39352
3.17504	5.38086
3.17309	5.24752
3.17115	5.23032
3.16921	5.27234
3.16728	5.24431
3.16534	5.12245
3.16341	5.08646
3.16148	4.97547
3.15956	4.96594
3.15763	5.07045
3.15571	5.04665
3.15379	4.90696
3.15187	4.91307
3.14996	4.90089
3.14805	4.86163
3.14614	4.83486
3.14423	4.85172
3.14232	4.92783
3.14042	4.79678
3.13852	4.57644
3.13662	4.52032
3.13472	4.62478
3.13283	4.70503
3.13094	4.63933
3.12905	4.51202
3.12716	4.40392
3.12528	4.43645
3.12339	4.39993
3.12151	4.34347
3.11964	4.31868
3.11776	4.23783
3.11589	4.19315
3.11401	4.17816
3.11214	4.20159
3.11028	4.21019
3.10841	4.19858
3.10655	4.1227
3.10469	4.05902
3.10283	4.0016
3.10098	3.96208
3.09912	4.021
3.09727	4.04336
3.09542	3.89493
3.09358	3.84621
3.09173	3.79896
3.08989	3.80192
3.08805	3.88455
3.08621	3.85004
3.08437	3.85924
3.08254	3.8182
3.08071	3.67595
3.07888	3.72707
3.07705	3.66997
3.07523	3.49366
3.0734	3.55697
3.07158	3.61341
3.06977	3.48913
3.06795	3.46105
3.06613	3.43115
3.06432	3.51343
3.06251	3.58951
3.0607	3.58028
3.0589	3.50902
3.0571	3.44731
3.05529	3.4923
3.05349	3.50593
3.0517	3.53531
3.0499	3.48735
3.04811	3.38006
3.04632	3.33096
3.04453	3.30396
3.04274	3.24823
3.04096	3.26352
3.03918	3.29879
3.0374	3.20979
3.03562	3.10934
3.03384	3.01538
3.03207	3.12688
3.03029	3.26923
3.02852	3.22958
3.02676	3.07205
3.02499	2.96382
3.02323	2.99091
3.02146	3.03037
3.0197	3.02521
3.01795	3.01853
3.01619	3.05916
3.01444	3.05071
3.01269	3.07757
3.01094	3.06355
3.00919	3.10798
3.00744	3.15936
3.0057	3.09576
3.00396	3.02023
3.00222	2.98235
3.00048	2.85587
2.99875	2.73118
2.99701	2.89389
2.99528	2.96538
2.99355	2.9005
2.99183	2.98394
2.9901	2.95683
2.98838	2.81202
2.98666	2.89207
2.98494	2.86541
2.98322	2.79467
2.9815	2.79868
2.97979	2.83249
2.97808	2.7544
2.97637	2.67961
2.97466	2.74315
2.97295	2.79199
2.97125	2.87971
2.96955	2.84053
2.96785	2.83065
2.96615	2.87199
2.96446	2.7981
2.96276	2.71737
2.96107	2.76681
2.95938	2.78257
2.95769	2.72796
2.95601	2.64224
2.95432	2.70074
2.95264	2.69062
2.95096	2.59567
2.94928	2.61846
2.9476	2.63634
2.94593	2.6038
2.94425	2.63454
2.94258	2.66895
2.94092	2.70122
2.93925	2.7222
2.93758	2.69006
2.93592	2.56072
2.93426	2.62906
2.9326	2.59843
2.93094	2.55072
2.92928	2.57841
2.92763	2.60727
2.92598	2.69578
2.92433	2.73233
2.92268	2.7506
2.92103	2.71045
2.91939	2.70443
2.91775	2.75638
2.9161	2.67985
2.91447	2.69275
2.91283	2.74627
2.91119	2.77128
2.90956	2.72666
2.90793	2.48773
2.9063	2.46505
2.90467	2.5708
2.90304	2.70043
2.90142	2.71487
2.89979	2.76783
2.89817	2.7648
2.89656	2.82703
2.89494	2.93808
2.89332	2.88124
2.89171	2.83346
2.8901	2.81688
2.88849	2.84718
2.88688	2.87463
2.88527	2.91474
2.88367	2.97368
2.88206	2.97584
2.88046	2.92017
2.87886	2.86143
2.87727	2.74362
2.87567	2.7947
2.87408	2.84504
2.87248	2.89112
2.87089	2.96679
2.8693	2.96596
2.86772	2.86631
2.86613	2.79822
2.86455	2.81133
2.86297	2.86789
2.86139	2.93932
2.85981	2.96566
2.85823	2.90655
2.85666	2.95701
2.85508	2.93001
2.85351	2.82465
2.85194	2.87922
2.85038	2.98642
2.84881	2.99078
2.84724	2.85166
2.84568	2.69162
2.84412	2.74323
2.84256	2.92142
2.841	2.94193
2.83945	2.92414
2.83789	2.82802
2.83634	2.75027
2.83479	2.94483
2.83324	2.95423
2.83169	2.8809
2.83015	2.87814
2.82861	2.74633
2.82706	2.59401
2.82552	2.65428
2.82398	2.66058
2.82245	2.71773
2.82091	2.80838
2.81938	2.69414
2.81784	2.70509
2.81631	2.8286
2.81479	2.81573
2.81326	2.77648
2.81173	2.74167
2.81021	2.80287
2.80869	2.91125
2.80716	2.95276
2.80565	2.94222
2.80413	2.89153
2.80261	2.90203
2.8011	3.01374
2.79959	3.09192
2.79808	3.10013
2.79657	3.06702
2.79506	3.11356
2.79355	3.18357
2.79205	3.2623
2.79055	3.27128
2.78904	3.2347
2.78754	3.3185
2.78605	3.47566
2.78455	3.47415
2.78306	3.52
2.78156	3.64578
2.78007	3.92412
2.77858	4.12943
2.77709	4.03578
2.77561	3.98164
2.77412	4.03332
2.77264	4.12533
2.77116	4.06111
2.76968	4.13496
2.7682	4.08438
2.76672	4.01082
2.76524	4.01057
2.76377	3.9726
2.7623	3.83569
2.76083	3.72843
2.75936	3.83114
2.75789	3.88918
2.75642	3.87735
2.75496	4.06072
2.7535	4.34926
2.75203	4.34121
2.75057	4.24881
2.74912	4.37393
2.74766	4.56998
2.7462	4.5922
2.74475	4.69023
2.7433	4.89545
2.74185	4.99986
2.7404	5.27211
2.73895	5.75757
2.7375	5.98195
2.73606	5.98543
2.73462	6.14508
2.73318	6.47211
2.73174	6.78391
2.7303	7.15113
2.72886	7.48456
2.72742	7.77684
2.72599	8.21939
2.72456	8.60308
2.72313	9.06696
2.7217	9.64868
2.72027	10.2201
2.71884	10.6255
2.71742	10.9859
2.71599	11.2746
2.71457	11.5239
2.71315	11.8547
2.71173	12.0309
2.71032	12.1715
2.7089	12.3835
2.70748	12.3925
2.70607	12.1889
2.70466	11.8566
2.70325	11.7676
2.70184	11.9826
2.70043	12.233
2.69903	12.528
2.69762	13.0281
2.69622	13.6069
2.69482	14.2181
2.69342	14.8368
2.69202	15.3604
2.69062	15.6884
2.68923	15.9818
2.68783	16.2309
2.68644	16.5015
2.68505	16.7408
2.68366	16.9557
2.68227	17.0358
2.68089	17.1714
2.6795	17.3693
2.67812	17.5608
2.67673	17.7402
2.67535	17.8287
2.67397	17.9492
2.6726	18.1171
2.67122	18.1313
2.66984	18.1662
2.66847	18.1774
2.6671	18.211
2.66572	18.2963
2.66435	18.4325
2.66299	18.6051
2.66162	18.8341
2.66025	18.9579
2.65889	18.9808
2.65753	19.0085
2.65616	19.069
2.65481	19.1706
2.65345	19.2588
2.65209	19.39
2.65073	19.6564
2.64938	19.7614
2.64803	19.7551
2.64667	19.8843
2.64532	20.0772
2.64397	20.044
2.64263	20.035
2.64128	20.2002
2.63994	20.3048
2.63859	20.3909
2.63725	20.4405
2.63591	20.4434
2.63457	20.5076
2.63323	20.6558
2.6319	20.7221
2.63056	20.8132
2.62923	20.8469
2.62789	20.8377
2.62656	20.8755
2.62523	20.9357
2.6239	21.0192
2.62258	21.1402
2.62125	21.1663
2.61993	21.0054
2.6186	20.9541
2.61728	21.0418
2.61596	21.1334
2.61464	21.1105
2.61332	21.1734
2.61201	21.3483
2.61069	21.2296
2.60938	21.1299
2.60807	21.0994
2.60675	21.1635
2.60544	21.3805
2.60414	21.3366
2.60283	21.3422
2.60152	21.4105
2.60022	21.3887
2.59891	21.3349
2.59761	21.3261
2.59631	21.335
2.59501	21.3505
2.59371	21.4778
2.59242	21.6834
2.59112	21.7665
2.58983	21.6111
2.58853	21.6205
2.58724	21.7958
2.58595	21.8701
2.58466	21.9053
2.58338	21.7612
2.58209	21.7004
2.5808	21.7513
2.57952	21.864
2.57824	21.9431
2.57695	21.9961
2.57567	21.9847
2.5744	22.0312
2.57312	22.1217
2.57184	21.9758
2.57057	21.8813
2.56929	22.0267
2.56802	22.1995
2.56675	22.2542
2.56548	22.1785
2.56421	22.2616
2.56294	22.3398
2.56168	22.3716
2.56041	22.3537
2.55915	22.3451
2.55789	22.4828
2.55662	22.5554
2.55536	22.5784
2.5541	22.6209
2.55285	22.674
2.55159	22.6209
2.55034	22.5476
2.54908	22.7778
2.54783	23.08
2.54658	23.075
2.54533	22.9507
2.54408	22.9295
2.54283	23.0316
2.54159	23.0503
2.54034	23.0166
2.5391	23.0588
2.53785	23.2534
2.53661	23.2862
2.53537	23.2405
2.53413	23.3873
2.53289	23.4511
2.53166	23.4128
2.53042	23.4507
2.52919	23.5103
2.52795	23.5488
2.52672	23.5593
2.52549	23.524
2.52426	23.5176
2.52303	23.6592
2.52181	23.8646
2.52058	23.8484
2.51936	23.8095
2.51813	23.7487
2.51691	23.7876
2.51569	23.8585
2.51447	23.9236
2.51325	24.0117
2.51203	24.0649
2.51082	24.0468
2.5096	24.0833
2.50839	24.1425
2.50717	24.2514
2.50596	24.346
2.50475	24.368
2.50354	24.3854
2.50233	24.4083
2.50113	24.3897
2.49992	24.397
2.49872	24.54
2.49751	24.7394
2.49631	24.8278
2.49511	24.9289
2.49391	25.0182
2.49271	25.1347
2.49151	25.2024
2.49031	25.3029
2.48912	25.302
2.48792	25.4717
2.48673	25.7012
2.48554	25.7209
2.48435	25.7291
2.48316	25.8099
2.48197	25.8469
2.48078	26.0538
2.4796	26.2862
2.47841	26.344
2.47723	26.4198
2.47604	26.5524
2.47486	26.7548
2.47368	26.9396
2.4725	27.035
2.47132	26.9997
2.47014	26.9345
2.46897	27.1595
2.46779	27.373
2.46662	27.4299
2.46545	27.5081
2.46427	27.6765
2.4631	27.8109
2.46193	27.8907
2.46077	27.9599
2.4596	27.8879
2.45843	27.9433
2.45727	28.142
2.4561	28.2013
2.45494	28.3288
2.45378	28.3452
2.45262	28.3636
2.45146	28.3886
2.4503	28.2786
2.44914	28.2767
2.44799	28.3884
2.44683	28.4286
2.44568	28.4452
2.44452	28.4957
2.44337	28.5127
2.44222	28.5169
2.44107	28.3783
2.43992	28.407
2.43877	28.5566
2.43763	28.5448
2.43648	28.5591
2.43534	28.6431
2.43419	28.7802
2.43305	28.6401
2.43191	28.5746
2.43077	28.6442
2.42963	28.6959
2.42849	28.6835
2.42736	28.7005
2.42622	28.6695
2.42509	28.6566
2.42395	28.7261
2.42282	28.8699
2.42169	28.8113
2.42056	28.6779
2.41943	28.7161
2.4183	28.6868
2.41717	28.5066
2.41605	28.6037
2.41492	28.8046
2.4138	28.8933
2.41267	28.8493
2.41155	28.7251
2.41043	28.5638
2.40931	28.5669
2.40819	28.6615
2.40707	28.6289
2.40595	28.4244
2.40484	28.2548
2.40372	28.1757
2.40261	28.17
2.4015	28.1582
2.40039	28.0727
2.39928	27.7711
2.39817	27.6008
2.39706	27.4623
2.39595	27.5069
2.39484	27.4505
2.39374	27.2372
2.39263	27.0268
2.39153	26.8642
2.39043	26.5362
2.38932	26.0807
2.38822	25.9278
2.38712	25.7795
2.38603	25.5271
2.38493	25.2847
2.38383	25.0557
2.38274	24.7994
2.38164	24.5513
2.38055	24.3306
2.37946	24.1359
2.37836	23.7912
2.37727	23.5063
2.37618	23.3784
2.3751	23.1491
2.37401	22.9175
2.37292	22.6085
2.37184	22.2435
2.37075	22.0623
2.36967	21.9638
2.36859	21.8962
2.3675	21.8789
2.36642	21.8028
2.36534	21.6198
2.36427	21.4274
2.36319	21.1739
2.36211	21.1424
2.36104	21.2928
2.35996	21.443
2.35889	21.4527
2.35781	21.1736
2.35674	21.0673
2.35567	21.2806
2.3546	21.3671
2.35353	21.4411
2.35247	21.4597
2.3514	21.4963
2.35033	21.5771
2.34927	21.6057
2.3482	21.6747
2.34714	21.9643
2.34608	22.2026
2.34502	22.3042
2.34396	22.3988
2.3429	22.5627
2.34184	22.7593
2.34078	23.0323
2.33973	23.1162
2.33867	23.0586
2.33762	23.303
2.33656	23.5462
2.33551	23.6382
2.33446	23.8847
2.33341	24.0777
2.33236	24.2712
2.33131	24.4294
2.33026	24.436
2.32922	24.5466
2.32817	24.8272
2.32712	25.0014
2.32608	25.0462
2.32504	25.0616
2.324	25.2156
2.32295	25.3003
2.32191	25.4881
2.32087	25.6956
2.31984	25.8813
2.3188	25.9232
2.31776	26.1326
2.31673	26.3305
2.31569	26.2087
2.31466	26.3135
2.31362	26.4864
2.31259	26.5721
2.31156	26.7441
2.31053	26.8147
2.3095	27.0118
2.30847	27.3339
2.30745	27.532
2.30642	27.476
2.3054	27.5226
2.30437	27.6371
2.30335	27.7883
2.30232	27.8805
2.3013	27.8616
2.30028	28.0391
2.29926	28.2055
2.29824	28.2001
2.29722	28.2329
2.29621	28.2468
2.29519	28.2699
2.29417	28.3075
2.29316	28.3089
2.29215	28.2715
2.29113	28.3304
2.29012	28.3576
2.28911	28.3417
2.2881	28.2801
2.28709	28.0984
2.28608	28.1129
2.28507	28.0441
2.28407	27.8523
2.28306	27.7776
2.28206	27.6394
2.28105	27.4627
2.28005	27.3499
2.27905	27.3327
2.27805	27.1019
2.27705	26.715
2.27605	26.5145
2.27505	26.4308
2.27405	26.2091
2.27305	25.8871
2.27206	25.5542
2.27106	25.2459
2.27007	24.9868
2.26907	24.75
2.26808	24.3947
2.26709	23.9334
2.2661	23.7352
2.26511	23.6779
2.26412	23.5513
2.26313	23.5003
2.26214	23.3501
2.26116	23.0573
2.26017	23.0447
2.25919	23.0282
2.2582	23.0742
2.25722	23.3478
2.25624	23.5043
2.25526	23.6667
2.25428	24.0826
2.2533	24.5392
2.25232	24.9952
2.25134	25.3311
2.25036	25.6797
2.24939	26.2669
2.24841	26.7149
2.24744	27.2152
2.24646	28.0976
2.24549	28.6857
2.24452	28.9085
2.24355	29.3292
2.24257	29.9504
2.24161	30.3509
2.24064	30.7417
2.23967	31.2641
2.2387	31.8202
2.23774	32.2881
2.23677	32.6881
2.23581	32.9373
2.23484	33.2757
2.23388	33.6612
2.23292	34.038
2.23196	34.3486
2.231	34.659
2.23004	34.9492
2.22908	35.0671
2.22812	35.1506
2.22716	35.5195
2.22621	35.9396
2.22525	36.1474
2.2243	36.2024
2.22334	36.4518
2.22239	36.5875
2.22144	36.6605
2.22049	36.7859
2.21953	36.9034
2.21859	37.1706
2.21764	37.4215
2.21669	37.4889
2.21574	37.4827
2.21479	37.5456
2.21385	37.6217
2.2129	37.621
2.21196	37.7293
2.21102	37.7445
2.21007	37.8724
2.20913	38.1504
2.20819	38.2936
2.20725	38.3519
2.20631	38.4892
2.20537	38.6326
2.20444	38.6371
2.2035	38.6165
2.20256	38.6439
2.20163	38.683
2.20069	38.7515
2.19976	38.894
2.19883	38.9471
2.19789	38.841
2.19696	38.8778
2.19603	39.1483
2.1951	39.2957
2.19417	39.3325
2.19325	39.3203
2.19232	39.3534
2.19139	39.3822
2.19047	39.326
2.18954	39.4083
2.18862	39.5854
2.18769	39.7245
2.18677	39.6828
2.18585	39.6413
2.18493	39.6338
2.18401	39.508
2.18309	39.6315
2.18217	39.8591
2.18125	39.8251
2.18033	39.8467
2.17942	39.9483
2.1785	40.0816
2.17759	40.1545
2.17667	39.9388
2.17576	39.7931
2.17485	39.8114
2.17393	39.8439
2.17302	39.8825
2.17211	39.9473
2.1712	39.8813
2.17029	39.8956
2.16939	40.1147
2.16848	40.1923
2.16757	40.0523
2.16667	40.0551
2.16576	40.1096
2.16486	40.2219
2.16395	40.0589
2.16305	40.019
2.16215	40.0435
2.16125	40.0938
2.16035	40.2021
2.15945	40.3907
2.15855	40.5679
2.15765	40.3949
2.15675	40.2325
2.15586	40.2248
2.15496	40.1899
2.15406	40.2567
2.15317	40.1639
2.15228	40.0891
2.15138	40.1108
2.15049	40.0772
2.1496	40.1641
2.14871	40.0969
2.14782	39.9696
2.14693	40.0431
2.14604	40.344
2.14515	40.2878
2.14427	40.0187
2.14338	39.8947
2.14249	40.0079
2.14161	40.1806
2.14072	40.074
2.13984	40.129
2.13896	40.1101
2.13808	40.1405
2.13719	40.1921
2.13631	40.0203
2.13543	39.9305
2.13455	39.9445
2.13368	39.9289
2.1328	39.9838
2.13192	39.9929
2.13105	40.082
2.13017	40.0757
2.1293	40.1128
2.12842	40.24
2.12755	40.2072
2.12668	40.1395
2.1258	40.1093
2.12493	40.0757
2.12406	40.0704
2.12319	40.0445
2.12232	40.0566
2.12145	40.1615
2.12059	40.1351
2.11972	40.1952
2.11885	40.3338
2.11799	40.4
2.11712	40.3733
2.11626	40.2499
2.1154	40.1055
2.11453	40.1545
2.11367	40.2894
2.11281	40.3227
2.11195	40.3491
2.11109	40.4027
2.11023	40.4339
2.10937	40.4198
2.10851	40.399
2.10766	40.2899
2.1068	40.3361
2.10594	40.3174
2.10509	40.3076
2.10423	40.3754
2.10338	40.1932
2.10253	40.0696
2.10168	40.2464
2.10082	40.1423
2.09997	40.2153
2.09912	40.3812
2.09827	40.3018
2.09742	40.2755
2.09658	40.0157
2.09573	39.9557
2.09488	40.1062
2.09404	40.1362
2.09319	40.0727
2.09235	39.9358
2.0915	39.9879
2.09066	40.1063
2.08982	39.9074
2.08897	39.796
2.08813	39.8665
2.08729	39.8092
2.08645	39.6669
2.08561	39.5849
2.08477	39.7198
2.08394	39.5896
2.0831	39.352
2.08226	39.5001
2.08143	39.6467
2.08059	39.5602
2.07976	39.4394
2.07892	39.4201
2.07809	39.4033
2.07726	39.5636
2.07643	39.6497
2.07559	39.3138
2.07476	39.2205
2.07393	39.3254
2.0731	39.2822
2.07228	39.137
2.07145	38.9388
2.07062	38.8635
2.06979	38.7872
2.06897	38.826
2.06814	38.9673
2.06732	38.8845
2.06649	38.6832
2.06567	38.5858
2.06485	38.5831
2.06403	38.589
2.0632	38.6764
2.06238	38.4667
2.06156	38.2145
2.06074	38.3653
2.05993	38.372
2.05911	38.1857
2.05829	38.2035
2.05747	38.0099
2.05666	37.9315
2.05584	37.8605
2.05503	37.8278
2.05421	37.9395
2.0534	37.9759
2.05259	37.8414
2.05177	37.591
2.05096	37.379
2.05015	37.3134
2.04934	37.3409
2.04853	37.2283
2.04772	37.0151
2.04691	36.9466
2.04611	36.937
2.0453	36.9606
2.04449	36.974
2.04369	36.7997
2.04288	36.6755
2.04208	36.5214
2.04127	36.545
2.04047	36.5632
2.03967	36.4821
2.03886	36.2466
2.03806	36.0465
2.03726	35.9506
2.03646	35.7514
2.03566	35.5612
2.03486	35.5664
2.03407	35.6424
2.03327	35.7925
2.03247	35.3614
2.03167	34.9417
2.03088	35.1998
2.03008	35.1614
2.02929	35.0096
2.0285	35.0739
2.0277	35.0159
2.02691	34.8751
2.02612	34.6015
2.02533	34.5767
2.02453	34.6932
2.02374	34.6088
2.02295	34.4896
2.02217	34.2586
2.02138	34.0385
2.02059	34.0001
2.0198	34.0916
2.01902	34.2962
2.01823	34.0442
2.01744	33.9483
2.01666	34.0049
2.01588	33.9287
2.01509	33.8276
2.01431	33.7661
2.01353	33.7407
2.01275	33.816
2.01196	33.8631
2.01118	33.7069
2.0104	33.5031
2.00963	33.3746
2.00885	33.3828
2.00807	33.4167
2.00729	33.4683
2.00651	33.5227
2.00574	33.5304
2.00496	33.6219
2.00419	33.4127
2.00341	33.2622
2.00264	33.3966
2.00187	33.3168
2.00109	33.3739
2.00032	33.4473
