Name: Jarosite KFe_3^3+(SO_4)_2(OH)_6
Type: Mineral
Class: Sulfates
Subclass: 
Particle Size: 125-500um
Sample No.: SO-7A
Owner: JPL
Wavelength range: IR
Origin: Mexico, Chihuahua
Collected by Ward's
Description: 





Measurement: Hemispherical reflectance
First Column: X
Second Column: Y
X Units:  Wavelength (micrometers)
Y Units:  Reflectance (percent)
First X Value: 15.3853
Last X Value: 2.00032
Number of X Values: 2256
Additional information: so07aa.txt
 
15.3853	0.516136
15.3397	0.351898
15.2945	0.551123
15.2495	0.815546
15.2048	1.01783
15.1603	0.951244
15.1161	0.777272
15.0722	0.885566
15.0285	0.911379
14.9851	0.81037
14.9419	1.01446
14.8989	1.25824
14.8563	1.16245
14.8138	1.04033
14.7716	1.16007
14.7296	1.0609
14.6879	0.994055
14.6464	0.951843
14.6052	1.07453
14.5641	1.26364
14.5233	1.18875
14.4828	1.11299
14.4424	1.1732
14.4023	1.23771
14.3624	1.1311
14.3227	1.07478
14.2833	1.05425
14.244	1.08716
14.205	1.07059
14.1662	0.949129
14.1276	0.916416
14.0892	1.10864
14.051	1.2717
14.0131	1.3215
13.9753	1.09653
13.9377	1.08451
13.9004	1.39814
13.8632	1.5585
13.8262	1.5328
13.7895	1.35712
13.7529	1.45594
13.7165	1.4636
13.6803	1.28461
13.6443	1.22284
13.6085	1.24105
13.5729	1.51398
13.5374	1.81036
13.5022	1.84875
13.4671	1.55767
13.4322	1.4122
13.3975	1.43866
13.363	1.62089
13.3286	1.78845
13.2944	1.786
13.2604	1.78407
13.2266	1.84365
13.193	1.73866
13.1595	1.73066
13.1262	1.89528
13.093	2.02432
13.06	2.06862
13.0272	2.02634
12.9946	2.0995
12.9621	2.22791
12.9298	2.30164
12.8976	2.35216
12.8656	2.34801
12.8337	2.42506
12.8021	2.48068
12.7705	2.40313
12.7391	2.25987
12.7079	2.26213
12.6769	2.27403
12.6459	2.31681
12.6152	2.38584
12.5845	2.3764
12.5541	2.46383
12.5238	2.53159
12.4936	2.5532
12.4635	2.60112
12.4337	2.65427
12.4039	2.45562
12.3743	2.39154
12.3448	2.52587
12.3155	2.30824
12.2863	2.15591
12.2573	2.18185
12.2284	2.23621
12.1996	2.1548
12.171	1.90855
12.1425	1.7707
12.1141	1.74478
12.0859	1.58966
12.0578	1.39483
12.0298	1.26928
12.0019	1.20348
11.9742	1.11895
11.9466	1.00874
11.9192	0.980243
11.8918	1.03227
11.8646	1.09027
11.8375	0.972822
11.8106	0.914419
11.7837	0.883555
11.757	0.967464
11.7304	0.977356
11.7039	0.907016
11.6776	0.996582
11.6513	0.931065
11.6252	0.864669
11.5992	0.917349
11.5733	0.95145
11.5475	0.956293
11.5219	0.977401
11.4963	0.94238
11.4709	0.903675
11.4455	0.973861
11.4203	0.983242
11.3952	0.996
11.3702	1.09841
11.3454	1.18855
11.3206	1.20808
11.2959	1.27344
11.2714	1.27254
11.2469	1.11292
11.2226	1.14309
11.1983	1.32768
11.1742	1.30315
11.1502	1.32587
11.1263	1.52239
11.1024	1.59813
11.0787	1.51604
11.0551	1.42935
11.0316	1.40051
11.0081	1.49617
10.9848	1.7214
10.9616	1.80708
10.9385	1.83767
10.9154	1.86254
10.8925	1.827
10.8697	1.80533
10.8469	1.81214
10.8243	2.03375
10.8017	2.22139
10.7793	2.23109
10.7569	2.28109
10.7346	2.34254
10.7125	2.29653
10.6904	2.36645
10.6684	2.433
10.6465	2.42378
10.6247	2.53176
10.6029	2.61119
10.5813	2.56971
10.5597	2.62506
10.5383	2.63334
10.5169	2.67357
10.4956	2.71626
10.4744	2.76427
10.4533	2.78505
10.4323	2.81541
10.4113	2.96206
10.3904	3.1027
10.3697	3.04073
10.349	3.04309
10.3284	3.20424
10.3078	3.22435
10.2874	3.13833
10.267	3.15835
10.2467	3.2048
10.2265	3.17109
10.2064	3.24102
10.1863	3.25266
10.1663	3.27693
10.1464	3.29794
10.1266	3.26685
10.1069	3.14638
10.0872	3.02317
10.0676	3.11911
10.0481	3.26751
10.0287	3.25433
10.0093	3.11866
9.99005	3.00363
9.97084	2.90111
9.95169	2.7495
9.93263	2.82193
9.91364	2.94924
9.89472	2.96809
9.87587	3.08088
9.8571	3.12552
9.83839	2.94423
9.81976	2.82552
9.80119	2.74077
9.78271	2.65978
9.76428	2.64351
9.74592	2.58357
9.72764	2.36548
9.70943	2.20882
9.69128	2.26726
9.6732	2.14403
9.65518	1.8503
9.63724	1.78029
9.61935	1.82734
9.60155	1.70614
9.5838	1.5946
9.56611	1.61768
9.5485	1.69325
9.53094	1.87799
9.51345	1.96018
9.49604	1.99197
9.47867	2.13501
9.46137	2.20006
9.44414	2.28852
9.42697	2.25378
9.40986	2.35884
9.39281	2.52005
9.37583	2.54546
9.35891	2.66421
9.34204	2.73483
9.32524	2.73422
9.3085	2.69849
9.29182	2.63464
9.27519	2.67673
9.25863	2.66454
9.24213	2.65091
9.22568	2.67051
9.2093	2.64397
9.19297	2.48657
9.17669	2.38567
9.16048	2.25729
9.14433	2.39411
9.12823	2.66175
9.11218	2.58892
9.0962	2.23141
9.08027	2.1285
9.06439	2.19259
9.04858	2.20145
9.03281	2.19777
9.0171	2.11774
9.00145	2.10968
8.98585	2.06574
8.9703	2.06241
8.9548	2.13311
8.93937	2.01518
8.92398	1.90929
8.90865	1.72929
8.89337	1.51772
8.87814	1.42871
8.86296	1.38614
8.84784	1.25764
8.83277	1.16218
8.81774	1.18633
8.80277	1.15126
8.78786	1.07918
8.77298	0.98902
8.75816	0.969776
8.7434	1.06251
8.72868	1.04857
8.714	1.03491
8.69938	1.05569
8.68481	0.992774
8.67029	0.980584
8.65581	0.962241
8.64139	0.972869
8.62701	1.0043
8.61268	1.01985
8.5984	1.06705
8.58416	0.94513
8.56997	0.927067
8.55583	1.10141
8.54174	1.02603
8.52769	0.874478
8.51368	0.967196
8.49973	1.04681
8.48582	1.00677
8.47195	1.06816
8.45813	1.15044
8.44436	1.16489
8.43062	1.12495
8.41693	1.08909
8.4033	1.1263
8.3897	1.17278
8.37614	1.10894
8.36264	0.968061
8.34917	1.028
8.33574	1.14089
8.32236	1.24498
8.30903	1.40687
8.29573	1.48168
8.28248	1.36508
8.26927	1.27993
8.2561	1.40273
8.24298	1.41037
8.2299	1.32784
8.21685	1.36602
8.20385	1.40711
8.19089	1.52312
8.17797	1.63585
8.16509	1.50772
8.15225	1.56956
8.13946	1.66187
8.1267	1.74406
8.11398	1.78164
8.10131	1.8798
8.08867	2.08674
8.07606	2.30896
8.0635	2.50689
8.05099	2.55544
8.0385	2.62227
8.02606	2.7599
8.01366	2.85133
8.00129	3.0193
7.98896	3.28207
7.97667	3.51897
7.96442	3.68112
7.9522	3.85507
7.94002	3.99106
7.92788	4.13311
7.91578	4.24866
7.90371	4.42031
7.89168	4.6521
7.87969	4.75981
7.86773	4.82559
7.85581	4.95943
7.84392	5.08706
7.83207	5.19598
7.82026	5.32911
7.80849	5.46284
7.79674	5.59741
7.78503	5.74532
7.77337	5.82746
7.76173	5.87908
7.75012	5.93642
7.73856	6.02404
7.72703	6.15202
7.71553	6.20894
7.70406	6.20016
7.69263	6.25739
7.68123	6.32593
7.66987	6.34646
7.65855	6.41472
7.64725	6.57307
7.63598	6.66363
7.62475	6.65403
7.61356	6.70408
7.60239	6.67643
7.59126	6.61
7.58017	6.75066
7.5691	6.85026
7.55806	6.8987
7.54707	6.96289
7.5361	7.04024
7.52516	7.081
7.51425	7.0631
7.50338	7.00317
7.49253	7.0437
7.48172	7.08807
7.47094	7.08361
7.46019	7.09102
7.44947	7.14426
7.43879	7.07656
7.42813	7.10624
7.4175	7.19094
7.4069	7.21586
7.39634	7.26915
7.3858	7.28894
7.37529	7.28415
7.36482	7.35449
7.35437	7.46594
7.34396	7.50882
7.33357	7.5223
7.32321	7.57514
7.31288	7.55955
7.30258	7.60879
7.29231	7.62678
7.28207	7.67254
7.27185	7.71808
7.26167	7.67492
7.25152	7.68691
7.24139	7.75967
7.23129	7.88617
7.22122	7.91668
7.21117	7.95747
7.20116	8.0517
7.19117	8.07628
7.18121	8.11541
7.17128	8.16776
7.16137	8.20702
7.1515	8.21243
7.14164	8.24168
7.13182	8.27393
7.12203	8.38231
7.11225	8.45115
7.10251	8.34211
7.0928	8.28025
7.08311	8.41384
7.07344	8.54049
7.06381	8.57466
7.0542	8.61141
7.04461	8.59684
7.03506	8.55665
7.02552	8.59532
7.01601	8.55954
7.00653	8.53521
6.99708	8.56691
6.98765	8.60716
6.97824	8.69083
6.96886	8.78198
6.95951	8.80931
6.95018	8.73519
6.94087	8.67794
6.9316	8.67514
6.92234	8.71542
6.91311	8.7561
6.90391	8.79735
6.89473	8.73788
6.88557	8.69732
6.87644	8.81014
6.86733	8.95826
6.85824	8.86598
6.84918	8.75811
6.84015	8.86994
6.83114	8.98985
6.82215	9.03043
6.81319	8.96695
6.80424	8.97752
6.79532	9.10297
6.78643	9.21514
6.77756	9.18591
6.76871	9.12424
6.75989	9.08584
6.75109	9.19555
6.74231	9.32728
6.73355	9.34367
6.72482	9.33013
6.71611	9.32759
6.70742	9.3395
6.69875	9.33131
6.69011	9.37396
6.68149	9.49932
6.67289	9.50539
6.66431	9.482
6.65576	9.45171
6.64722	9.47001
6.63871	9.61109
6.63022	9.58246
6.62175	9.45597
6.61331	9.37429
6.60488	9.40646
6.59648	9.50954
6.5881	9.53105
6.57974	9.5234
6.5714	9.45789
6.56308	9.42511
6.55478	9.48613
6.54651	9.41582
6.53825	9.36944
6.53001	9.35472
6.5218	9.31512
6.51361	9.34094
6.50544	9.34783
6.49729	9.37443
6.48915	9.3506
6.48104	9.26643
6.47295	9.24541
6.46488	9.17919
6.45683	9.13532
6.4488	9.12324
6.44079	9.14711
6.4328	9.27036
6.42482	9.36596
6.41687	9.44075
6.40894	9.31221
6.40103	9.09204
6.39314	9.15853
6.38526	9.19355
6.37741	9.20079
6.36957	9.2894
6.36176	9.22327
6.35396	9.24293
6.34618	9.38618
6.33843	9.31456
6.33069	9.21496
6.32297	9.14252
6.31527	9.07267
6.30758	9.12808
6.29992	9.1911
6.29227	9.11414
6.28465	9.0462
6.27704	9.07624
6.26945	9.11476
6.26188	9.1811
6.25432	9.18226
6.24679	9.15303
6.23927	9.14959
6.23177	9.09055
6.22429	9.08115
6.21683	9.13496
6.20938	9.09845
6.20195	8.97184
6.19454	8.82763
6.18715	8.82079
6.17978	8.76223
6.17242	8.68552
6.16508	8.58302
6.15776	8.49075
6.15045	8.46786
6.14317	8.48976
6.1359	8.45112
6.12864	8.36054
6.12141	8.39744
6.11419	8.5309
6.10699	8.62588
6.0998	8.60081
6.09263	8.52021
6.08549	8.47197
6.07835	8.66568
6.07123	8.76587
6.06413	8.64406
6.05705	8.77819
6.04998	9.05634
6.04293	8.90557
6.0359	8.73754
6.02888	8.77317
6.02187	8.8894
6.01489	9.02091
6.00792	9.03629
6.00096	9.02962
5.99403	9.06959
5.98711	9.1244
5.9802	9.21832
5.97331	9.31
5.96644	9.30006
5.95958	9.23916
5.95274	9.26089
5.94591	9.35716
5.9391	9.65636
5.9323	9.73198
5.92552	9.60229
5.91876	9.56748
5.91201	9.54503
5.90528	9.63641
5.89856	9.87677
5.89186	9.95671
5.88517	10.0124
5.8785	10.0322
5.87184	9.98321
5.8652	10.1276
5.85857	10.2015
5.85196	10.1832
5.84536	10.1629
5.83878	10.2079
5.83221	10.3259
5.82566	10.4688
5.81912	10.5268
5.81259	10.5892
5.80608	10.7784
5.79959	10.8261
5.79311	10.8058
5.78665	10.7923
5.78019	10.8176
5.77376	11.0122
5.76734	11.1827
5.76093	11.1181
5.75453	11.1155
5.74815	11.1831
5.74179	11.1648
5.73543	11.2117
5.7291	11.2532
5.72277	11.3488
5.71646	11.462
5.71017	11.4705
5.70389	11.4429
5.69762	11.4452
5.69136	11.4512
5.68513	11.4778
5.6789	11.533
5.67268	11.5384
5.66648	11.5759
5.6603	11.6518
5.65413	11.6538
5.64797	11.7309
5.64182	11.8189
5.63569	11.7808
5.62957	11.6606
5.62347	11.6352
5.61737	11.7571
5.61129	11.7488
5.60522	11.7546
5.59917	11.8262
5.59313	11.8585
5.5871	11.8695
5.58109	11.9243
5.57509	11.8922
5.5691	11.8223
5.56312	11.9101
5.55716	12.0161
5.55121	12.0686
5.54528	12.0206
5.53935	12.0361
5.53344	12.1017
5.52754	12.1906
5.52166	12.2252
5.51578	12.2542
5.50992	12.2609
5.50407	12.253
5.49823	12.2878
5.49241	12.3676
5.4866	12.37
5.4808	12.393
5.47501	12.4586
5.46923	12.579
5.46347	12.6264
5.45772	12.5689
5.45198	12.5832
5.44625	12.6656
5.44054	12.6881
5.43484	12.7357
5.42914	12.7735
5.42347	12.8123
5.4178	12.7755
5.41214	12.7697
5.4065	12.8219
5.40087	12.8966
5.39525	12.9548
5.38964	13.0074
5.38404	13.0303
5.37846	13.0329
5.37288	13.1091
5.36732	13.1817
5.36177	13.1665
5.35623	13.1746
5.35071	13.2327
5.34519	13.2477
5.33968	13.2271
5.33419	13.25
5.32871	13.2765
5.32324	13.2839
5.31778	13.2504
5.31233	13.213
5.30689	13.234
5.30147	13.25
5.29605	13.223
5.29065	13.2246
5.28525	13.2362
5.27987	13.2321
5.2745	13.2635
5.26914	13.2562
5.26379	13.2048
5.25845	13.143
5.25312	13.0187
5.24781	12.9628
5.2425	12.926
5.23721	12.9148
5.23192	12.8664
5.22665	12.7572
5.22138	12.6699
5.21613	12.6119
5.21089	12.4907
5.20566	12.3936
5.20044	12.286
5.19522	12.1717
5.19002	12.012
5.18483	11.8989
5.17965	11.8344
5.17448	11.7489
5.16933	11.5699
5.16418	11.4369
5.15904	11.3304
5.15391	11.22
5.14879	11.1594
5.14368	11.1032
5.13859	10.9247
5.1335	10.7398
5.12842	10.5716
5.12335	10.5139
5.1183	10.4276
5.11325	10.3514
5.10821	10.3066
5.10318	10.2748
5.09817	10.2056
5.09316	10.0791
5.08816	10.0224
5.08317	9.96378
5.07819	9.88472
5.07322	9.84457
5.06826	9.88282
5.06331	9.91393
5.05837	9.94732
5.05344	9.92085
5.04852	9.90058
5.04361	9.88694
5.03871	9.81756
5.03382	9.78873
5.02894	9.884
5.02406	9.87867
5.0192	9.7958
5.01435	9.76894
5.0095	9.7457
5.00467	9.62115
4.99984	9.58475
4.99502	9.6692
4.99021	9.66862
4.98542	9.59753
4.98063	9.5182
4.97585	9.48558
4.97108	9.44603
4.96632	9.3614
4.96156	9.33562
4.95682	9.32929
4.95209	9.24709
4.94736	9.29405
4.94264	9.35567
4.93794	9.3598
4.93324	9.34989
4.92855	9.38882
4.92387	9.43039
4.9192	9.43477
4.91453	9.44858
4.90988	9.4351
4.90524	9.45828
4.9006	9.53354
4.89597	9.56078
4.89135	9.61306
4.88674	9.61178
4.88214	9.57912
4.87755	9.60315
4.87296	9.63203
4.86839	9.61497
4.86382	9.56844
4.85926	9.55984
4.85471	9.52382
4.85017	9.50286
4.84564	9.51466
4.84111	9.52696
4.8366	9.56415
4.83209	9.48284
4.82759	9.43583
4.8231	9.49451
4.81862	9.48801
4.81415	9.42862
4.80968	9.40101
4.80522	9.45491
4.80077	9.47784
4.79633	9.45263
4.7919	9.46746
4.78747	9.42886
4.78306	9.40485
4.77865	9.42037
4.77425	9.42874
4.76986	9.37411
4.76547	9.25239
4.7611	9.16977
4.75673	9.12737
4.75237	9.09886
4.74802	9.11033
4.74367	9.07616
4.73934	9.00431
4.73501	8.98013
4.73069	8.96988
4.72638	9.01412
4.72207	9.00193
4.71777	8.89327
4.71348	8.82467
4.7092	8.80443
4.70493	8.77073
4.70066	8.80212
4.69641	8.8435
4.69216	8.78334
4.68791	8.74239
4.68368	8.69142
4.67945	8.65719
4.67523	8.63381
4.67102	8.68313
4.66682	8.70132
4.66262	8.64535
4.65843	8.68595
4.65425	8.73635
4.65007	8.7134
4.64591	8.76866
4.64175	8.83701
4.6376	8.77297
4.63345	8.7753
4.62932	8.87336
4.62519	8.92549
4.62106	8.94351
4.61695	8.95138
4.61284	8.9642
4.60874	9.02354
4.60465	9.1377
4.60056	9.17661
4.59648	9.15518
4.59241	9.28687
4.58835	9.35044
4.58429	9.32331
4.58024	9.3951
4.5762	9.51751
4.57216	9.58707
4.56814	9.60029
4.56411	9.5996
4.5601	9.61317
4.55609	9.65786
4.55209	9.73895
4.5481	9.90087
4.54411	9.94534
4.54013	9.96395
4.53616	10.0497
4.5322	10.0976
4.52824	10.1385
4.52429	10.218
4.52034	10.2983
4.51641	10.4618
4.51247	10.606
4.50855	10.7529
4.50463	10.7979
4.50072	10.8318
4.49682	10.9419
4.49292	11.0885
4.48903	11.1923
4.48515	11.282
4.48127	11.4264
4.4774	11.5774
4.47354	11.6689
4.46968	11.936
4.46584	12.1445
4.46199	12.2634
4.45815	12.4303
4.45432	12.6195
4.4505	12.6939
4.44668	12.7886
4.44287	12.9377
4.43907	13.1068
4.43527	13.2923
4.43148	13.3905
4.4277	13.4904
4.42392	13.6214
4.42015	13.785
4.41638	13.9849
4.41262	14.0825
4.40887	14.1905
4.40513	14.2701
4.40139	14.3485
4.39765	14.4808
4.39393	14.5878
4.39021	14.6688
4.38649	14.7951
4.38278	14.9223
4.37908	14.9609
4.37539	14.9487
4.3717	15.0181
4.36801	15.1145
4.36434	15.1756
4.36067	15.2095
4.357	15.328
4.35335	15.4303
4.34969	15.3947
4.34605	15.4437
4.34241	15.5179
4.33877	15.5645
4.33514	15.6068
4.33152	15.6501
4.32791	15.7434
4.3243	15.7605
4.32069	15.753
4.3171	15.7352
4.31351	15.7481
4.30992	15.7765
4.30634	15.8485
4.30277	15.9369
4.2992	15.9071
4.29564	15.9311
4.29208	15.9798
4.28853	16.0064
4.28499	16.022
4.28145	16.0066
4.27792	16.0027
4.27439	15.999
4.27087	16.0077
4.26735	16.0144
4.26384	16.0385
4.26034	16.0783
4.25684	16.1303
4.25335	16.1815
4.24986	16.1517
4.24638	16.0951
4.24291	16.1116
4.23944	16.1193
4.23598	16.0948
4.23252	16.0724
4.22906	16.077
4.22562	16.1185
4.22218	16.1552
4.21874	16.2326
4.21531	16.3389
4.21189	16.3953
4.20847	16.3487
4.20506	16.3152
4.20165	16.4007
4.19825	16.4799
4.19485	16.4321
4.19146	16.3602
4.18807	16.2936
4.18469	16.2531
4.18132	16.326
4.17795	16.3601
4.17458	16.4138
4.17123	16.4303
4.16787	16.3655
4.16453	16.4119
4.16118	16.4557
4.15785	16.3928
4.15451	16.3759
4.15119	16.3907
4.14787	16.4671
4.14455	16.4684
4.14124	16.5394
4.13794	16.5743
4.13464	16.4907
4.13134	16.535
4.12805	16.5746
4.12477	16.5307
4.12149	16.5594
4.11822	16.5531
4.11495	16.4832
4.11168	16.4792
4.10843	16.4665
4.10517	16.4581
4.10192	16.3941
4.09868	16.3826
4.09545	16.4416
4.09221	16.448
4.08899	16.4639
4.08576	16.4883
4.08255	16.4439
4.07933	16.3601
4.07613	16.3872
4.07292	16.3806
4.06973	16.314
4.06654	16.3298
4.06335	16.3259
4.06017	16.2706
4.05699	16.2409
4.05382	16.2491
4.05065	16.2552
4.04749	16.273
4.04433	16.2364
4.04118	16.1166
4.03803	16.0589
4.03489	16.1456
4.03175	16.0367
4.02862	15.8707
4.02549	15.8922
4.02237	15.8789
4.01925	15.8691
4.01614	15.9085
4.01303	15.8443
4.00993	15.7052
4.00683	15.6367
4.00373	15.5874
4.00064	15.5862
3.99756	15.5212
3.99448	15.4794
3.9914	15.4504
3.98833	15.3611
3.98527	15.3273
3.98221	15.2652
3.97915	15.2162
3.9761	15.1906
3.97305	15.1106
3.97001	15.0067
3.96697	14.9503
3.96394	14.9194
3.96091	14.8209
3.95789	14.7697
3.95487	14.7274
3.95186	14.6889
3.94885	14.7257
3.94584	14.6667
3.94284	14.5798
3.93984	14.4217
3.93685	14.339
3.93386	14.2511
3.93088	14.1404
3.9279	14.1193
3.92493	14.1544
3.92196	14.0751
3.919	13.954
3.91604	13.9251
3.91308	13.9357
3.91013	13.8713
3.90718	13.7753
3.90424	13.696
3.9013	13.504
3.89837	13.3593
3.89544	13.3117
3.89252	13.3463
3.8896	13.327
3.88668	13.2874
3.88377	13.1733
3.88086	13.08
3.87796	13.0434
3.87506	13.0389
3.87217	13.0348
3.86928	12.9089
3.86639	12.7561
3.86351	12.6652
3.86064	12.551
3.85776	12.4464
3.8549	12.436
3.85203	12.3719
3.84917	12.3162
3.84631	12.3231
3.84346	12.2568
3.84062	12.1586
3.83777	12.126
3.83494	12.0207
3.8321	11.9675
3.82927	11.9462
3.82644	11.8409
3.82362	11.7934
3.82081	11.6846
3.81799	11.5908
3.81518	11.5759
3.81238	11.4673
3.80958	11.4023
3.80678	11.3929
3.80399	11.3507
3.8012	11.3227
3.79841	11.2191
3.79563	11.1609
3.79286	11.0956
3.79008	10.9807
3.78731	10.8911
3.78455	10.8278
3.78179	10.7724
3.77903	10.7651
3.77628	10.6898
3.77353	10.6403
3.77079	10.6348
3.76805	10.5633
3.76531	10.522
3.76258	10.463
3.75985	10.3779
3.75713	10.3368
3.7544	10.2536
3.75169	10.2795
3.74898	10.2363
3.74627	10.1267
3.74356	10.0658
3.74086	9.95494
3.73816	9.89449
3.73547	9.87699
3.73278	9.80581
3.7301	9.70975
3.72741	9.58018
3.72474	9.4812
3.72206	9.53649
3.71939	9.56144
3.71673	9.54087
3.71406	9.39893
3.71141	9.22365
3.70875	9.16463
3.7061	9.06959
3.70345	9.1077
3.70081	9.16835
3.69817	9.08855
3.69553	8.96829
3.6929	8.94389
3.69027	8.86583
3.68765	8.76751
3.68503	8.75423
3.68241	8.7974
3.6798	8.72809
3.67719	8.62402
3.67458	8.55757
3.67198	8.4604
3.66938	8.44072
3.66678	8.42337
3.66419	8.34865
3.66161	8.34077
3.65902	8.39693
3.65644	8.33379
3.65387	8.15924
3.65129	8.03972
3.64872	8.0186
3.64616	7.99314
3.64359	7.83698
3.64103	7.69507
3.63848	7.70032
3.63593	7.6959
3.63338	7.63102
3.63084	7.67349
3.6283	7.73016
3.62576	7.60556
3.62322	7.49565
3.62069	7.42556
3.61817	7.39616
3.61564	7.35113
3.61312	7.3392
3.61061	7.31239
3.6081	7.30917
3.60559	7.24042
3.60308	7.14788
3.60058	7.14185
3.59808	7.16676
3.59558	7.1199
3.59309	6.99743
3.59061	6.95546
3.58812	6.99096
3.58564	6.95139
3.58316	6.90958
3.58069	6.87471
3.57822	6.73341
3.57575	6.71633
3.57328	6.74845
3.57082	6.63723
3.56836	6.51856
3.56591	6.49436
3.56346	6.47318
3.56101	6.39239
3.55857	6.38444
3.55613	6.43315
3.55369	6.39844
3.55126	6.24614
3.54883	6.24445
3.5464	6.30377
3.54397	6.23015
3.54155	6.15114
3.53914	6.07081
3.53672	6.06952
3.53431	6.10285
3.5319	6.04225
3.5295	5.9001
3.5271	5.83977
3.5247	5.90519
3.52231	5.91145
3.51991	5.81913
3.51753	5.84092
3.51514	5.77475
3.51276	5.65141
3.51038	5.70239
3.50801	5.83229
3.50563	5.87138
3.50327	5.77639
3.5009	5.74159
3.49854	5.74389
3.49618	5.59411
3.49382	5.45023
3.49147	5.41929
3.48912	5.44417
3.48677	5.47215
3.48443	5.48926
3.48209	5.42229
3.47975	5.40576
3.47742	5.32349
3.47509	5.21719
3.47276	5.22016
3.47044	5.28598
3.46812	5.27906
3.4658	5.2023
3.46348	5.20798
3.46117	5.19766
3.45886	5.13074
3.45656	5.12117
3.45425	5.16286
3.45195	5.11809
3.44966	4.96786
3.44736	4.93172
3.44507	4.93794
3.44279	5.01369
3.4405	5.06624
3.43822	5.05352
3.43594	5.00475
3.43367	4.94807
3.43139	4.90482
3.42912	4.85818
3.42686	4.86369
3.42459	4.88235
3.42233	4.84899
3.42007	4.82244
3.41782	4.75768
3.41557	4.70654
3.41332	4.74943
3.41108	4.88553
3.40883	4.83886
3.40659	4.67038
3.40435	4.74616
3.40212	4.74639
3.39989	4.57813
3.39766	4.57745
3.39544	4.61352
3.39322	4.69496
3.391	4.7059
3.38878	4.67898
3.38657	4.69113
3.38436	4.80774
3.38215	4.7858
3.37994	4.6374
3.37774	4.54323
3.37554	4.49991
3.37335	4.60293
3.37115	4.66501
3.36896	4.60189
3.36678	4.52764
3.36459	4.54432
3.36241	4.60247
3.36023	4.57261
3.35805	4.57352
3.35588	4.57934
3.35371	4.50724
3.35154	4.48594
3.34938	4.53808
3.34721	4.63401
3.34505	4.67401
3.3429	4.66194
3.34074	4.56794
3.33859	4.48297
3.33644	4.52457
3.3343	4.59025
3.33215	4.54969
3.33001	4.45284
3.32788	4.41553
3.32574	4.42278
3.32361	4.46551
3.32148	4.58405
3.31936	4.55039
3.31723	4.51277
3.31511	4.53181
3.31299	4.59929
3.31088	4.6863
3.30876	4.68023
3.30665	4.58666
3.30455	4.51372
3.30244	4.544
3.30034	4.57459
3.29824	4.53664
3.29614	4.5478
3.29405	4.54421
3.29196	4.5486
3.28987	4.53981
3.28778	4.56942
3.2857	4.60192
3.28362	4.62067
3.28154	4.58387
3.27946	4.56348
3.27739	4.70366
3.27532	4.77849
3.27325	4.77647
3.27119	4.73773
3.26913	4.71831
3.26707	4.69155
3.26501	4.63866
3.26295	4.70569
3.2609	4.77115
3.25885	4.79565
3.2568	4.82404
3.25476	4.71796
3.25272	4.7267
3.25068	4.74728
3.24864	4.72213
3.24661	4.79798
3.24458	4.9355
3.24255	4.93972
3.24052	4.83378
3.2385	4.71539
3.23648	4.71811
3.23446	4.84014
3.23244	5.02644
3.23043	5.03249
3.22841	4.90218
3.2264	4.90041
3.2244	4.84693
3.22239	4.85443
3.22039	4.88403
3.21839	4.87612
3.2164	4.85575
3.2144	4.92312
3.21241	4.96765
3.21042	4.92737
3.20844	5.02338
3.20645	5.04072
3.20447	4.91203
3.20249	4.92487
3.20051	5.05186
3.19854	5.10054
3.19657	5.08418
3.1946	5.11074
3.19263	5.08602
3.19067	5.1242
3.1887	5.12159
3.18674	5.04732
3.18479	5.15578
3.18283	5.23112
3.18088	5.22556
3.17893	5.25719
3.17698	5.18238
3.17504	5.16262
3.17309	5.15216
3.17115	5.1989
3.16921	5.24748
3.16728	5.129
3.16534	5.16039
3.16341	5.23694
3.16148	5.32066
3.15956	5.38411
3.15763	5.29822
3.15571	5.29339
3.15379	5.39923
3.15187	5.39159
3.14996	5.3735
3.14805	5.41689
3.14614	5.36116
3.14423	5.27476
3.14232	5.26391
3.14042	5.40826
3.13852	5.44013
3.13662	5.3772
3.13472	5.42315
3.13283	5.43558
3.13094	5.33287
3.12905	5.27465
3.12716	5.3486
3.12528	5.36637
3.12339	5.3812
3.12151	5.33154
3.11964	5.27402
3.11776	5.29598
3.11589	5.23601
3.11401	5.16364
3.11214	5.17462
3.11028	5.16954
3.10841	5.14477
3.10655	5.12144
3.10469	5.1969
3.10283	5.27041
3.10098	5.22608
3.09912	5.20526
3.09727	5.16105
3.09542	5.14637
3.09358	5.11449
3.09173	5.08627
3.08989	5.02047
3.08805	5.02424
3.08621	4.98205
3.08437	4.88637
3.08254	4.75583
3.08071	4.71974
3.07888	4.79504
3.07705	4.89377
3.07523	4.84181
3.0734	4.69875
3.07158	4.60003
3.06977	4.61917
3.06795	4.65182
3.06613	4.70591
3.06432	4.63292
3.06251	4.48364
3.0607	4.39216
3.0589	4.36654
3.0571	4.30628
3.05529	4.24593
3.05349	4.15833
3.0517	4.08973
3.0499	4.17281
3.04811	4.22821
3.04632	4.21266
3.04453	4.18466
3.04274	4.06265
3.04096	3.94777
3.03918	3.8843
3.0374	3.90738
3.03562	3.88232
3.03384	3.82454
3.03207	3.82282
3.03029	3.70124
3.02852	3.67383
3.02676	3.69076
3.02499	3.55153
3.02323	3.50449
3.02146	3.45165
3.0197	3.36199
3.01795	3.35436
3.01619	3.37869
3.01444	3.37025
3.01269	3.29842
3.01094	3.25382
3.00919	3.07593
3.00744	2.93734
3.0057	2.97065
3.00396	2.96171
3.00222	2.92069
3.00048	2.77005
2.99875	2.72444
2.99701	2.6948
2.99528	2.74165
2.99355	2.73229
2.99183	2.6421
2.9901	2.53209
2.98838	2.48475
2.98666	2.52589
2.98494	2.46551
2.98322	2.38607
2.9815	2.29129
2.97979	2.17313
2.97808	2.23022
2.97637	2.30356
2.97466	2.22955
2.97295	2.34128
2.97125	2.37852
2.96955	2.28036
2.96785	2.18337
2.96615	2.10222
2.96446	2.05824
2.96276	2.07114
2.96107	2.18877
2.95938	2.28809
2.95769	2.34576
2.95601	2.23715
2.95432	2.28554
2.95264	2.39495
2.95096	2.40044
2.94928	2.35078
2.9476	2.50888
2.94593	2.65757
2.94425	2.58207
2.94258	2.49489
2.94092	2.44336
2.93925	2.64868
2.93758	2.86361
2.93592	2.8575
2.93426	2.81485
2.9326	2.93404
2.93094	3.10415
2.92928	3.16473
2.92763	3.14824
2.92598	3.25015
2.92433	3.33068
2.92268	3.37874
2.92103	3.33182
2.91939	3.34615
2.91775	3.45342
2.9161	3.4963
2.91447	3.61953
2.91283	3.71705
2.91119	3.69136
2.90956	3.65893
2.90793	3.73004
2.9063	4.0371
2.90467	4.30171
2.90304	4.32684
2.90142	4.35625
2.89979	4.57975
2.89817	4.82413
2.89656	4.66547
2.89494	4.64324
2.89332	4.86507
2.89171	5.08898
2.8901	5.20002
2.88849	5.17237
2.88688	5.35129
2.88527	5.44656
2.88367	5.66568
2.88206	5.91181
2.88046	6.06564
2.87886	6.03156
2.87727	6.18265
2.87567	6.44499
2.87408	6.57703
2.87248	6.73864
2.87089	6.9324
2.8693	7.09455
2.86772	7.31375
2.86613	7.48777
2.86455	7.60965
2.86297	7.80393
2.86139	7.97617
2.85981	8.19877
2.85823	8.36094
2.85666	8.5562
2.85508	8.93327
2.85351	9.1525
2.85194	9.28224
2.85038	9.5387
2.84881	9.72479
2.84724	9.92281
2.84568	10.1417
2.84412	10.5009
2.84256	10.82
2.841	11.0067
2.83945	11.1934
2.83789	11.3959
2.83634	11.6855
2.83479	11.931
2.83324	12.0606
2.83169	12.4583
2.83015	12.8079
2.82861	13.0604
2.82706	13.3047
2.82552	13.6029
2.82398	13.8988
2.82245	14.0733
2.82091	14.2935
2.81938	14.6397
2.81784	14.9364
2.81631	15.2464
2.81479	15.4751
2.81326	15.6533
2.81173	15.9568
2.81021	16.3816
2.80869	16.7426
2.80716	16.9207
2.80565	17.1864
2.80413	17.4352
2.80261	17.6814
2.8011	17.9372
2.79959	18.1857
2.79808	18.527
2.79657	18.9975
2.79506	19.3855
2.79355	19.6568
2.79205	19.9048
2.79055	20.1417
2.78904	20.3578
2.78754	20.8689
2.78605	21.2962
2.78455	21.5972
2.78306	21.9862
2.78156	22.0991
2.78007	22.3862
2.77858	22.8041
2.77709	23.0897
2.77561	23.3961
2.77412	23.7248
2.77264	24.0609
2.77116	24.5329
2.76968	24.9219
2.7682	25.212
2.76672	25.4626
2.76524	25.7393
2.76377	26.1993
2.7623	26.6533
2.76083	26.8084
2.75936	26.9879
2.75789	27.3342
2.75642	27.7637
2.75496	28.1641
2.7535	28.4308
2.75203	28.7884
2.75057	28.9707
2.74912	29.3533
2.74766	29.73
2.7462	30.0356
2.74475	30.4413
2.7433	30.9193
2.74185	31.4877
2.7404	31.9191
2.73895	32.257
2.7375	32.5469
2.73606	32.8959
2.73462	33.3184
2.73318	33.5642
2.73174	33.9664
2.7303	34.386
2.72886	34.8218
2.72742	35.2583
2.72599	35.7609
2.72456	36.2326
2.72313	36.3567
2.7217	36.6224
2.72027	37.0277
2.71884	37.155
2.71742	37.346
2.71599	37.547
2.71457	37.769
2.71315	37.9701
2.71173	38.3318
2.71032	38.5759
2.7089	38.592
2.70748	38.5995
2.70607	38.8728
2.70466	39.0986
2.70325	39.2635
2.70184	39.4472
2.70043	39.6654
2.69903	39.7017
2.69762	39.7529
2.69622	39.9614
2.69482	40.2004
2.69342	40.3064
2.69202	40.1951
2.69062	40.2068
2.68923	40.2338
2.68783	40.2111
2.68644	40.2645
2.68505	40.4054
2.68366	40.544
2.68227	40.5207
2.68089	40.5549
2.6795	40.7135
2.67812	40.7525
2.67673	40.7292
2.67535	40.5905
2.67397	40.5191
2.6726	40.5889
2.67122	41.1202
2.66984	41.2076
2.66847	40.7525
2.6671	40.7881
2.66572	40.7673
2.66435	40.5305
2.66299	40.363
2.66162	40.4391
2.66025	40.4601
2.65889	40.4423
2.65753	40.2143
2.65616	40.0657
2.65481	39.9947
2.65345	40.1485
2.65209	40.2441
2.65073	40.0868
2.64938	39.9842
2.64803	39.8889
2.64667	39.9288
2.64532	40.0407
2.64397	39.9865
2.64263	40.0691
2.64128	40.0782
2.63994	40.0063
2.63859	40.0463
2.63725	40.0586
2.63591	40.0402
2.63457	40.1143
2.63323	40.2129
2.6319	40.4416
2.63056	40.6526
2.62923	40.6171
2.62789	40.6804
2.62656	40.7022
2.62523	40.5084
2.6239	40.5346
2.62258	40.6594
2.62125	41.049
2.61993	41.2455
2.6186	41.1406
2.61728	41.3476
2.61596	41.3948
2.61464	41.2947
2.61332	41.405
2.61201	41.4928
2.61069	41.6588
2.60938	41.8673
2.60807	42.0455
2.60675	42.3298
2.60544	42.5502
2.60414	42.5575
2.60283	42.5446
2.60152	42.4543
2.60022	42.5245
2.59891	42.6918
2.59761	43.0531
2.59631	43.689
2.59501	44.2956
2.59371	44.0574
2.59242	43.6054
2.59112	43.612
2.58983	43.8215
2.58853	44.1384
2.58724	44.5085
2.58595	44.5735
2.58466	44.8106
2.58338	45.0357
2.58209	44.9815
2.5808	45.068
2.57952	45.155
2.57824	45.3923
2.57695	45.6086
2.57567	45.7108
2.5744	46.011
2.57312	46.1909
2.57184	46.1544
2.57057	46.3912
2.56929	46.6205
2.56802	46.6531
2.56675	46.81
2.56548	47.0539
2.56421	47.239
2.56294	47.2358
2.56168	47.3123
2.56041	47.4867
2.55915	47.4831
2.55789	47.5565
2.55662	47.7206
2.55536	47.7672
2.5541	47.8159
2.55285	47.8832
2.55159	47.9055
2.55034	48.0091
2.54908	48.1756
2.54783	48.2297
2.54658	48.3227
2.54533	48.3177
2.54408	48.2679
2.54283	48.3318
2.54159	48.3357
2.54034	48.3395
2.5391	48.4718
2.53785	48.5186
2.53661	48.5865
2.53537	48.5812
2.53413	48.5119
2.53289	48.5162
2.53166	48.5715
2.53042	48.6465
2.52919	48.6105
2.52795	48.5922
2.52672	48.6599
2.52549	48.7323
2.52426	48.6491
2.52303	48.5723
2.52181	48.6862
2.52058	48.73
2.51936	48.8048
2.51813	48.8913
2.51691	48.9175
2.51569	49.0351
2.51447	49.2036
2.51325	49.2448
2.51203	49.1722
2.51082	49.2614
2.5096	49.5392
2.50839	49.6243
2.50717	49.5919
2.50596	49.6332
2.50475	49.7706
2.50354	49.9526
2.50233	50.1319
2.50113	50.2246
2.49992	50.1995
2.49872	50.1218
2.49751	50.2369
2.49631	50.4038
2.49511	50.4816
2.49391	50.5449
2.49271	50.6365
2.49151	50.6759
2.49031	50.7593
2.48912	50.7481
2.48792	50.7749
2.48673	50.7501
2.48554	50.7473
2.48435	50.791
2.48316	50.7928
2.48197	50.8232
2.48078	50.8135
2.4796	50.7751
2.47841	50.7511
2.47723	50.7004
2.47604	50.7097
2.47486	50.7682
2.47368	50.8533
2.4725	50.8573
2.47132	50.8185
2.47014	50.7482
2.46897	50.7607
2.46779	50.8253
2.46662	50.9123
2.46545	50.9304
2.46427	50.9356
2.4631	50.874
2.46193	50.9019
2.46077	51.0763
2.4596	51.2508
2.45843	51.2194
2.45727	51.2577
2.4561	51.3209
2.45494	51.3543
2.45378	51.4181
2.45262	51.5956
2.45146	51.7496
2.4503	51.7698
2.44914	51.6968
2.44799	51.6963
2.44683	51.766
2.44568	51.837
2.44452	51.9779
2.44337	51.9834
2.44222	52.0536
2.44107	52.2121
2.43992	52.2545
2.43877	52.2712
2.43763	52.4332
2.43648	52.6333
2.43534	52.727
2.43419	52.8275
2.43305	52.8235
2.43191	52.9234
2.43077	53.0035
2.42963	53.1159
2.42849	53.2135
2.42736	53.3656
2.42622	53.4887
2.42509	53.4576
2.42395	53.4586
2.42282	53.5058
2.42169	53.514
2.42056	53.627
2.41943	53.6927
2.4183	53.6789
2.41717	53.7962
2.41605	53.8983
2.41492	53.9419
2.4138	54.1575
2.41267	54.3655
2.41155	54.3951
2.41043	54.4099
2.40931	54.385
2.40819	54.5744
2.40707	54.6368
2.40595	54.716
2.40484	54.8437
2.40372	54.763
2.40261	54.8729
2.4015	55.0567
2.40039	55.1734
2.39928	55.3309
2.39817	55.4881
2.39706	55.6004
2.39595	55.6908
2.39484	55.7688
2.39374	55.8288
2.39263	55.904
2.39153	56.0392
2.39043	55.9617
2.38932	56.0275
2.38822	56.1931
2.38712	56.3014
2.38603	56.5033
2.38493	56.6745
2.38383	56.7523
2.38274	56.7504
2.38164	56.8723
2.38055	56.9958
2.37946	57.1379
2.37836	57.2679
2.37727	57.3271
2.37618	57.2999
2.3751	57.2988
2.37401	57.4501
2.37292	57.6501
2.37184	57.738
2.37075	57.9031
2.36967	58.0815
2.36859	58.1641
2.3675	58.1681
2.36642	58.0754
2.36534	58.0577
2.36427	58.1777
2.36319	58.3711
2.36211	58.4428
2.36104	58.5068
2.35996	58.6941
2.35889	58.789
2.35781	58.716
2.35674	58.7127
2.35567	58.7528
2.3546	58.8585
2.35353	58.9176
2.35247	58.8241
2.3514	58.7512
2.35033	58.8634
2.34927	58.9864
2.3482	59.0504
2.34714	59.0592
2.34608	59.0341
2.34502	58.9088
2.34396	58.7327
2.3429	58.7014
2.34184	58.8042
2.34078	58.8116
2.33973	58.6789
2.33867	58.6419
2.33762	58.6409
2.33656	58.547
2.33551	58.4941
2.33446	58.3614
2.33341	58.2424
2.33236	58.2185
2.33131	58.094
2.33026	58.0644
2.32922	57.9476
2.32817	57.8501
2.32712	57.8655
2.32608	57.7567
2.32504	57.4445
2.324	57.2992
2.32295	57.2518
2.32191	57.1642
2.32087	56.9685
2.31984	56.8372
2.3188	56.6724
2.31776	56.562
2.31673	56.4566
2.31569	56.3288
2.31466	56.281
2.31362	56.1042
2.31259	56.002
2.31156	55.9448
2.31053	55.9227
2.3095	55.8123
2.30847	55.8028
2.30745	55.7921
2.30642	55.6286
2.3054	55.278
2.30437	55.1624
2.30335	55.0675
2.30232	54.9848
2.3013	54.9351
2.30028	54.755
2.29926	54.7438
2.29824	54.6912
2.29722	54.594
2.29621	54.5368
2.29519	54.4263
2.29417	54.3732
2.29316	54.3408
2.29215	54.3934
2.29113	54.221
2.29012	54.1051
2.28911	54.1126
2.2881	54.0638
2.28709	53.9744
2.28608	53.9878
2.28507	54.0167
2.28407	54.005
2.28306	53.956
2.28206	53.9954
2.28105	54.0371
2.28005	54.11
2.27905	54.1611
2.27805	54.0844
2.27705	54.0811
2.27605	54.2461
2.27505	54.4427
2.27405	54.5659
2.27305	54.5912
2.27206	54.6422
2.27106	54.8865
2.27007	55.0249
2.26907	55.0437
2.26808	55.1548
2.26709	55.375
2.2661	55.5279
2.26511	55.7592
2.26412	55.8675
2.26313	56.0046
2.26214	56.3109
2.26116	56.4805
2.26017	56.5201
2.25919	56.8336
2.2582	57.0326
2.25722	57.1477
2.25624	57.2295
2.25526	57.3319
2.25428	57.3898
2.2533	57.4251
2.25232	57.6279
2.25134	57.857
2.25036	57.9133
2.24939	58.0531
2.24841	58.4241
2.24744	58.5062
2.24646	58.3638
2.24549	58.4782
2.24452	58.5541
2.24355	58.6213
2.24257	58.761
2.24161	58.9754
2.24064	59.1845
2.23967	59.3489
2.2387	59.4094
2.23774	59.4787
2.23677	59.713
2.23581	59.8196
2.23484	59.9391
2.23388	60.0868
2.23292	60.2118
2.23196	60.3722
2.231	60.4608
2.23004	60.5837
2.22908	60.7445
2.22812	60.8669
2.22716	60.9842
2.22621	60.9433
2.22525	61.1276
2.2243	61.3539
2.22334	61.5807
2.22239	61.5846
2.22144	61.4756
2.22049	61.425
2.21953	61.479
2.21859	61.537
2.21764	61.6489
2.21669	61.8061
2.21574	61.8404
2.21479	61.9559
2.21385	62.1034
2.2129	62.2148
2.21196	62.1562
2.21102	62.0778
2.21007	62.1176
2.20913	62.2014
2.20819	62.3929
2.20725	62.4497
2.20631	62.4849
2.20537	62.6645
2.20444	62.7512
2.2035	62.7693
2.20256	62.8137
2.20163	62.8778
2.20069	63.0144
2.19976	63.1323
2.19883	63.2743
2.19789	63.2736
2.19696	63.3079
2.19603	63.36
2.1951	63.4854
2.19417	63.6603
2.19325	63.6732
2.19232	63.5977
2.19139	63.6938
2.19047	63.8483
2.18954	64.0173
2.18862	64.0671
2.18769	64.1031
2.18677	64.1457
2.18585	64.2905
2.18493	64.3628
2.18401	64.4604
2.18309	64.5923
2.18217	64.552
2.18125	64.4602
2.18033	64.465
2.17942	64.4879
2.1785	64.6234
2.17759	64.9412
2.17667	65.0455
2.17576	65.0086
2.17485	65.0497
2.17393	65.0722
2.17302	65.24
2.17211	65.2413
2.1712	65.2881
2.17029	65.2412
2.16939	65.0884
2.16848	65.1502
2.16757	65.2842
2.16667	65.4597
2.16576	65.5856
2.16486	65.6632
2.16395	65.7023
2.16305	65.7559
2.16215	65.7633
2.16125	65.7549
2.16035	65.8719
2.15945	65.8295
2.15855	65.8265
2.15765	65.9058
2.15675	65.8386
2.15586	65.8526
2.15496	66.0909
2.15406	66.2537
2.15317	66.1914
2.15228	66.2184
2.15138	66.3273
2.15049	66.3238
2.1496	66.177
2.14871	66.2169
2.14782	66.3641
2.14693	66.3737
2.14604	66.5706
2.14515	66.6506
2.14427	66.5019
2.14338	66.5554
2.14249	66.563
2.14161	66.5693
2.14072	66.7001
2.13984	66.8088
2.13896	66.8289
2.13808	66.7358
2.13719	66.6468
2.13631	66.7833
2.13543	66.8365
2.13455	66.9552
2.13368	66.9235
2.1328	66.8513
2.13192	67.0122
2.13105	67.2284
2.13017	67.2031
2.1293	66.9737
2.12842	66.9939
2.12755	67.1865
2.12668	67.3201
2.1258	67.2897
2.12493	67.0884
2.12406	67.0478
2.12319	67.1938
2.12232	67.2968
2.12145	67.3501
2.12059	67.4701
2.11972	67.555
2.11885	67.2947
2.11799	67.1061
2.11712	67.3219
2.11626	67.5362
2.1154	67.5935
2.11453	67.6625
2.11367	67.7188
2.11281	67.807
2.11195	67.715
2.11109	67.6584
2.11023	67.6819
2.10937	67.7271
2.10851	67.9641
2.10766	68.0924
2.1068	68.0822
2.10594	67.9655
2.10509	68.0361
2.10423	68.1127
2.10338	68.0143
2.10253	67.8547
2.10168	67.8025
2.10082	67.9251
2.09997	67.994
2.09912	68.0332
2.09827	68.1512
2.09742	68.257
2.09658	68.366
2.09573	68.3816
2.09488	68.3533
2.09404	68.3635
2.09319	68.4037
2.09235	68.3424
2.0915	68.3261
2.09066	68.3229
2.08982	68.2822
2.08897	68.3915
2.08813	68.6805
2.08729	68.6301
2.08645	68.4426
2.08561	68.3617
2.08477	68.3094
2.08394	68.4045
2.0831	68.5656
2.08226	68.5087
2.08143	68.5958
2.08059	68.8654
2.07976	69.101
2.07892	68.924
2.07809	68.7787
2.07726	68.6786
2.07643	68.7341
2.07559	68.8679
2.07476	68.7934
2.07393	68.7803
2.0731	68.8153
2.07228	68.9699
2.07145	69.1119
2.07062	68.8143
2.06979	68.9369
2.06897	68.9729
2.06814	69.0865
2.06732	69.1887
2.06649	69.1051
2.06567	69.0974
2.06485	68.8412
2.06403	68.7326
2.0632	68.9104
2.06238	68.9864
2.06156	68.9818
2.06074	68.9839
2.05993	69.0982
2.05911	69.1477
2.05829	69.1851
2.05747	69.3742
2.05666	69.3066
2.05584	68.9995
2.05503	68.9848
2.05421	69.0747
2.0534	69.1943
2.05259	69.1984
2.05177	69.2338
2.05096	69.3036
2.05015	69.3667
2.04934	69.4747
2.04853	69.4924
2.04772	69.2873
2.04691	69.0521
2.04611	69.0757
2.0453	69.2253
2.04449	69.3331
2.04369	69.2195
2.04288	69.3423
2.04208	69.398
2.04127	69.2779
2.04047	69.3573
2.03967	69.3631
2.03886	69.3798
2.03806	69.3882
2.03726	69.2487
2.03646	69.3755
2.03566	69.491
2.03486	69.3038
2.03407	69.2472
2.03327	69.4257
2.03247	69.4866
2.03167	69.6684
2.03088	69.6443
2.03008	69.4513
2.02929	69.6082
2.0285	69.7333
2.0277	69.6111
2.02691	69.4347
2.02612	69.3853
2.02533	69.5066
2.02453	69.617
2.02374	69.553
2.02295	69.5135
2.02217	69.4941
2.02138	69.4141
2.02059	69.4971
2.0198	69.6902
2.01902	69.7781
2.01823	69.9257
2.01744	69.8497
2.01666	69.6785
2.01588	69.7726
2.01509	69.7496
2.01431	69.8555
2.01353	69.7743
2.01275	69.6272
2.01196	69.5877
2.01118	69.5969
2.0104	69.6359
2.00963	69.8457
2.00885	69.9999
2.00807	69.9078
2.00729	69.8589
2.00651	69.8022
2.00574	69.7659
2.00496	69.828
2.00419	70.0481
2.00341	70.082
2.00264	69.8353
2.00187	69.6399
2.00109	69.6947
2.00032	69.7614
