Name: Johannsenite Ca(Mn,Fe^2+)(SiO_3)_2
Type: Mineral
Class: Silicates
Subclass: Inosilicates
Particle Size: 125-500um
Sample No.: IN-12A
Owner: JPL
Wavelength range: IR
Origin: USA, Arizona, Graham County, Aravaipa
Collected by Burminco
Description: 





Measurement: Hemispherical reflectance
First Column: X
Second Column: Y
X Units:  Wavelength (micrometers)
Y Units:  Reflectance (percent)
First X Value: 15.3853
Last X Value: 2.00032
Number of X Values: 2256
Additional information: in12aa.txt
 
15.3853	2.42391
15.3397	2.6167
15.2945	2.79843
15.2495	2.64443
15.2048	2.34412
15.1603	2.44039
15.1161	2.5939
15.0722	2.79117
15.0285	2.83888
14.9851	2.86609
14.9419	2.57912
14.8989	2.25488
14.8563	2.14279
14.8138	2.36631
14.7716	2.35526
14.7296	2.26464
14.6879	2.37983
14.6464	2.61314
14.6052	2.60565
14.5641	2.4513
14.5233	2.48157
14.4828	2.46208
14.4424	2.4165
14.4023	2.57511
14.3624	2.72911
14.3227	2.75419
14.2833	2.59021
14.244	2.58922
14.205	2.70036
14.1662	2.70239
14.1276	2.7484
14.0892	2.83678
14.051	2.79944
14.0131	2.84383
13.9753	2.72285
13.9377	2.55725
13.9004	2.67387
13.8632	3.02051
13.8262	3.11029
13.7895	3.1048
13.7529	3.15459
13.7165	3.24186
13.6803	3.10332
13.6443	3.0951
13.6085	3.06185
13.5729	3.10878
13.5374	3.38202
13.5022	3.39471
13.4671	3.35922
13.4322	3.36861
13.3975	3.51219
13.363	3.56624
13.3286	3.53766
13.2944	3.73103
13.2604	3.85094
13.2266	3.85922
13.193	3.77392
13.1595	3.70721
13.1262	3.78987
13.093	3.85842
13.06	3.91848
13.0272	4.04673
12.9946	4.11137
12.9621	4.05287
12.9298	4.03552
12.8976	4.20538
12.8656	4.36186
12.8337	4.40193
12.8021	4.50691
12.7705	4.57694
12.7391	4.50581
12.7079	4.46131
12.6769	4.49086
12.6459	4.65598
12.6152	4.67232
12.5845	4.61071
12.5541	4.72333
12.5238	4.83937
12.4936	5.00774
12.4635	4.98447
12.4337	4.98487
12.4039	5.06833
12.3743	5.08524
12.3448	5.30287
12.3155	5.43635
12.2863	5.46864
12.2573	5.46139
12.2284	5.46352
12.1996	5.49468
12.171	5.71135
12.1425	5.94222
12.1141	6.11344
12.0859	6.22451
12.0578	6.48434
12.0298	6.70603
12.0019	6.75059
11.9742	7.00761
11.9466	7.47038
11.9192	7.77422
11.8918	8.15289
11.8646	8.78521
11.8375	9.49851
11.8106	10.0025
11.7837	10.4328
11.757	10.8637
11.7304	11.1899
11.7039	11.5032
11.6776	11.6868
11.6513	11.6266
11.6252	11.6762
11.5992	11.7723
11.5733	11.7473
11.5475	11.6889
11.5219	11.799
11.4963	11.8516
11.4709	11.7698
11.4455	11.8076
11.4203	11.8782
11.3952	12.004
11.3702	12.0938
11.3454	12.1181
11.3206	12.033
11.2959	11.8873
11.2714	11.6824
11.2469	11.549
11.2226	11.473
11.1983	11.4712
11.1742	11.3513
11.1502	11.3489
11.1263	11.431
11.1024	11.4361
11.0787	11.3986
11.0551	11.3932
11.0316	11.4741
11.0081	11.5268
10.9848	11.4214
10.9616	11.2616
10.9385	11.1804
10.9154	10.91
10.8925	10.4618
10.8697	9.92465
10.8469	9.27467
10.8243	8.79899
10.8017	8.56789
10.7793	8.33081
10.7569	8.24175
10.7346	8.29218
10.7125	8.3958
10.6904	8.68751
10.6684	8.84657
10.6465	8.83948
10.6247	8.85498
10.6029	9.09043
10.5813	9.35043
10.5597	9.41313
10.5383	9.43603
10.5169	9.4118
10.4956	9.28011
10.4744	9.19014
10.4533	9.02133
10.4323	8.53549
10.4113	8.01654
10.3904	7.58817
10.3697	7.26693
10.349	6.93949
10.3284	6.53909
10.3078	6.01759
10.2874	5.59074
10.267	5.07263
10.2467	4.64582
10.2265	4.43934
10.2064	4.36059
10.1863	4.40964
10.1663	4.44508
10.1464	4.46633
10.1266	4.66913
10.1069	4.81013
10.0872	4.90775
10.0676	5.04133
10.0481	5.21061
10.0287	5.35537
10.0093	5.39239
9.99005	5.46093
9.97084	5.67047
9.95169	5.66365
9.93263	5.59141
9.91364	5.56271
9.89472	5.42049
9.87587	5.3963
9.8571	5.54061
9.83839	5.60731
9.81976	5.75029
9.80119	5.90251
9.78271	5.95575
9.76428	6.1402
9.74592	6.2979
9.72764	6.38058
9.70943	6.50062
9.69128	6.65045
9.6732	6.71206
9.65518	6.87888
9.63724	6.94949
9.61935	7.08099
9.60155	7.49611
9.5838	7.87641
9.56611	8.15822
9.5485	8.3861
9.53094	8.75902
9.51345	9.12444
9.49604	9.41771
9.47867	9.75497
9.46137	10.175
9.44414	10.508
9.42697	10.6847
9.40986	10.7819
9.39281	10.8758
9.37583	11.0433
9.35891	11.0136
9.34204	10.9636
9.32524	10.9387
9.3085	10.8189
9.29182	10.7551
9.27519	10.6957
9.25863	10.7205
9.24213	10.7543
9.22568	10.8111
9.2093	10.7188
9.19297	10.6839
9.17669	10.6274
9.16048	10.5819
9.14433	10.7132
9.12823	10.7391
9.11218	10.6025
9.0962	10.5313
9.08027	10.5652
9.06439	10.5841
9.04858	10.5486
9.03281	10.455
9.0171	10.3769
9.00145	10.2911
8.98585	10.2725
8.9703	10.154
8.9548	9.72849
8.93937	9.19271
8.92398	8.67228
8.90865	8.18267
8.89337	7.67605
8.87814	7.18547
8.86296	6.7642
8.84784	6.44947
8.83277	6.0661
8.81774	5.57468
8.80277	5.30145
8.78786	5.09572
8.77298	4.65304
8.75816	4.17654
8.7434	3.99173
8.72868	3.88814
8.714	3.66683
8.69938	3.48569
8.68481	3.38598
8.67029	3.33634
8.65581	3.29314
8.64139	3.11556
8.62701	2.91898
8.61268	2.75843
8.5984	2.81567
8.58416	2.88428
8.56997	2.7963
8.55583	2.83743
8.54174	2.93558
8.52769	2.95549
8.51368	2.90438
8.49973	2.90514
8.48582	2.82514
8.47195	2.85647
8.45813	2.82907
8.44436	2.70957
8.43062	2.6527
8.41693	2.64782
8.4033	2.68121
8.3897	2.75749
8.37614	2.72774
8.36264	2.64482
8.34917	2.65847
8.33574	2.6667
8.32236	2.64852
8.30903	2.59755
8.29573	2.62502
8.28248	2.77664
8.26927	2.76114
8.2561	2.61952
8.24298	2.51529
8.2299	2.50932
8.21685	2.60684
8.20385	2.59041
8.19089	2.49746
8.17797	2.44994
8.16509	2.56769
8.15225	2.69761
8.13946	2.71861
8.1267	2.6618
8.11398	2.59367
8.10131	2.55933
8.08867	2.50782
8.07606	2.51674
8.0635	2.59753
8.05099	2.62479
8.0385	2.47703
8.02606	2.43287
8.01366	2.5475
8.00129	2.5809
7.98896	2.59382
7.97667	2.58646
7.96442	2.53128
7.9522	2.62764
7.94002	2.65686
7.92788	2.59752
7.91578	2.66996
7.90371	2.78944
7.89168	2.77933
7.87969	2.81541
7.86773	2.87667
7.85581	2.8334
7.84392	2.80626
7.83207	2.85107
7.82026	2.91618
7.80849	2.88873
7.79674	2.90917
7.78503	2.96933
7.77337	2.93686
7.76173	2.83597
7.75012	2.84086
7.73856	2.95293
7.72703	3.08404
7.71553	3.1029
7.70406	3.05976
7.69263	3.07337
7.68123	3.1277
7.66987	3.148
7.65855	3.11257
7.64725	3.11093
7.63598	3.06181
7.62475	3.03064
7.61356	3.09898
7.60239	3.06584
7.59126	3.0426
7.58017	3.07273
7.5691	3.11178
7.55806	3.13506
7.54707	3.10809
7.5361	3.20693
7.52516	3.32854
7.51425	3.33472
7.50338	3.3141
7.49253	3.29464
7.48172	3.27693
7.47094	3.31709
7.46019	3.36066
7.44947	3.34831
7.43879	3.46743
7.42813	3.54036
7.4175	3.49813
7.4069	3.49288
7.39634	3.52983
7.3858	3.47095
7.37529	3.40828
7.36482	3.40691
7.35437	3.39297
7.34396	3.47765
7.33357	3.61536
7.32321	3.65243
7.31288	3.53716
7.30258	3.44577
7.29231	3.46489
7.28207	3.49526
7.27185	3.52446
7.26167	3.65438
7.25152	3.7454
7.24139	3.71414
7.23129	3.74245
7.22122	3.87022
7.21117	3.78693
7.20116	3.79686
7.19117	3.94866
7.18121	3.98218
7.17128	3.94534
7.16137	3.95615
7.1515	4.03884
7.14164	4.08387
7.13182	4.07672
7.12203	4.07499
7.11225	4.12941
7.10251	4.14935
7.0928	4.11628
7.08311	4.11641
7.07344	4.13305
7.06381	4.13674
7.0542	4.13667
7.04461	4.15616
7.03506	4.11001
7.02552	4.13935
7.01601	4.05481
7.00653	4.04338
6.99708	4.06539
6.98765	4.09251
6.97824	4.12623
6.96886	4.00163
6.95951	3.9605
6.95018	4.08998
6.94087	4.15479
6.9316	4.08934
6.92234	3.98639
6.91311	4.07007
6.90391	4.18544
6.89473	4.12781
6.88557	4.00718
6.87644	3.95653
6.86733	4.02554
6.85824	4.11091
6.84918	4.10158
6.84015	4.03076
6.83114	3.97512
6.82215	4.01122
6.81319	4.06821
6.80424	4.00062
6.79532	3.92888
6.78643	3.96632
6.77756	3.95975
6.76871	3.91114
6.75989	3.91435
6.75109	3.98703
6.74231	4.04997
6.73355	4.0341
6.72482	3.97571
6.71611	3.95159
6.70742	4.05723
6.69875	4.1015
6.69011	4.12014
6.68149	4.14702
6.67289	4.18856
6.66431	4.08649
6.65576	4.06993
6.64722	4.18561
6.63871	4.14167
6.63022	4.12349
6.62175	4.22628
6.61331	4.24748
6.60488	4.16956
6.59648	4.16818
6.5881	4.2193
6.57974	4.17147
6.5714	4.13833
6.56308	4.11534
6.55478	4.07959
6.54651	4.12877
6.53825	4.155
6.53001	4.08181
6.5218	4.01733
6.51361	4.06651
6.50544	4.11031
6.49729	4.05646
6.48915	4.0896
6.48104	4.14793
6.47295	4.15492
6.46488	4.12103
6.45683	4.08716
6.4488	4.05305
6.44079	3.99777
6.4328	3.90134
6.42482	3.76
6.41687	3.6768
6.40894	3.69241
6.40103	3.58633
6.39314	3.42808
6.38526	3.37111
6.37741	3.39107
6.36957	3.34422
6.36176	3.2448
6.35396	3.24883
6.34618	3.24705
6.33843	3.13788
6.33069	3.07818
6.32297	3.07367
6.31527	3.07963
6.30758	3.14583
6.29992	3.14485
6.29227	3.07957
6.28465	3.11048
6.27704	3.09133
6.26945	3.03198
6.26188	3.00899
6.25432	3.03998
6.24679	3.05866
6.23927	2.85131
6.23177	2.68117
6.22429	2.72425
6.21683	2.78561
6.20938	2.81667
6.20195	2.71069
6.19454	2.51809
6.18715	2.48428
6.17978	2.49237
6.17242	2.53193
6.16508	2.57811
6.15776	2.54741
6.15045	2.59094
6.14317	2.59365
6.1359	2.45659
6.12864	2.41582
6.12141	2.49926
6.11419	2.47131
6.10699	2.42288
6.0998	2.43515
6.09263	2.46947
6.08549	2.53589
6.07835	2.51983
6.07123	2.43896
6.06413	2.5092
6.05705	2.51538
6.04998	2.55017
6.04293	2.65533
6.0359	2.67594
6.02888	2.67098
6.02187	2.71407
6.01489	2.79774
6.00792	2.93359
6.00096	2.94981
5.99403	2.94733
5.98711	2.98468
5.9802	3.00192
5.97331	3.05552
5.96644	3.20667
5.95958	3.35534
5.95274	3.40445
5.94591	3.44681
5.9391	3.54593
5.9323	3.62276
5.92552	3.7018
5.91876	3.79973
5.91201	3.90427
5.90528	4.06133
5.89856	4.16309
5.89186	4.23354
5.88517	4.36523
5.8785	4.44654
5.87184	4.49365
5.8652	4.6735
5.85857	4.79808
5.85196	4.89184
5.84536	5.03588
5.83878	5.20806
5.83221	5.2282
5.82566	5.30054
5.81912	5.41474
5.81259	5.52261
5.80608	5.63513
5.79959	5.68004
5.79311	5.7903
5.78665	5.9271
5.78019	5.99303
5.77376	6.07903
5.76734	6.14045
5.76093	6.19828
5.75453	6.27253
5.74815	6.37191
5.74179	6.41898
5.73543	6.42568
5.7291	6.56685
5.72277	6.65996
5.71646	6.67261
5.71017	6.72046
5.70389	6.73684
5.69762	6.83669
5.69136	6.92857
5.68513	6.9376
5.6789	6.94114
5.67268	6.9757
5.66648	6.97158
5.6603	6.94398
5.65413	6.97465
5.64797	7.07776
5.64182	7.00244
5.63569	6.86915
5.62957	6.89539
5.62347	6.85607
5.61737	6.73955
5.61129	6.68559
5.60522	6.65514
5.59917	6.65511
5.59313	6.52322
5.5871	6.35533
5.58109	6.3212
5.57509	6.27716
5.5691	6.21557
5.56312	6.22397
5.55716	6.25726
5.55121	6.31612
5.54528	6.39541
5.53935	6.46551
5.53344	6.54083
5.52754	6.60046
5.52166	6.57348
5.51578	6.46145
5.50992	6.47929
5.50407	6.5325
5.49823	6.53651
5.49241	6.4942
5.4866	6.34903
5.4808	6.26336
5.47501	6.1776
5.46923	6.1151
5.46347	6.07187
5.45772	6.00386
5.45198	5.99638
5.44625	6.08505
5.44054	6.0808
5.43484	6.00814
5.42914	5.98696
5.42347	5.9286
5.4178	5.88308
5.41214	5.86943
5.4065	5.87239
5.40087	5.89197
5.39525	5.80813
5.38964	5.73159
5.38404	5.656
5.37846	5.56678
5.37288	5.51558
5.36732	5.50309
5.36177	5.49262
5.35623	5.57292
5.35071	5.59007
5.34519	5.50068
5.33968	5.483
5.33419	5.51061
5.32871	5.53958
5.32324	5.51221
5.31778	5.53051
5.31233	5.65677
5.30689	5.73929
5.30147	5.80103
5.29605	5.82608
5.29065	5.81661
5.28525	5.85025
5.27987	5.9575
5.2745	5.90017
5.26914	5.82822
5.26379	5.92347
5.25845	6.11981
5.25312	6.13132
5.24781	5.96389
5.2425	5.99269
5.23721	6.00309
5.23192	6.0427
5.22665	6.06371
5.22138	5.97031
5.21613	5.90913
5.21089	5.91159
5.20566	5.84287
5.20044	5.77993
5.19522	5.7688
5.19002	5.65393
5.18483	5.55104
5.17965	5.53174
5.17448	5.48738
5.16933	5.4693
5.16418	5.45159
5.15904	5.36707
5.15391	5.33984
5.14879	5.34825
5.14368	5.3779
5.13859	5.37418
5.1335	5.24301
5.12842	5.20684
5.12335	5.23309
5.1183	5.26079
5.11325	5.23151
5.10821	5.10635
5.10318	5.02135
5.09817	5.17042
5.09316	5.3492
5.08816	5.368
5.08317	5.41055
5.07819	5.50111
5.07322	5.59708
5.06826	5.62796
5.06331	5.6038
5.05837	5.6164
5.05344	5.69635
5.04852	5.80967
5.04361	5.81511
5.03871	5.80788
5.03382	5.76487
5.02894	5.79293
5.02406	5.87325
5.0192	5.9556
5.01435	6.03466
5.0095	6.03348
5.00467	5.92859
4.99984	5.83523
4.99502	5.85697
4.99021	5.91933
4.98542	5.92343
4.98063	5.93468
4.97585	5.96196
4.97108	5.96785
4.96632	6.05909
4.96156	6.07
4.95682	6.08645
4.95209	6.13207
4.94736	6.09409
4.94264	6.07921
4.93794	6.12866
4.93324	6.16071
4.92855	6.17281
4.92387	6.15123
4.9192	6.13602
4.91453	6.15908
4.90988	6.24151
4.90524	6.22189
4.9006	6.15332
4.89597	6.22891
4.89135	6.27818
4.88674	6.30782
4.88214	6.32409
4.87755	6.30489
4.87296	6.38753
4.86839	6.43453
4.86382	6.41613
4.85926	6.47368
4.85471	6.49956
4.85017	6.56713
4.84564	6.73054
4.84111	6.81765
4.8366	6.8325
4.83209	6.91221
4.82759	6.97249
4.8231	7.06493
4.81862	7.07688
4.81415	7.12986
4.80968	7.30803
4.80522	7.38058
4.80077	7.36015
4.79633	7.39217
4.7919	7.47408
4.78747	7.5233
4.78306	7.57744
4.77865	7.63856
4.77425	7.70542
4.76986	7.77024
4.76547	7.83895
4.7611	7.94364
4.75673	7.99669
4.75237	8.04495
4.74802	8.08696
4.74367	8.1462
4.73934	8.16777
4.73501	8.19405
4.73069	8.23474
4.72638	8.27907
4.72207	8.3622
4.71777	8.44498
4.71348	8.4336
4.7092	8.33934
4.70493	8.25178
4.70066	8.33744
4.69641	8.39548
4.69216	8.35694
4.68791	8.37599
4.68368	8.46719
4.67945	8.49172
4.67523	8.51604
4.67102	8.58965
4.66682	8.61449
4.66262	8.73247
4.65843	8.86532
4.65425	8.94023
4.65007	8.98115
4.64591	9.06366
4.64175	9.16475
4.6376	9.2145
4.63345	9.31806
4.62932	9.40514
4.62519	9.538
4.62106	9.62092
4.61695	9.68039
4.61284	9.71391
4.60874	9.75714
4.60465	9.81587
4.60056	9.85272
4.59648	9.87277
4.59241	9.98556
4.58835	10.1294
4.58429	10.2051
4.58024	10.2075
4.5762	10.2596
4.57216	10.327
4.56814	10.4447
4.56411	10.4713
4.5601	10.4998
4.55609	10.5663
4.55209	10.6294
4.5481	10.6684
4.54411	10.696
4.54013	10.7573
4.53616	10.8686
4.5322	10.9807
4.52824	10.9729
4.52429	10.9307
4.52034	11.0171
4.51641	11.0772
4.51247	11.0832
4.50855	10.9933
4.50463	10.9347
4.50072	10.9902
4.49682	11.0241
4.49292	11.0757
4.48903	11.1264
4.48515	11.1177
4.48127	11.1227
4.4774	11.209
4.47354	11.2151
4.46968	11.2059
4.46584	11.2583
4.46199	11.2564
4.45815	11.2615
4.45432	11.2735
4.4505	11.341
4.44668	11.4522
4.44287	11.4214
4.43907	11.3771
4.43527	11.4034
4.43148	11.4383
4.4277	11.4272
4.42392	11.3838
4.42015	11.4289
4.41638	11.4829
4.41262	11.4962
4.40887	11.5075
4.40513	11.534
4.40139	11.6382
4.39765	11.7553
4.39393	11.7567
4.39021	11.7159
4.38649	11.6781
4.38278	11.6998
4.37908	11.7891
4.37539	11.7924
4.3717	11.8742
4.36801	12.0025
4.36434	12.0644
4.36067	11.9619
4.357	11.9031
4.35335	11.9681
4.34969	11.9778
4.34605	11.9947
4.34241	12.0621
4.33877	12.0522
4.33514	12.0746
4.33152	12.1037
4.32791	12.1464
4.3243	12.2556
4.32069	12.3227
4.3171	12.3867
4.31351	12.4229
4.30992	12.3757
4.30634	12.3421
4.30277	12.3248
4.2992	12.4538
4.29564	12.553
4.29208	12.4701
4.28853	12.4909
4.28499	12.5615
4.28145	12.5665
4.27792	12.5632
4.27439	12.6064
4.27087	12.6907
4.26735	12.7922
4.26384	12.8412
4.26034	12.7764
4.25684	12.719
4.25335	12.7788
4.24986	12.8493
4.24638	12.8936
4.24291	12.8908
4.23944	12.9127
4.23598	13.0431
4.23252	13.1055
4.22906	13.1131
4.22562	13.1386
4.22218	13.1623
4.21874	13.1518
4.21531	13.2465
4.21189	13.2586
4.20847	13.2291
4.20506	13.2641
4.20165	13.267
4.19825	13.2944
4.19485	13.29
4.19146	13.25
4.18807	13.2517
4.18469	13.2748
4.18132	13.3557
4.17795	13.4754
4.17458	13.6028
4.17123	13.5952
4.16787	13.6036
4.16453	13.572
4.16118	13.5884
4.15785	13.6848
4.15451	13.71
4.15119	13.6765
4.14787	13.5628
4.14455	13.5441
4.14124	13.6638
4.13794	13.6901
4.13464	13.6684
4.13134	13.7196
4.12805	13.7691
4.12477	13.8176
4.12149	13.8498
4.11822	13.8232
4.11495	13.8112
4.11168	13.8284
4.10843	13.7985
4.10517	13.7253
4.10192	13.609
4.09868	13.7149
4.09545	13.8008
4.09221	13.7133
4.08899	13.69
4.08576	13.7281
4.08255	13.7549
4.07933	13.7317
4.07613	13.731
4.07292	13.6335
4.06973	13.6452
4.06654	13.6249
4.06335	13.5107
4.06017	13.4841
4.05699	13.4886
4.05382	13.4892
4.05065	13.4017
4.04749	13.3341
4.04433	13.2718
4.04118	13.1671
4.03803	13.088
4.03489	12.9564
4.03175	12.8682
4.02862	12.7896
4.02549	12.6868
4.02237	12.5848
4.01925	12.5676
4.01614	12.5915
4.01303	12.5233
4.00993	12.4019
4.00683	12.3088
4.00373	12.1597
4.00064	12.1036
3.99756	12.1113
3.99448	12.0118
3.9914	11.8678
3.98833	11.8006
3.98527	11.7028
3.98221	11.6548
3.97915	11.6653
3.9761	11.7
3.97305	11.7079
3.97001	11.6478
3.96697	11.6769
3.96394	11.7758
3.96091	11.8093
3.95789	11.7671
3.95487	11.7895
3.95186	11.8763
3.94885	11.9231
3.94584	12.0572
3.94284	12.1225
3.93984	12.1467
3.93685	12.2518
3.93386	12.3087
3.93088	12.3391
3.9279	12.3691
3.92493	12.3227
3.92196	12.2739
3.919	12.2622
3.91604	12.307
3.91308	12.3032
3.91013	12.3038
3.90718	12.3124
3.90424	12.3302
3.9013	12.2889
3.89837	12.2122
3.89544	12.2319
3.89252	12.2144
3.8896	12.1416
3.88668	12.1105
3.88377	12.1651
3.88086	12.1531
3.87796	12.0513
3.87506	11.9881
3.87217	12.0408
3.86928	11.9932
3.86639	11.9144
3.86351	11.9799
3.86064	12.0173
3.85776	11.9628
3.8549	11.9208
3.85203	11.9159
3.84917	11.8582
3.84631	11.773
3.84346	11.7088
3.84062	11.7334
3.83777	11.7856
3.83494	11.7497
3.8321	11.6557
3.82927	11.7172
3.82644	11.7173
3.82362	11.6101
3.82081	11.5511
3.81799	11.5887
3.81518	11.71
3.81238	11.6816
3.80958	11.5015
3.80678	11.515
3.80399	11.604
3.8012	11.6353
3.79841	11.5992
3.79563	11.6014
3.79286	11.5925
3.79008	11.6334
3.78731	11.6895
3.78455	11.6521
3.78179	11.6046
3.77903	11.5551
3.77628	11.4688
3.77353	11.5389
3.77079	11.5781
3.76805	11.4327
3.76531	11.3026
3.76258	11.2455
3.75985	11.1936
3.75713	11.2314
3.7544	11.1946
3.75169	11.0863
3.74898	11.0383
3.74627	10.974
3.74356	10.9971
3.74086	11.0215
3.73816	10.974
3.73547	10.8381
3.73278	10.7982
3.7301	10.8785
3.72741	10.8395
3.72474	10.7065
3.72206	10.6306
3.71939	10.6417
3.71673	10.5993
3.71406	10.4708
3.71141	10.4437
3.70875	10.4651
3.7061	10.4112
3.70345	10.367
3.70081	10.3036
3.69817	10.182
3.69553	10.0995
3.6929	10.1078
3.69027	10.0808
3.68765	10.0236
3.68503	10.0671
3.68241	10.0756
3.6798	9.90747
3.67719	9.82402
3.67458	9.81642
3.67198	9.88908
3.66938	9.86231
3.66678	9.72219
3.66419	9.67302
3.66161	9.65368
3.65902	9.56044
3.65644	9.41777
3.65387	9.42781
3.65129	9.41235
3.64872	9.40923
3.64616	9.32733
3.64359	9.17867
3.64103	9.1455
3.63848	9.15691
3.63593	9.12941
3.63338	9.0909
3.63084	9.01832
3.6283	8.95863
3.62576	8.94013
3.62322	8.87279
3.62069	8.81158
3.61817	8.86427
3.61564	8.77354
3.61312	8.71844
3.61061	8.73921
3.6081	8.75587
3.60559	8.62346
3.60308	8.42312
3.60058	8.34262
3.59808	8.39518
3.59558	8.44474
3.59309	8.35427
3.59061	8.28177
3.58812	8.22922
3.58564	8.09938
3.58316	8.02245
3.58069	7.96654
3.57822	7.99402
3.57575	8.03667
3.57328	8.02007
3.57082	7.95312
3.56836	7.86715
3.56591	7.83304
3.56346	7.81391
3.56101	7.73726
3.55857	7.61588
3.55613	7.54656
3.55369	7.53456
3.55126	7.47496
3.54883	7.43815
3.5464	7.39604
3.54397	7.31034
3.54155	7.34602
3.53914	7.28784
3.53672	7.22322
3.53431	7.15963
3.5319	7.04543
3.5295	6.9861
3.5271	7.00324
3.5247	7.028
3.52231	6.96397
3.51991	6.90474
3.51753	6.90593
3.51514	6.85843
3.51276	6.73305
3.51038	6.61286
3.50801	6.59387
3.50563	6.58719
3.50327	6.51582
3.5009	6.42107
3.49854	6.4094
3.49618	6.4098
3.49382	6.36499
3.49147	6.36208
3.48912	6.34703
3.48677	6.31157
3.48443	6.35646
3.48209	6.23564
3.47975	6.15081
3.47742	6.21646
3.47509	6.25131
3.47276	6.13917
3.47044	6.05713
3.46812	6.16842
3.4658	6.16125
3.46348	6.09245
3.46117	6.0313
3.45886	6.00089
3.45656	5.99164
3.45425	5.85586
3.45195	5.81564
3.44966	5.9171
3.44736	5.8898
3.44507	5.82232
3.44279	5.85289
3.4405	5.81043
3.43822	5.76046
3.43594	5.76007
3.43367	5.67355
3.43139	5.7076
3.42912	5.81657
3.42686	5.77801
3.42459	5.69496
3.42233	5.61881
3.42007	5.62725
3.41782	5.67249
3.41557	5.63244
3.41332	5.59245
3.41108	5.5392
3.40883	5.48005
3.40659	5.56159
3.40435	5.49037
3.40212	5.30199
3.39989	5.29569
3.39766	5.44171
3.39544	5.42219
3.39322	5.26635
3.391	5.23367
3.38878	5.26216
3.38657	5.3051
3.38436	5.28643
3.38215	5.16729
3.37994	5.15846
3.37774	5.07727
3.37554	5.00562
3.37335	5.06021
3.37115	5.12496
3.36896	5.15468
3.36678	4.97085
3.36459	4.89579
3.36241	4.91348
3.36023	4.90111
3.35805	4.85735
3.35588	4.77479
3.35371	4.87806
3.35154	4.91417
3.34938	4.86817
3.34721	4.88298
3.34505	4.89374
3.3429	4.87901
3.34074	4.85242
3.33859	4.94377
3.33644	4.96737
3.3343	4.84351
3.33215	4.79973
3.33001	4.83741
3.32788	4.80432
3.32574	4.84148
3.32361	4.86811
3.32148	4.77235
3.31936	4.70672
3.31723	4.76244
3.31511	4.70443
3.31299	4.69866
3.31088	4.82011
3.30876	4.87593
3.30665	4.86081
3.30455	4.76485
3.30244	4.74882
3.30034	4.7102
3.29824	4.6781
3.29614	4.68283
3.29405	4.67799
3.29196	4.61268
3.28987	4.52968
3.28778	4.52493
3.2857	4.46456
3.28362	4.5269
3.28154	4.5
3.27946	4.52646
3.27739	4.6204
3.27532	4.57298
3.27325	4.50039
3.27119	4.42699
3.26913	4.48684
3.26707	4.54925
3.26501	4.5537
3.26295	4.49788
3.2609	4.48057
3.25885	4.52655
3.2568	4.52366
3.25476	4.36869
3.25272	4.26377
3.25068	4.40716
3.24864	4.43179
3.24661	4.3718
3.24458	4.35385
3.24255	4.36786
3.24052	4.30708
3.2385	4.31218
3.23648	4.30232
3.23446	4.36351
3.23244	4.43406
3.23043	4.45066
3.22841	4.37024
3.2264	4.33221
3.2244	4.29174
3.22239	4.23
3.22039	4.34149
3.21839	4.34932
3.2164	4.22324
3.2144	4.1692
3.21241	4.18542
3.21042	4.10278
3.20844	4.14445
3.20645	4.26052
3.20447	4.25378
3.20249	4.2046
3.20051	4.19448
3.19854	4.06377
3.19657	4.01994
3.1946	4.09234
3.19263	4.13649
3.19067	4.12999
3.1887	4.05048
3.18674	4.00136
3.18479	4.05851
3.18283	4.06962
3.18088	4.07954
3.17893	4.15616
3.17698	4.10635
3.17504	4.00802
3.17309	3.90935
3.17115	3.86898
3.16921	3.82923
3.16728	3.82426
3.16534	3.90993
3.16341	3.90603
3.16148	3.934
3.15956	3.88255
3.15763	3.87816
3.15571	3.97182
3.15379	3.98668
3.15187	3.84994
3.14996	3.83788
3.14805	3.86459
3.14614	3.84822
3.14423	3.80343
3.14232	3.81731
3.14042	3.84695
3.13852	3.91566
3.13662	3.84554
3.13472	3.7905
3.13283	3.7778
3.13094	3.85598
3.12905	3.90424
3.12716	3.89574
3.12528	3.79706
3.12339	3.74159
3.12151	3.76183
3.11964	3.76375
3.11776	3.7512
3.11589	3.74858
3.11401	3.77153
3.11214	3.72229
3.11028	3.62785
3.10841	3.66878
3.10655	3.67497
3.10469	3.69519
3.10283	3.71702
3.10098	3.60227
3.09912	3.59444
3.09727	3.69943
3.09542	3.77767
3.09358	3.86058
3.09173	3.87273
3.08989	3.72672
3.08805	3.59745
3.08621	3.6806
3.08437	3.76507
3.08254	3.69379
3.08071	3.56905
3.07888	3.614
3.07705	3.67866
3.07523	3.61532
3.0734	3.63634
3.07158	3.55112
3.06977	3.43201
3.06795	3.57433
3.06613	3.66529
3.06432	3.65091
3.06251	3.57012
3.0607	3.69227
3.0589	3.71858
3.0571	3.5642
3.05529	3.5592
3.05349	3.65833
3.0517	3.72566
3.0499	3.55879
3.04811	3.44381
3.04632	3.5588
3.04453	3.59847
3.04274	3.71296
3.04096	3.67164
3.03918	3.42632
3.0374	3.37432
3.03562	3.50065
3.03384	3.59334
3.03207	3.57173
3.03029	3.45434
3.02852	3.53815
3.02676	3.69636
3.02499	3.70812
3.02323	3.73192
3.02146	3.73167
3.0197	3.63606
3.01795	3.61929
3.01619	3.68916
3.01444	3.65405
3.01269	3.53347
3.01094	3.41091
3.00919	3.50573
3.00744	3.6281
3.0057	3.58642
3.00396	3.58377
3.00222	3.45487
3.00048	3.49111
2.99875	3.57355
2.99701	3.51108
2.99528	3.42134
2.99355	3.42306
2.99183	3.4234
2.9901	3.45434
2.98838	3.51329
2.98666	3.45726
2.98494	3.32861
2.98322	3.30456
2.9815	3.41931
2.97979	3.45232
2.97808	3.39647
2.97637	3.40048
2.97466	3.46205
2.97295	3.57252
2.97125	3.49432
2.96955	3.39098
2.96785	3.57519
2.96615	3.69541
2.96446	3.585
2.96276	3.48939
2.96107	3.37391
2.95938	3.33324
2.95769	3.31511
2.95601	3.37133
2.95432	3.52396
2.95264	3.48655
2.95096	3.49132
2.94928	3.56268
2.9476	3.42421
2.94593	3.41341
2.94425	3.49143
2.94258	3.38978
2.94092	3.41509
2.93925	3.43846
2.93758	3.42501
2.93592	3.51146
2.93426	3.51393
2.9326	3.49002
2.93094	3.4498
2.92928	3.37319
2.92763	3.4637
2.92598	3.56166
2.92433	3.58149
2.92268	3.45852
2.92103	3.3362
2.91939	3.35225
2.91775	3.51765
2.9161	3.58616
2.91447	3.44992
2.91283	3.35232
2.91119	3.34875
2.90956	3.48275
2.90793	3.50095
2.9063	3.37287
2.90467	3.37958
2.90304	3.45683
2.90142	3.40512
2.89979	3.40464
2.89817	3.35151
2.89656	3.33901
2.89494	3.49794
2.89332	3.43831
2.89171	3.42002
2.8901	3.51019
2.88849	3.62138
2.88688	3.59203
2.88527	3.41673
2.88367	3.34953
2.88206	3.45377
2.88046	3.43863
2.87886	3.60512
2.87727	3.61887
2.87567	3.47276
2.87408	3.41223
2.87248	3.47048
2.87089	3.37519
2.8693	3.33852
2.86772	3.48583
2.86613	3.5448
2.86455	3.54701
2.86297	3.51909
2.86139	3.47977
2.85981	3.42789
2.85823	3.40799
2.85666	3.39321
2.85508	3.42226
2.85351	3.48817
2.85194	3.46632
2.85038	3.4456
2.84881	3.39034
2.84724	3.45293
2.84568	3.55862
2.84412	3.52089
2.84256	3.57274
2.841	3.60852
2.83945	3.6293
2.83789	3.68045
2.83634	3.64716
2.83479	3.62974
2.83324	3.70488
2.83169	3.69694
2.83015	3.5968
2.82861	3.5864
2.82706	3.62218
2.82552	3.57873
2.82398	3.64873
2.82245	3.63603
2.82091	3.50566
2.81938	3.4803
2.81784	3.52739
2.81631	3.44697
2.81479	3.55699
2.81326	3.62138
2.81173	3.48534
2.81021	3.49157
2.80869	3.59366
2.80716	3.63252
2.80565	3.64451
2.80413	3.6945
2.80261	3.66728
2.8011	3.73549
2.79959	3.72299
2.79808	3.63605
2.79657	3.59337
2.79506	3.66134
2.79355	3.82722
2.79205	3.84299
2.79055	3.72138
2.78904	3.58545
2.78754	3.62724
2.78605	3.86569
2.78455	3.84857
2.78306	3.82571
2.78156	3.83562
2.78007	3.76564
2.77858	3.86067
2.77709	4.09464
2.77561	4.06756
2.77412	3.87193
2.77264	4.00069
2.77116	4.17669
2.76968	4.09909
2.7682	4.06419
2.76672	4.18474
2.76524	4.32463
2.76377	4.10929
2.7623	4.0875
2.76083	4.1723
2.75936	4.2277
2.75789	4.2396
2.75642	4.22951
2.75496	4.20215
2.7535	4.37879
2.75203	4.51872
2.75057	4.57501
2.74912	4.62713
2.74766	4.75884
2.7462	4.92421
2.74475	4.97552
2.7433	4.91703
2.74185	5.0472
2.7404	5.3998
2.73895	5.54395
2.7375	5.53977
2.73606	5.68801
2.73462	5.9261
2.73318	5.99734
2.73174	6.11466
2.7303	6.32024
2.72886	6.62291
2.72742	6.99497
2.72599	7.23078
2.72456	7.56329
2.72313	7.81782
2.7217	8.10533
2.72027	8.38153
2.71884	8.63565
2.71742	8.87722
2.71599	9.2343
2.71457	9.65829
2.71315	9.94133
2.71173	10.271
2.71032	10.6336
2.7089	10.9758
2.70748	11.332
2.70607	11.7118
2.70466	12.1975
2.70325	12.7508
2.70184	13.1481
2.70043	13.4108
2.69903	13.7069
2.69762	14.0319
2.69622	14.3847
2.69482	14.6661
2.69342	15.0164
2.69202	15.4565
2.69062	15.7014
2.68923	16.0864
2.68783	16.4466
2.68644	16.6027
2.68505	16.8292
2.68366	17.1132
2.68227	17.2003
2.68089	17.3801
2.6795	17.6538
2.67812	17.9327
2.67673	18.2711
2.67535	18.5168
2.67397	18.6297
2.6726	18.6778
2.67122	18.902
2.66984	19.2143
2.66847	19.3508
2.6671	19.574
2.66572	19.7316
2.66435	19.8272
2.66299	19.9993
2.66162	20.1906
2.66025	20.2019
2.65889	20.3125
2.65753	20.4353
2.65616	20.5562
2.65481	20.6703
2.65345	20.8378
2.65209	20.9882
2.65073	21.1435
2.64938	21.2436
2.64803	21.3573
2.64667	21.5244
2.64532	21.5686
2.64397	21.5115
2.64263	21.637
2.64128	21.6728
2.63994	21.7177
2.63859	21.7155
2.63725	21.9158
2.63591	22.0133
2.63457	21.9677
2.63323	22.0729
2.6319	22.2249
2.63056	22.354
2.62923	22.5061
2.62789	22.6646
2.62656	22.8211
2.62523	22.7847
2.6239	22.7103
2.62258	22.8013
2.62125	22.8756
2.61993	22.7733
2.6186	22.748
2.61728	22.8519
2.61596	23.0964
2.61464	23.1683
2.61332	23.0933
2.61201	23.0803
2.61069	23.2116
2.60938	23.3502
2.60807	23.4024
2.60675	23.4263
2.60544	23.4741
2.60414	23.5787
2.60283	23.5049
2.60152	23.4714
2.60022	23.4973
2.59891	23.4527
2.59761	23.5173
2.59631	23.6033
2.59501	23.5575
2.59371	23.4259
2.59242	23.4798
2.59112	23.4871
2.58983	23.5211
2.58853	23.6248
2.58724	23.6761
2.58595	23.6559
2.58466	23.7373
2.58338	23.808
2.58209	23.6956
2.5808	23.5844
2.57952	23.6636
2.57824	23.8042
2.57695	23.8441
2.57567	23.8065
2.5744	23.7315
2.57312	23.7259
2.57184	23.7922
2.57057	23.8029
2.56929	23.7047
2.56802	23.7488
2.56675	23.8884
2.56548	23.8639
2.56421	23.8199
2.56294	23.7992
2.56168	23.8553
2.56041	23.885
2.55915	23.7696
2.55789	23.7301
2.55662	23.717
2.55536	23.6505
2.5541	23.7444
2.55285	23.8372
2.55159	23.6505
2.55034	23.5488
2.54908	23.6244
2.54783	23.699
2.54658	23.6289
2.54533	23.4835
2.54408	23.5551
2.54283	23.7347
2.54159	23.7387
2.54034	23.7438
2.5391	23.7946
2.53785	23.6854
2.53661	23.5617
2.53537	23.5082
2.53413	23.5363
2.53289	23.5916
2.53166	23.6699
2.53042	23.6567
2.52919	23.7469
2.52795	23.8506
2.52672	24.0094
2.52549	23.9814
2.52426	23.8446
2.52303	23.8804
2.52181	23.8588
2.52058	23.8152
2.51936	23.8747
2.51813	24.0128
2.51691	24.0514
2.51569	24.0437
2.51447	23.9162
2.51325	23.8737
2.51203	24.069
2.51082	24.246
2.5096	24.291
2.50839	24.1887
2.50717	24.1554
2.50596	24.2388
2.50475	24.3319
2.50354	24.3392
2.50233	24.228
2.50113	24.1471
2.49992	24.2666
2.49872	24.4317
2.49751	24.5717
2.49631	24.5457
2.49511	24.5544
2.49391	24.7669
2.49271	24.8103
2.49151	24.7606
2.49031	24.7546
2.48912	24.7504
2.48792	24.6594
2.48673	24.6709
2.48554	24.7973
2.48435	24.8989
2.48316	25.039
2.48197	25.0358
2.48078	25.0104
2.4796	25.1972
2.47841	25.2167
2.47723	25.1581
2.47604	25.2101
2.47486	25.326
2.47368	25.3254
2.4725	25.1798
2.47132	25.3238
2.47014	25.5859
2.46897	25.5122
2.46779	25.5809
2.46662	25.6169
2.46545	25.5922
2.46427	25.6448
2.4631	25.7288
2.46193	25.8596
2.46077	25.9513
2.4596	25.8767
2.45843	25.8829
2.45727	25.9785
2.4561	26.0146
2.45494	26.018
2.45378	25.96
2.45262	26.022
2.45146	26.2188
2.4503	26.3012
2.44914	26.285
2.44799	26.2371
2.44683	26.2392
2.44568	26.4139
2.44452	26.5514
2.44337	26.5223
2.44222	26.5563
2.44107	26.5494
2.43992	26.5011
2.43877	26.4137
2.43763	26.2916
2.43648	26.3802
2.43534	26.5445
2.43419	26.8016
2.43305	26.902
2.43191	26.8301
2.43077	26.7974
2.42963	26.6972
2.42849	26.5287
2.42736	26.6268
2.42622	26.9163
2.42509	27.1242
2.42395	27.0369
2.42282	27.0083
2.42169	26.9759
2.42056	27.0003
2.41943	27.0547
2.4183	27.3257
2.41717	27.3624
2.41605	27.262
2.41492	27.216
2.4138	27.1478
2.41267	27.1303
2.41155	27.1874
2.41043	27.2447
2.40931	27.2749
2.40819	27.3163
2.40707	27.3249
2.40595	27.3001
2.40484	27.4093
2.40372	27.5051
2.40261	27.5414
2.4015	27.6527
2.40039	27.5456
2.39928	27.3901
2.39817	27.5012
2.39706	27.7119
2.39595	27.647
2.39484	27.6774
2.39374	27.7597
2.39263	27.675
2.39153	27.6723
2.39043	27.7528
2.38932	27.8023
2.38822	27.8108
2.38712	27.8055
2.38603	27.9633
2.38493	28.109
2.38383	28.1354
2.38274	28.0814
2.38164	27.9316
2.38055	28.0239
2.37946	28.2062
2.37836	28.3389
2.37727	28.3151
2.37618	28.2841
2.3751	28.2867
2.37401	28.2885
2.37292	28.3154
2.37184	28.4093
2.37075	28.5426
2.36967	28.5487
2.36859	28.5143
2.3675	28.5271
2.36642	28.5866
2.36534	28.644
2.36427	28.5584
2.36319	28.5584
2.36211	28.6883
2.36104	28.6808
2.35996	28.7316
2.35889	28.833
2.35781	28.7338
2.35674	28.7021
2.35567	28.7699
2.3546	28.7767
2.35353	28.8224
2.35247	28.8998
2.3514	28.7663
2.35033	28.6461
2.34927	28.661
2.3482	28.6387
2.34714	28.5658
2.34608	28.628
2.34502	28.7346
2.34396	28.818
2.3429	28.774
2.34184	28.7043
2.34078	28.6606
2.33973	28.5408
2.33867	28.5725
2.33762	28.7993
2.33656	28.8012
2.33551	28.8161
2.33446	28.7393
2.33341	28.6583
2.33236	28.6097
2.33131	28.522
2.33026	28.5675
2.32922	28.6527
2.32817	28.5634
2.32712	28.4772
2.32608	28.4907
2.32504	28.634
2.324	28.6367
2.32295	28.3952
2.32191	28.2809
2.32087	28.307
2.31984	28.3072
2.3188	28.2698
2.31776	28.2612
2.31673	28.22
2.31569	28.2402
2.31466	28.2533
2.31362	28.0752
2.31259	28.0219
2.31156	28.058
2.31053	27.9187
2.3095	27.8314
2.30847	27.859
2.30745	27.8201
2.30642	27.816
2.3054	27.6232
2.30437	27.4264
2.30335	27.4259
2.30232	27.4372
2.3013	27.3121
2.30028	27.3402
2.29926	27.255
2.29824	27.1469
2.29722	27.1929
2.29621	27.2863
2.29519	27.3378
2.29417	27.2417
2.29316	27.1829
2.29215	27.2425
2.29113	27.1896
2.29012	27.1018
2.28911	27.0972
2.2881	27.2923
2.28709	27.3379
2.28608	27.3415
2.28507	27.482
2.28407	27.6413
2.28306	27.7016
2.28206	27.6708
2.28105	27.6766
2.28005	27.5843
2.27905	27.6017
2.27805	27.5614
2.27705	27.6075
2.27605	27.7555
2.27505	27.8701
2.27405	28.0025
2.27305	27.9357
2.27206	27.7907
2.27106	27.829
2.27007	27.9826
2.26907	28.0654
2.26808	27.9818
2.26709	27.9388
2.2661	28.0468
2.26511	28.0493
2.26412	28.0526
2.26313	28.1093
2.26214	28.0587
2.26116	28.0677
2.26017	28.106
2.25919	28.0829
2.2582	28.0517
2.25722	27.9876
2.25624	28.0895
2.25526	28.1322
2.25428	28.104
2.2533	28.1855
2.25232	28.2868
2.25134	28.1732
2.25036	28.0532
2.24939	28.1412
2.24841	28.1996
2.24744	28.2338
2.24646	28.3413
2.24549	28.2523
2.24452	28.1003
2.24355	28.0751
2.24257	28.0247
2.24161	28.0093
2.24064	28.1101
2.23967	28.1563
2.2387	28.1947
2.23774	28.2446
2.23677	28.1368
2.23581	28.0862
2.23484	28.0643
2.23388	28.044
2.23292	28.1118
2.23196	28.1485
2.231	27.9957
2.23004	27.9499
2.22908	28.1266
2.22812	28.1955
2.22716	28.1199
2.22621	28.1416
2.22525	28.0665
2.2243	27.9418
2.22334	28.0113
2.22239	28.0924
2.22144	28.1357
2.22049	28.174
2.21953	28.262
2.21859	28.2641
2.21764	28.1481
2.21669	28.257
2.21574	28.2704
2.21479	28.0939
2.21385	27.9897
2.2129	27.8663
2.21196	27.7944
2.21102	27.9231
2.21007	28.0815
2.20913	28.0349
2.20819	28.1009
2.20725	28.1353
2.20631	28.0508
2.20537	28.0622
2.20444	28.0095
2.2035	27.9497
2.20256	27.8824
2.20163	27.8881
2.20069	27.9631
2.19976	28.0027
2.19883	27.9811
2.19789	27.9054
2.19696	27.8836
2.19603	27.9087
2.1951	27.9096
2.19417	28.0379
2.19325	28.0365
2.19232	27.9392
2.19139	27.7587
2.19047	27.7071
2.18954	27.8202
2.18862	27.9018
2.18769	27.9862
2.18677	27.952
2.18585	27.8529
2.18493	27.8412
2.18401	27.8119
2.18309	27.8856
2.18217	27.9971
2.18125	27.9467
2.18033	27.8884
2.17942	27.8046
2.1785	27.6927
2.17759	27.6158
2.17667	27.6925
2.17576	27.7292
2.17485	27.6489
2.17393	27.6781
2.17302	27.5649
2.17211	27.627
2.1712	27.7311
2.17029	27.6418
2.16939	27.6279
2.16848	27.5315
2.16757	27.4608
2.16667	27.5175
2.16576	27.5666
2.16486	27.4307
2.16395	27.2726
2.16305	27.4847
2.16215	27.5861
2.16125	27.499
2.16035	27.4015
2.15945	27.5803
2.15855	27.6408
2.15765	27.6021
2.15675	27.4641
2.15586	27.2221
2.15496	27.2386
2.15406	27.2669
2.15317	27.1677
2.15228	27.0557
2.15138	27.1117
2.15049	27.15
2.1496	27.1741
2.14871	27.1613
2.14782	27.0422
2.14693	26.9528
2.14604	27.0124
2.14515	27.1339
2.14427	27.2419
2.14338	27.2219
2.14249	27.0212
2.14161	26.8786
2.14072	26.8406
2.13984	26.7251
2.13896	26.7295
2.13808	26.9125
2.13719	26.9476
2.13631	27.002
2.13543	27.0118
2.13455	26.925
2.13368	26.6205
2.1328	26.7335
2.13192	26.9734
2.13105	26.7412
2.13017	26.6355
2.1293	26.6105
2.12842	26.6766
2.12755	26.6554
2.12668	26.511
2.1258	26.4826
2.12493	26.5068
2.12406	26.3476
2.12319	26.1931
2.12232	26.2445
2.12145	26.4633
2.12059	26.653
2.11972	26.5855
2.11885	26.4337
2.11799	26.3652
2.11712	26.2952
2.11626	26.4236
2.1154	26.3851
2.11453	26.3306
2.11367	26.4538
2.11281	26.3937
2.11195	26.1989
2.11109	26.1707
2.11023	25.9879
2.10937	25.9728
2.10851	26.0434
2.10766	26.1663
2.1068	26.228
2.10594	26.1764
2.10509	25.9503
2.10423	25.8475
2.10338	25.8873
2.10253	25.7648
2.10168	25.7918
2.10082	26.0602
2.09997	26.1671
2.09912	25.7455
2.09827	25.5679
2.09742	25.7819
2.09658	25.8527
2.09573	25.6022
2.09488	25.4793
2.09404	25.6794
2.09319	25.8241
2.09235	25.9516
2.0915	25.8774
2.09066	25.5854
2.08982	25.469
2.08897	25.4652
2.08813	25.3972
2.08729	25.5144
2.08645	25.5354
2.08561	25.4646
2.08477	25.5635
2.08394	25.7698
2.0831	25.5945
2.08226	25.399
2.08143	25.4847
2.08059	25.3462
2.07976	25.0933
2.07892	25.1479
2.07809	25.3876
2.07726	25.4659
2.07643	25.2851
2.07559	25.1832
2.07476	25.4753
2.07393	25.771
2.0731	25.5962
2.07228	25.1682
2.07145	24.8131
2.07062	24.9867
2.06979	25.4106
2.06897	25.3612
2.06814	25.1881
2.06732	25.1918
2.06649	24.9631
2.06567	24.7835
2.06485	24.8347
2.06403	24.8378
2.0632	24.7841
2.06238	24.7685
2.06156	24.6761
2.06074	24.6919
2.05993	24.7093
2.05911	24.6336
2.05829	24.314
2.05747	24.3062
2.05666	24.5494
2.05584	24.495
2.05503	24.6512
2.05421	24.6788
2.0534	24.4891
2.05259	24.4681
2.05177	24.623
2.05096	24.5602
2.05015	24.5192
2.04934	24.6103
2.04853	24.466
2.04772	24.3922
2.04691	24.402
2.04611	24.0716
2.0453	24.0473
2.04449	24.1195
2.04369	24.0975
2.04288	24.1545
2.04208	24.2032
2.04127	24.1926
2.04047	24.0971
2.03967	23.9764
2.03886	23.9497
2.03806	23.8372
2.03726	23.7414
2.03646	23.8976
2.03566	23.9656
2.03486	23.8904
2.03407	23.7903
2.03327	23.8446
2.03247	24.0084
2.03167	23.8579
2.03088	23.815
2.03008	23.6957
2.02929	23.3703
2.0285	23.4172
2.0277	23.6297
2.02691	23.4384
2.02612	23.3365
2.02533	23.4243
2.02453	23.5409
2.02374	23.415
2.02295	23.312
2.02217	23.4252
2.02138	23.4586
2.02059	23.2631
2.0198	23.2757
2.01902	23.3757
2.01823	23.1641
2.01744	23.0518
2.01666	23.1224
2.01588	23.1567
2.01509	23.0822
2.01431	23.1008
2.01353	22.9338
2.01275	22.8834
2.01196	22.9511
2.01118	22.7866
2.0104	22.5819
2.00963	22.568
2.00885	22.5035
2.00807	22.7031
2.00729	22.7699
2.00651	22.7723
2.00574	22.7386
2.00496	22.6233
2.00419	22.6459
2.00341	22.6745
2.00264	22.6435
2.00187	22.4967
2.00109	22.3793
2.00032	22.4365
