Name: Sepiolite Mg_4Si_6O_15(OH)_2.6H_2O
Type: Mineral
Class: Silicates
Subclass: Phyllosilicates
Particle Size: 125-500um
Sample No.: PS-5A
Owner: JPL
Wavelength range: IR
Origin: USA, Nevada, Two Crows
Collected by Clay Mineral Society
Description: 





Measurement: Hemispherical reflectance
First Column: X
Second Column: Y
X Units:  Wavelength (micrometers)
Y Units:  Reflectance (percent)
First X Value: 15.3853
Last X Value: 2.00032
Number of X Values: 2256
Additional information: ps05aa.txt
 
15.3853	0.582131
15.3397	0.639971
15.2945	0.634419
15.2495	0.578949
15.2048	0.468241
15.1603	0.501999
15.1161	0.417581
15.0722	0.346185
15.0285	0.167563
14.9851	0.311104
14.9419	0.22502
14.8989	0.159682
14.8563	0.386894
14.8138	0.312224
14.7716	0.232048
14.7296	0.301044
14.6879	0.199603
14.6464	0.106671
14.6052	0.0504817
14.5641	0.0909436
14.5233	0.23153
14.4828	0.42126
14.4424	0.207763
14.4023	0.0771709
14.3624	0.25393
14.3227	0.321143
14.2833	0.121963
14.244	0.0430273
14.205	0.360872
14.1662	0.377753
14.1276	0.309663
14.0892	0.552575
14.051	0.546694
14.0131	0.454386
13.9753	0.343158
13.9377	0.257384
13.9004	0.15548
13.8632	0.182564
13.8262	0.210241
13.7895	0.299
13.7529	0.531755
13.7165	0.504345
13.6803	0.477128
13.6443	0.420408
13.6085	0.365089
13.5729	0.322577
13.5374	0.369866
13.5022	0.410526
13.4671	0.53654
13.4322	0.600163
13.3975	0.540113
13.363	0.414894
13.3286	0.404693
13.2944	0.508415
13.2604	0.654841
13.2266	0.766412
13.193	0.653752
13.1595	0.465952
13.1262	0.433722
13.093	0.527267
13.06	0.512281
13.0272	0.590231
12.9946	0.576023
12.9621	0.554219
12.9298	0.524636
12.8976	0.622129
12.8656	0.640146
12.8337	0.57082
12.8021	0.52919
12.7705	0.557231
12.7391	0.628388
12.7079	0.688923
12.6769	0.552453
12.6459	0.405698
12.6152	0.375221
12.5845	0.43713
12.5541	0.470776
12.5238	0.575506
12.4936	0.704125
12.4635	0.667081
12.4337	0.50682
12.4039	0.442696
12.3743	0.611178
12.3448	0.640622
12.3155	0.609244
12.2863	0.750589
12.2573	0.865049
12.2284	0.763968
12.1996	0.754207
12.171	0.771684
12.1425	0.647846
12.1141	0.622316
12.0859	0.748355
12.0578	0.877524
12.0298	0.922804
12.0019	1.11353
11.9742	1.12609
11.9466	0.897671
11.9192	0.816139
11.8918	0.812762
11.8646	1.03547
11.8375	1.28566
11.8106	1.15844
11.7837	0.98978
11.757	0.995538
11.7304	0.894696
11.7039	0.854278
11.6776	0.9812
11.6513	1.02606
11.6252	0.954027
11.5992	0.976475
11.5733	1.11503
11.5475	1.19732
11.5219	1.17746
11.4963	1.18626
11.4709	1.20093
11.4455	1.21235
11.4203	1.19275
11.3952	1.18683
11.3702	1.18302
11.3454	1.19714
11.3206	1.17602
11.2959	1.18519
11.2714	1.28575
11.2469	1.43494
11.2226	1.44617
11.1983	1.41264
11.1742	1.44155
11.1502	1.51911
11.1263	1.67339
11.1024	1.72318
11.0787	1.738
11.0551	1.7351
11.0316	1.77758
11.0081	1.76058
10.9848	1.83269
10.9616	1.98984
10.9385	2.00204
10.9154	1.99448
10.8925	1.93932
10.8697	1.9024
10.8469	1.9703
10.8243	2.21006
10.8017	2.30058
10.7793	2.22731
10.7569	2.24422
10.7346	2.25993
10.7125	2.30811
10.6904	2.45166
10.6684	2.55766
10.6465	2.47905
10.6247	2.40524
10.6029	2.5176
10.5813	2.67982
10.5597	2.67647
10.5383	2.71423
10.5169	2.90787
10.4956	3.00975
10.4744	3.04795
10.4533	3.20375
10.4323	3.39415
10.4113	3.50576
10.3904	3.58407
10.3697	3.81596
10.349	4.03806
10.3284	4.31895
10.3078	4.69029
10.2874	4.91237
10.267	5.14809
10.2467	5.59565
10.2265	5.90354
10.2064	5.82934
10.1863	5.60453
10.1663	5.21682
10.1464	4.71649
10.1266	4.33659
10.1069	3.91645
10.0872	3.56738
10.0676	3.43489
10.0481	3.45843
10.0287	3.67613
10.0093	3.86734
9.99005	4.27504
9.97084	4.79583
9.95169	5.12074
9.93263	5.55224
9.91364	5.94944
9.89472	6.33823
9.87587	6.65174
9.8571	6.85414
9.83839	7.01973
9.81976	7.23258
9.80119	7.74345
9.78271	8.20664
9.76428	8.45085
9.74592	8.70875
9.72764	8.86685
9.70943	9.09392
9.69128	9.23609
9.6732	9.12448
9.65518	9.13006
9.63724	8.94598
9.61935	8.43477
9.60155	8.03172
9.5838	7.80637
9.56611	7.48546
9.5485	6.95614
9.53094	6.68016
9.51345	6.59402
9.49604	6.59364
9.47867	6.69739
9.46137	6.66832
9.44414	6.44108
9.42697	5.96896
9.40986	5.43744
9.39281	4.98345
9.37583	4.49216
9.35891	4.01743
9.34204	3.59717
9.32524	3.00412
9.3085	2.42619
9.29182	2.15555
9.27519	2.04646
9.25863	2.0794
9.24213	2.28051
9.22568	2.30308
9.2093	2.21734
9.19297	2.1671
9.17669	2.16934
9.16048	2.27079
9.14433	2.38403
9.12823	2.32362
9.11218	2.32215
9.0962	2.2723
9.08027	2.15956
9.06439	1.94546
9.04858	1.74969
9.03281	1.64465
9.0171	1.56129
9.00145	1.43456
8.98585	1.29241
8.9703	1.19599
8.9548	1.20121
8.93937	1.26656
8.92398	1.26082
8.90865	1.23212
8.89337	1.15839
8.87814	1.01366
8.86296	1.02826
8.84784	0.999468
8.83277	0.871187
8.81774	0.78593
8.80277	0.675121
8.78786	0.571837
8.77298	0.690575
8.75816	0.864128
8.7434	0.737233
8.72868	0.587133
8.714	0.446631
8.69938	0.515816
8.68481	0.523894
8.67029	0.431556
8.65581	0.408663
8.64139	0.425872
8.62701	0.369414
8.61268	0.364624
8.5984	0.377856
8.58416	0.460809
8.56997	0.496781
8.55583	0.328196
8.54174	0.154377
8.52769	0.125657
8.51368	0.239814
8.49973	0.24943
8.48582	0.211551
8.47195	0.197479
8.45813	0.193147
8.44436	0.247804
8.43062	0.320771
8.41693	0.291314
8.4033	0.289427
8.3897	0.244985
8.37614	0.19704
8.36264	0.213369
8.34917	0.206488
8.33574	0.192586
8.32236	0.123886
8.30903	0.0685531
8.29573	0.207395
8.28248	0.255377
8.26927	0.259825
8.2561	0.294811
8.24298	0.446428
8.2299	0.421599
8.21685	0.245038
8.20385	0.153707
8.19089	0.282857
8.17797	0.305591
8.16509	0.173576
8.15225	0.187446
8.13946	0.238447
8.1267	0.240441
8.11398	0.189938
8.10131	0.108956
8.08867	0.130749
8.07606	0.174137
8.0635	0.147164
8.05099	0.133876
8.0385	0.134131
8.02606	0.14383
8.01366	0.156369
8.00129	0.125332
7.98896	0.168812
7.97667	0.210981
7.96442	0.156988
7.9522	0.10893
7.94002	0.162703
7.92788	0.16458
7.91578	0.0590865
7.90371	0.0307262
7.89168	0.0965248
7.87969	0.153551
7.86773	0.158033
7.85581	0.191934
7.84392	0.182611
7.83207	0.159051
7.82026	0.186632
7.80849	0.177486
7.79674	0.196432
7.78503	0.302101
7.77337	0.222311
7.76173	0.139768
7.75012	0.184825
7.73856	0.233562
7.72703	0.159748
7.71553	0.154482
7.70406	0.232826
7.69263	0.175693
7.68123	0.161785
7.66987	0.262693
7.65855	0.280784
7.64725	0.166322
7.63598	0.163476
7.62475	0.270514
7.61356	0.36618
7.60239	0.394971
7.59126	0.320909
7.58017	0.21403
7.5691	0.283241
7.55806	0.267785
7.54707	0.267417
7.5361	0.313679
7.52516	0.366687
7.51425	0.396297
7.50338	0.329719
7.49253	0.368963
7.48172	0.414451
7.47094	0.367835
7.46019	0.380609
7.44947	0.471702
7.43879	0.482429
7.42813	0.45271
7.4175	0.439443
7.4069	0.366236
7.39634	0.405308
7.3858	0.452248
7.37529	0.483452
7.36482	0.475414
7.35437	0.411376
7.34396	0.414121
7.33357	0.471973
7.32321	0.491485
7.31288	0.496344
7.30258	0.552327
7.29231	0.550002
7.28207	0.482096
7.27185	0.454875
7.26167	0.459452
7.25152	0.512105
7.24139	0.581695
7.23129	0.649953
7.22122	0.613474
7.21117	0.578756
7.20116	0.623838
7.19117	0.576109
7.18121	0.569439
7.17128	0.617678
7.16137	0.597799
7.1515	0.578029
7.14164	0.581636
7.13182	0.691487
7.12203	0.730592
7.11225	0.650083
7.10251	0.629787
7.0928	0.706223
7.08311	0.788307
7.07344	0.819202
7.06381	0.759971
7.0542	0.82293
7.04461	0.900852
7.03506	0.832216
7.02552	0.719828
7.01601	0.6967
7.00653	0.810036
6.99708	0.9057
6.98765	0.909256
6.97824	0.91745
6.96886	0.84237
6.95951	0.778433
6.95018	0.791803
6.94087	0.884509
6.9316	0.935064
6.92234	0.975623
6.91311	0.994563
6.90391	0.983843
6.89473	0.956956
6.88557	0.976106
6.87644	0.955316
6.86733	0.854892
6.85824	0.898167
6.84918	1.08381
6.84015	1.12761
6.83114	1.04731
6.82215	0.945424
6.81319	0.970865
6.80424	1.04609
6.79532	1.02293
6.78643	1.01412
6.77756	1.01777
6.76871	1.05025
6.75989	1.13822
6.75109	1.19214
6.74231	1.13204
6.73355	1.02727
6.72482	0.963912
6.71611	1.0292
6.70742	1.1565
6.69875	1.23914
6.69011	1.23992
6.68149	1.15784
6.67289	1.16718
6.66431	1.17665
6.65576	1.17701
6.64722	1.25727
6.63871	1.24071
6.63022	1.18981
6.62175	1.18229
6.61331	1.19308
6.60488	1.22961
6.59648	1.27685
6.5881	1.235
6.57974	1.16612
6.5714	1.18442
6.56308	1.1955
6.55478	1.14854
6.54651	1.18175
6.53825	1.2028
6.53001	1.24146
6.5218	1.22076
6.51361	1.19243
6.50544	1.21135
6.49729	1.26381
6.48915	1.40022
6.48104	1.32898
6.47295	1.20156
6.46488	1.17858
6.45683	1.2395
6.4488	1.30279
6.44079	1.25946
6.4328	1.20242
6.42482	1.17326
6.41687	1.19426
6.40894	1.23174
6.40103	1.23042
6.39314	1.17944
6.38526	1.1556
6.37741	1.16398
6.36957	1.04615
6.36176	0.939009
6.35396	0.984551
6.34618	1.04341
6.33843	1.02885
6.33069	0.983008
6.32297	0.970051
6.31527	0.972118
6.30758	0.945617
6.29992	0.920503
6.29227	0.852227
6.28465	0.811849
6.27704	0.801177
6.26945	0.760897
6.26188	0.701462
6.25432	0.629331
6.24679	0.661661
6.23927	0.769581
6.23177	0.729436
6.22429	0.680967
6.21683	0.594152
6.20938	0.512496
6.20195	0.525748
6.19454	0.520974
6.18715	0.511819
6.17978	0.515568
6.17242	0.39087
6.16508	0.345722
6.15776	0.497913
6.15045	0.529913
6.14317	0.354081
6.1359	0.28554
6.12864	0.374703
6.12141	0.445948
6.11419	0.447794
6.10699	0.412156
6.0998	0.40243
6.09263	0.402566
6.08549	0.430676
6.07835	0.386852
6.07123	0.378191
6.06413	0.419317
6.05705	0.452749
6.04998	0.416099
6.04293	0.425593
6.0359	0.44793
6.02888	0.412014
6.02187	0.304992
6.01489	0.314569
6.00792	0.322195
6.00096	0.259651
5.99403	0.334776
5.98711	0.368237
5.9802	0.343377
5.97331	0.297871
5.96644	0.28163
5.95958	0.380944
5.95274	0.418994
5.94591	0.41329
5.9391	0.406469
5.9323	0.435655
5.92552	0.492629
5.91876	0.494171
5.91201	0.494477
5.90528	0.49541
5.89856	0.539594
5.89186	0.559352
5.88517	0.587184
5.8785	0.677987
5.87184	0.817231
5.8652	0.869922
5.85857	0.876267
5.85196	0.917716
5.84536	0.991197
5.83878	1.03768
5.83221	1.09297
5.82566	1.18083
5.81912	1.30035
5.81259	1.35077
5.80608	1.38972
5.79959	1.44216
5.79311	1.50889
5.78665	1.50872
5.78019	1.55922
5.77376	1.63452
5.76734	1.66138
5.76093	1.68793
5.75453	1.77562
5.74815	1.91719
5.74179	1.97168
5.73543	1.97261
5.7291	1.99946
5.72277	1.97151
5.71646	1.91922
5.71017	1.92087
5.70389	1.98039
5.69762	2.03722
5.69136	2.03629
5.68513	2.05145
5.6789	2.14035
5.67268	2.18779
5.66648	2.20952
5.6603	2.28204
5.65413	2.24783
5.64797	2.19561
5.64182	2.21133
5.63569	2.31249
5.62957	2.38976
5.62347	2.32187
5.61737	2.33839
5.61129	2.35653
5.60522	2.35253
5.59917	2.41251
5.59313	2.47158
5.5871	2.52556
5.58109	2.4931
5.57509	2.47349
5.5691	2.50959
5.56312	2.53126
5.55716	2.5482
5.55121	2.58457
5.54528	2.68457
5.53935	2.71372
5.53344	2.76685
5.52754	2.81472
5.52166	2.82205
5.51578	2.87917
5.50992	2.95057
5.50407	2.87411
5.49823	2.88859
5.49241	2.99948
5.4866	3.04174
5.4808	3.07059
5.47501	3.20042
5.46923	3.22675
5.46347	3.16515
5.45772	3.20711
5.45198	3.26255
5.44625	3.34919
5.44054	3.44507
5.43484	3.52713
5.42914	3.53622
5.42347	3.56762
5.4178	3.59437
5.41214	3.59772
5.4065	3.59266
5.40087	3.69575
5.39525	3.79749
5.38964	3.79244
5.38404	3.7272
5.37846	3.68025
5.37288	3.70291
5.36732	3.82035
5.36177	3.81065
5.35623	3.81785
5.35071	3.79354
5.34519	3.77311
5.33968	3.76513
5.33419	3.76172
5.32871	3.82787
5.32324	3.83392
5.31778	3.8049
5.31233	3.78062
5.30689	3.72427
5.30147	3.67919
5.29605	3.63398
5.29065	3.63142
5.28525	3.68393
5.27987	3.66384
5.2745	3.6644
5.26914	3.69722
5.26379	3.59442
5.25845	3.47393
5.25312	3.49418
5.24781	3.53423
5.2425	3.49301
5.23721	3.45142
5.23192	3.53782
5.22665	3.66866
5.22138	3.67942
5.21613	3.64714
5.21089	3.63158
5.20566	3.69318
5.20044	3.84379
5.19522	3.902
5.19002	3.92731
5.18483	3.90402
5.17965	3.98092
5.17448	4.11489
5.16933	4.15941
5.16418	4.24537
5.15904	4.34678
5.15391	4.36028
5.14879	4.35973
5.14368	4.42335
5.13859	4.44444
5.1335	4.43953
5.12842	4.49356
5.12335	4.56095
5.1183	4.60428
5.11325	4.56038
5.10821	4.4776
5.10318	4.51015
5.09817	4.61587
5.09316	4.58517
5.08816	4.47691
5.08317	4.47199
5.07819	4.55122
5.07322	4.5646
5.06826	4.5244
5.06331	4.45369
5.05837	4.36544
5.05344	4.34093
5.04852	4.36541
5.04361	4.44319
5.03871	4.45871
5.03382	4.40708
5.02894	4.41462
5.02406	4.48777
5.0192	4.46926
5.01435	4.44762
5.0095	4.48063
5.00467	4.55674
4.99984	4.55999
4.99502	4.52437
4.99021	4.52831
4.98542	4.51633
4.98063	4.55963
4.97585	4.62064
4.97108	4.70319
4.96632	4.73919
4.96156	4.72664
4.95682	4.78358
4.95209	4.78078
4.94736	4.74694
4.94264	4.80347
4.93794	4.86807
4.93324	4.83584
4.92855	4.73082
4.92387	4.66509
4.9192	4.69461
4.91453	4.7324
4.90988	4.7354
4.90524	4.79987
4.9006	4.79952
4.89597	4.76163
4.89135	4.77532
4.88674	4.81427
4.88214	4.86924
4.87755	4.84568
4.87296	4.79215
4.86839	4.77981
4.86382	4.77506
4.85926	4.74206
4.85471	4.74456
4.85017	4.77641
4.84564	4.80942
4.84111	4.84425
4.8366	4.84923
4.83209	4.85311
4.82759	4.88172
4.8231	4.9309
4.81862	4.90934
4.81415	4.87012
4.80968	4.84269
4.80522	4.87764
4.80077	4.92993
4.79633	4.9174
4.7919	4.96981
4.78747	5.03098
4.78306	5.01286
4.77865	5.01353
4.77425	5.02215
4.76986	5.12905
4.76547	5.11259
4.7611	5.07696
4.75673	5.13482
4.75237	5.18033
4.74802	5.19685
4.74367	5.2071
4.73934	5.19729
4.73501	5.20559
4.73069	5.19444
4.72638	5.27434
4.72207	5.29941
4.71777	5.32274
4.71348	5.34143
4.7092	5.34969
4.70493	5.42998
4.70066	5.5118
4.69641	5.49285
4.69216	5.43271
4.68791	5.55031
4.68368	5.69505
4.67945	5.74122
4.67523	5.70625
4.67102	5.68548
4.66682	5.71082
4.66262	5.77146
4.65843	5.90529
4.65425	5.98621
4.65007	6.01255
4.64591	6.07182
4.64175	6.07352
4.6376	6.07307
4.63345	6.07258
4.62932	6.12507
4.62519	6.14931
4.62106	6.11689
4.61695	6.1306
4.61284	6.22704
4.60874	6.29393
4.60465	6.37046
4.60056	6.415
4.59648	6.39948
4.59241	6.41766
4.58835	6.49802
4.58429	6.58832
4.58024	6.58103
4.5762	6.51726
4.57216	6.58049
4.56814	6.66812
4.56411	6.6161
4.5601	6.60924
4.55609	6.63853
4.55209	6.66727
4.5481	6.61125
4.54411	6.62241
4.54013	6.70849
4.53616	6.77264
4.5322	6.82087
4.52824	6.73617
4.52429	6.70645
4.52034	6.72516
4.51641	6.71287
4.51247	6.73173
4.50855	6.75312
4.50463	6.74421
4.50072	6.67895
4.49682	6.64706
4.49292	6.71425
4.48903	6.71847
4.48515	6.65883
4.48127	6.70719
4.4774	6.74975
4.47354	6.73417
4.46968	6.78196
4.46584	6.74833
4.46199	6.76156
4.45815	6.77612
4.45432	6.78135
4.4505	6.87451
4.44668	6.91124
4.44287	6.98333
4.43907	7.05009
4.43527	7.10595
4.43148	7.11047
4.4277	7.14585
4.42392	7.2696
4.42015	7.36017
4.41638	7.40844
4.41262	7.47907
4.40887	7.60902
4.40513	7.63151
4.40139	7.71473
4.39765	7.84141
4.39393	7.88657
4.39021	7.97456
4.38649	8.12953
4.38278	8.23047
4.37908	8.31433
4.37539	8.4319
4.3717	8.48414
4.36801	8.57228
4.36434	8.71677
4.36067	8.7947
4.357	8.91436
4.35335	9.02417
4.34969	9.13235
4.34605	9.21081
4.34241	9.34899
4.33877	9.45783
4.33514	9.57302
4.33152	9.64563
4.32791	9.7297
4.3243	9.86194
4.32069	9.98794
4.3171	10.1071
4.31351	10.2365
4.30992	10.3185
4.30634	10.4829
4.30277	10.6515
4.2992	10.7315
4.29564	10.8442
4.29208	10.9628
4.28853	11.1355
4.28499	11.2322
4.28145	11.3729
4.27792	11.5111
4.27439	11.5529
4.27087	11.6845
4.26735	11.8273
4.26384	11.9613
4.26034	12.0714
4.25684	12.1878
4.25335	12.3399
4.24986	12.5184
4.24638	12.6778
4.24291	12.7955
4.23944	12.872
4.23598	12.9538
4.23252	13.1474
4.22906	13.3647
4.22562	13.4683
4.22218	13.5874
4.21874	13.7027
4.21531	13.7568
4.21189	13.9602
4.20847	14.1385
4.20506	14.2372
4.20165	14.3518
4.19825	14.4758
4.19485	14.5765
4.19146	14.6663
4.18807	14.883
4.18469	15.0505
4.18132	15.1155
4.17795	15.258
4.17458	15.3926
4.17123	15.4316
4.16787	15.5031
4.16453	15.6795
4.16118	15.7609
4.15785	15.8064
4.15451	15.9388
4.15119	16.0674
4.14787	16.1949
4.14455	16.3107
4.14124	16.3561
4.13794	16.3918
4.13464	16.5458
4.13134	16.7268
4.12805	16.8308
4.12477	16.8912
4.12149	16.9767
4.11822	17.0452
4.11495	17.1404
4.11168	17.1988
4.10843	17.2279
4.10517	17.3678
4.10192	17.5488
4.09868	17.6615
4.09545	17.6773
4.09221	17.7118
4.08899	17.8205
4.08576	18.0237
4.08255	18.0935
4.07933	18.0961
4.07613	18.2312
4.07292	18.4084
4.06973	18.5529
4.06654	18.6053
4.06335	18.7537
4.06017	18.9529
4.05699	19.0858
4.05382	19.203
4.05065	19.2756
4.04749	19.4469
4.04433	19.6473
4.04118	19.7818
4.03803	19.8816
4.03489	20.0543
4.03175	20.2408
4.02862	20.3331
4.02549	20.4372
4.02237	20.5843
4.01925	20.7276
4.01614	20.9111
4.01303	21.048
4.00993	21.1438
4.00683	21.2323
4.00373	21.3639
4.00064	21.5518
3.99756	21.6926
3.99448	21.7905
3.9914	21.9444
3.98833	22.0446
3.98527	22.065
3.98221	22.1171
3.97915	22.2061
3.9761	22.266
3.97305	22.4115
3.97001	22.5538
3.96697	22.5964
3.96394	22.6745
3.96091	22.7548
3.95789	22.8947
3.95487	22.9599
3.95186	23.0282
3.94885	23.1728
3.94584	23.2556
3.94284	23.2873
3.93984	23.317
3.93685	23.3574
3.93386	23.4664
3.93088	23.4877
3.9279	23.5099
3.92493	23.6191
3.92196	23.6784
3.919	23.7292
3.91604	23.7924
3.91308	23.8683
3.91013	23.9483
3.90718	23.9766
3.90424	23.9943
3.9013	24.0189
3.89837	24.1009
3.89544	24.1433
3.89252	24.1423
3.8896	24.1203
3.88668	24.0824
3.88377	24.1079
3.88086	24.1567
3.87796	24.0613
3.87506	24.0132
3.87217	24.1147
3.86928	24.1367
3.86639	24.1578
3.86351	24.2667
3.86064	24.2321
3.85776	24.1545
3.8549	24.2195
3.85203	24.2126
3.84917	24.1746
3.84631	24.1666
3.84346	24.1219
3.84062	24.0571
3.83777	24.1019
3.83494	24.093
3.8321	24.0201
3.82927	23.9019
3.82644	23.7979
3.82362	23.6708
3.82081	23.6194
3.81799	23.6667
3.81518	23.6354
3.81238	23.497
3.80958	23.4001
3.80678	23.464
3.80399	23.5497
3.8012	23.5803
3.79841	23.5551
3.79563	23.4698
3.79286	23.3532
3.79008	23.3036
3.78731	23.2415
3.78455	23.2345
3.78179	23.178
3.77903	23.1082
3.77628	23.0797
3.77353	22.9796
3.77079	22.8845
3.76805	22.8167
3.76531	22.7103
3.76258	22.6156
3.75985	22.5643
3.75713	22.4564
3.7544	22.3206
3.75169	22.2827
3.74898	22.266
3.74627	22.1613
3.74356	22.0411
3.74086	21.9542
3.73816	21.8141
3.73547	21.6668
3.73278	21.5921
3.7301	21.5658
3.72741	21.5522
3.72474	21.4954
3.72206	21.3872
3.71939	21.2025
3.71673	21.039
3.71406	20.9046
3.71141	20.7299
3.70875	20.5833
3.7061	20.4739
3.70345	20.4283
3.70081	20.3778
3.69817	20.137
3.69553	19.9
3.6929	19.8078
3.69027	19.7328
3.68765	19.6381
3.68503	19.4943
3.68241	19.3864
3.6798	19.2406
3.67719	18.9759
3.67458	18.7955
3.67198	18.7359
3.66938	18.6442
3.66678	18.4528
3.66419	18.2172
3.66161	18.0903
3.65902	18.0094
3.65644	17.8883
3.65387	17.7194
3.65129	17.5477
3.64872	17.3392
3.64616	17.2084
3.64359	17.1238
3.64103	17.0788
3.63848	16.9379
3.63593	16.7582
3.63338	16.622
3.63084	16.4516
3.6283	16.2851
3.62576	16.1255
3.62322	16.0071
3.62069	15.9062
3.61817	15.7284
3.61564	15.6065
3.61312	15.4974
3.61061	15.2711
3.6081	15.0744
3.60559	14.9622
3.60308	14.8397
3.60058	14.7139
3.59808	14.5844
3.59558	14.4855
3.59309	14.3566
3.59061	14.1403
3.58812	13.9773
3.58564	13.8585
3.58316	13.7465
3.58069	13.6353
3.57822	13.4767
3.57575	13.2823
3.57328	13.0706
3.57082	12.8968
3.56836	12.7414
3.56591	12.6063
3.56346	12.4632
3.56101	12.3399
3.55857	12.1909
3.55613	11.9957
3.55369	11.7757
3.55126	11.6572
3.54883	11.5559
3.5464	11.3762
3.54397	11.3111
3.54155	11.2533
3.53914	11.1382
3.53672	10.9219
3.53431	10.7366
3.5319	10.5784
3.5295	10.387
3.5271	10.2331
3.5247	10.1037
3.52231	9.94088
3.51991	9.7952
3.51753	9.66124
3.51514	9.51406
3.51276	9.37986
3.51038	9.20829
3.50801	8.96972
3.50563	8.82864
3.50327	8.73377
3.5009	8.62552
3.49854	8.51677
3.49618	8.32488
3.49382	8.20147
3.49147	8.09959
3.48912	7.97583
3.48677	7.83552
3.48443	7.79002
3.48209	7.75888
3.47975	7.57112
3.47742	7.37936
3.47509	7.22688
3.47276	7.12352
3.47044	7.0868
3.46812	7.08274
3.4658	6.94379
3.46348	6.82128
3.46117	6.68711
3.45886	6.45336
3.45656	6.28222
3.45425	6.19708
3.45195	6.13507
3.44966	6.15744
3.44736	6.03961
3.44507	5.85534
3.44279	5.71094
3.4405	5.67104
3.43822	5.65343
3.43594	5.56345
3.43367	5.31487
3.43139	5.25722
3.42912	5.28967
3.42686	5.12994
3.42459	5.10116
3.42233	5.01191
3.42007	4.87127
3.41782	4.73641
3.41557	4.61022
3.41332	4.57254
3.41108	4.46032
3.40883	4.34053
3.40659	4.26541
3.40435	4.27357
3.40212	4.23315
3.39989	4.13927
3.39766	4.05316
3.39544	3.98692
3.39322	3.97697
3.391	3.83184
3.38878	3.74094
3.38657	3.71584
3.38436	3.7048
3.38215	3.61409
3.37994	3.54912
3.37774	3.43306
3.37554	3.3835
3.37335	3.38986
3.37115	3.33189
3.36896	3.25523
3.36678	3.22336
3.36459	3.23456
3.36241	3.12327
3.36023	2.99608
3.35805	2.96935
3.35588	2.97353
3.35371	2.9182
3.35154	2.86128
3.34938	2.85681
3.34721	2.8506
3.34505	2.7048
3.3429	2.50579
3.34074	2.48836
3.33859	2.48901
3.33644	2.46849
3.3343	2.47408
3.33215	2.43233
3.33001	2.38093
3.32788	2.46289
3.32574	2.47203
3.32361	2.33906
3.32148	2.27698
3.31936	2.28455
3.31723	2.19438
3.31511	2.03603
3.31299	1.97409
3.31088	2.03403
3.30876	2.08274
3.30665	1.98431
3.30455	1.92584
3.30244	1.97876
3.30034	1.94342
3.29824	1.84429
3.29614	1.88356
3.29405	1.82055
3.29196	1.73149
3.28987	1.68293
3.28778	1.63002
3.2857	1.60181
3.28362	1.61318
3.28154	1.57572
3.27946	1.55382
3.27739	1.5886
3.27532	1.63852
3.27325	1.53961
3.27119	1.44542
3.26913	1.41577
3.26707	1.45472
3.26501	1.45118
3.26295	1.39419
3.2609	1.36188
3.25885	1.37637
3.2568	1.46236
3.25476	1.47571
3.25272	1.37369
3.25068	1.21361
3.24864	1.13553
3.24661	1.18462
3.24458	1.25347
3.24255	1.35227
3.24052	1.37331
3.2385	1.2064
3.23648	1.13382
3.23446	1.13238
3.23244	1.20819
3.23043	1.10759
3.22841	0.996326
3.2264	1.05432
3.2244	1.0255
3.22239	0.962628
3.22039	1.06459
3.21839	1.17477
3.2164	1.14758
3.2144	1.10868
3.21241	1.0195
3.21042	0.961776
3.20844	0.959684
3.20645	0.936065
3.20447	0.933939
3.20249	1.04777
3.20051	1.07224
3.19854	1.00028
3.19657	0.923061
3.1946	0.916733
3.19263	0.91186
3.19067	0.994544
3.1887	1.07431
3.18674	0.974836
3.18479	0.872319
3.18283	0.831218
3.18088	0.767794
3.17893	0.751484
3.17698	0.89559
3.17504	0.928313
3.17309	0.861256
3.17115	0.856927
3.16921	0.885494
3.16728	0.906396
3.16534	0.956164
3.16341	0.935095
3.16148	0.801875
3.15956	0.739826
3.15763	0.689237
3.15571	0.733393
3.15379	0.767898
3.15187	0.809818
3.14996	0.894404
3.14805	0.802875
3.14614	0.761371
3.14423	0.786467
3.14232	0.788452
3.14042	0.800431
3.13852	0.865267
3.13662	0.702101
3.13472	0.527677
3.13283	0.704181
3.13094	0.852562
3.12905	0.763964
3.12716	0.709978
3.12528	0.728121
3.12339	0.771809
3.12151	0.90753
3.11964	0.826466
3.11776	0.682544
3.11589	0.688358
3.11401	0.758976
3.11214	0.678529
3.11028	0.555897
3.10841	0.625843
3.10655	0.74426
3.10469	0.819151
3.10283	0.888056
3.10098	0.822418
3.09912	0.699585
3.09727	0.624219
3.09542	0.662263
3.09358	0.728836
3.09173	0.730939
3.08989	0.791767
3.08805	0.741458
3.08621	0.71518
3.08437	0.61122
3.08254	0.550228
3.08071	0.664737
3.07888	0.754034
3.07705	0.717638
3.07523	0.76211
3.0734	0.777914
3.07158	0.812266
3.06977	0.83663
3.06795	0.726002
3.06613	0.62538
3.06432	0.606894
3.06251	0.662876
3.0607	0.773227
3.0589	0.849235
3.0571	0.735145
3.05529	0.674727
3.05349	0.686449
3.0517	0.793601
3.0499	0.698356
3.04811	0.5274
3.04632	0.569376
3.04453	0.671555
3.04274	0.731589
3.04096	0.728267
3.03918	0.632487
3.0374	0.710008
3.03562	0.774763
3.03384	0.76139
3.03207	0.759972
3.03029	0.779417
3.02852	0.803086
3.02676	0.754718
3.02499	0.616551
3.02323	0.544102
3.02146	0.639865
3.0197	0.669539
3.01795	0.689631
3.01619	0.714658
3.01444	0.686781
3.01269	0.646659
3.01094	0.650862
3.00919	0.578098
3.00744	0.452776
3.0057	0.466734
3.00396	0.582615
3.00222	0.704802
3.00048	0.660439
2.99875	0.60903
2.99701	0.562265
2.99528	0.618319
2.99355	0.650329
2.99183	0.639656
2.9901	0.664665
2.98838	0.614438
2.98666	0.503002
2.98494	0.569504
2.98322	0.731582
2.9815	0.626124
2.97979	0.561658
2.97808	0.607678
2.97637	0.620461
2.97466	0.624413
2.97295	0.523009
2.97125	0.541201
2.96955	0.528341
2.96785	0.431178
2.96615	0.42206
2.96446	0.393408
2.96276	0.501892
2.96107	0.711679
2.95938	0.639169
2.95769	0.450358
2.95601	0.415488
2.95432	0.479471
2.95264	0.471769
2.95096	0.47084
2.94928	0.646187
2.9476	0.633001
2.94593	0.503084
2.94425	0.549453
2.94258	0.659615
2.94092	0.628647
2.93925	0.51624
2.93758	0.405602
2.93592	0.442413
2.93426	0.610751
2.9326	0.754419
2.93094	0.770397
2.92928	0.732493
2.92763	0.72568
2.92598	0.59372
2.92433	0.455774
2.92268	0.50468
2.92103	0.533695
2.91939	0.52408
2.91775	0.618443
2.9161	0.679067
2.91447	0.699208
2.91283	0.649683
2.91119	0.519057
2.90956	0.493956
2.90793	0.585986
2.9063	0.665357
2.90467	0.676743
2.90304	0.61627
2.90142	0.478722
2.89979	0.436762
2.89817	0.439645
2.89656	0.478631
2.89494	0.582244
2.89332	0.664754
2.89171	0.615576
2.8901	0.662874
2.88849	0.661223
2.88688	0.648201
2.88527	0.607944
2.88367	0.618576
2.88206	0.645502
2.88046	0.582179
2.87886	0.598566
2.87727	0.559163
2.87567	0.546907
2.87408	0.502682
2.87248	0.477464
2.87089	0.471104
2.8693	0.592811
2.86772	0.731527
2.86613	0.836676
2.86455	0.840451
2.86297	0.759609
2.86139	0.638459
2.85981	0.711172
2.85823	0.742351
2.85666	0.552003
2.85508	0.380594
2.85351	0.436962
2.85194	0.724056
2.85038	0.649103
2.84881	0.634297
2.84724	0.874028
2.84568	0.885404
2.84412	0.694005
2.84256	0.752207
2.841	0.816378
2.83945	0.664022
2.83789	0.572239
2.83634	0.715061
2.83479	0.761704
2.83324	0.617825
2.83169	0.48563
2.83015	0.627814
2.82861	0.831506
2.82706	0.683954
2.82552	0.580407
2.82398	0.693804
2.82245	0.675551
2.82091	0.75558
2.81938	0.80712
2.81784	0.597107
2.81631	0.39035
2.81479	0.514804
2.81326	0.580578
2.81173	0.51628
2.81021	0.403378
2.80869	0.372295
2.80716	0.48355
2.80565	0.60654
2.80413	0.525729
2.80261	0.393558
2.8011	0.402079
2.79959	0.418157
2.79808	0.429214
2.79657	0.404013
2.79506	0.393427
2.79355	0.442498
2.79205	0.405454
2.79055	0.321144
2.78904	0.219284
2.78754	0.460861
2.78605	0.823355
2.78455	0.683612
2.78306	0.609937
2.78156	0.493401
2.78007	0.526538
2.77858	0.437597
2.77709	0.487304
2.77561	0.686478
2.77412	0.616206
2.77264	0.425452
2.77116	0.406204
2.76968	0.531641
2.7682	0.688904
2.76672	0.649423
2.76524	0.388059
2.76377	0.490822
2.7623	0.51651
2.76083	0.50203
2.75936	0.574217
2.75789	0.55893
2.75642	0.30968
2.75496	0.352798
2.7535	0.509467
2.75203	0.561382
2.75057	0.594219
2.74912	0.797702
2.74766	0.743939
2.7462	0.521212
2.74475	0.656663
2.7433	0.585128
2.74185	0.430484
2.7404	0.538401
2.73895	0.634178
2.7375	0.709256
2.73606	0.868284
2.73462	0.88778
2.73318	0.924121
2.73174	0.953653
2.7303	0.862175
2.72886	0.97843
2.72742	0.990506
2.72599	0.975581
2.72456	1.10624
2.72313	1.14454
2.7217	1.20972
2.72027	1.227
2.71884	1.22611
2.71742	1.23044
2.71599	1.11876
2.71457	1.04718
2.71315	1.04391
2.71173	0.920711
2.71032	0.791734
2.7089	0.868706
2.70748	1.21373
2.70607	1.83347
2.70466	2.10646
2.70325	2.32447
2.70184	2.63944
2.70043	2.88436
2.69903	3.07926
2.69762	3.40213
2.69622	3.5476
2.69482	3.69999
2.69342	3.95116
2.69202	3.97477
2.69062	4.0979
2.68923	4.31184
2.68783	4.51333
2.68644	5.04199
2.68505	5.86171
2.68366	6.41601
2.68227	6.83432
2.68089	7.1527
2.6795	7.35769
2.67812	7.73411
2.67673	8.01809
2.67535	8.22703
2.67397	8.64281
2.6726	8.98203
2.67122	9.0294
2.66984	9.25135
2.66847	9.59259
2.6671	9.89036
2.66572	10.1863
2.66435	10.4233
2.66299	10.7667
2.66162	11.1249
2.66025	11.3963
2.65889	11.6165
2.65753	11.745
2.65616	11.933
2.65481	12.1509
2.65345	12.4019
2.65209	12.6946
2.65073	12.8261
2.64938	13.0137
2.64803	13.3125
2.64667	13.3923
2.64532	13.6092
2.64397	13.8957
2.64263	14.1513
2.64128	14.3799
2.63994	14.5361
2.63859	14.5822
2.63725	14.5825
2.63591	14.5797
2.63457	14.6473
2.63323	14.8705
2.6319	15.1525
2.63056	15.2115
2.62923	15.4208
2.62789	15.6292
2.62656	15.7539
2.62523	15.9865
2.6239	16.2122
2.62258	16.2116
2.62125	16.2887
2.61993	16.5661
2.6186	16.8228
2.61728	16.8089
2.61596	16.8698
2.61464	17.0166
2.61332	17.0668
2.61201	17.2469
2.61069	17.471
2.60938	17.497
2.60807	17.5842
2.60675	17.4728
2.60544	17.3408
2.60414	17.6527
2.60283	17.9214
2.60152	17.9945
2.60022	18.1819
2.59891	18.1054
2.59761	18.0998
2.59631	18.0647
2.59501	18.0777
2.59371	18.301
2.59242	18.4306
2.59112	18.3144
2.58983	18.316
2.58853	18.3824
2.58724	18.2963
2.58595	18.3736
2.58466	18.2823
2.58338	18.2672
2.58209	18.4983
2.5808	18.5866
2.57952	18.5806
2.57824	18.6027
2.57695	18.5678
2.57567	18.5091
2.5744	18.5009
2.57312	18.5912
2.57184	18.6444
2.57057	18.4462
2.56929	18.4491
2.56802	18.5884
2.56675	18.5795
2.56548	18.4946
2.56421	18.4615
2.56294	18.4211
2.56168	18.3644
2.56041	18.4106
2.55915	18.5323
2.55789	18.4846
2.55662	18.3624
2.55536	18.3838
2.5541	18.4285
2.55285	18.3536
2.55159	18.3515
2.55034	18.4259
2.54908	18.467
2.54783	18.3825
2.54658	18.2478
2.54533	18.1806
2.54408	18.1457
2.54283	18.1444
2.54159	18.1513
2.54034	18.1359
2.5391	18.1057
2.53785	18.0311
2.53661	17.9851
2.53537	18.0633
2.53413	18.1688
2.53289	18.2063
2.53166	18.193
2.53042	18.2227
2.52919	18.3182
2.52795	18.3108
2.52672	18.2394
2.52549	18.2552
2.52426	18.4151
2.52303	18.4835
2.52181	18.4481
2.52058	18.4598
2.51936	18.4924
2.51813	18.5296
2.51691	18.7444
2.51569	18.9828
2.51447	19.0714
2.51325	19.068
2.51203	19.1802
2.51082	19.3478
2.5096	19.4668
2.50839	19.5042
2.50717	19.6528
2.50596	19.7268
2.50475	19.785
2.50354	19.8771
2.50233	20.0026
2.50113	20.1872
2.49992	20.4252
2.49872	20.5619
2.49751	20.6282
2.49631	20.7309
2.49511	20.8156
2.49391	20.9725
2.49271	21.1122
2.49151	21.3622
2.49031	21.7445
2.48912	21.7689
2.48792	21.7726
2.48673	22.0094
2.48554	22.0742
2.48435	22.1996
2.48316	22.3287
2.48197	22.5014
2.48078	22.6007
2.4796	22.7089
2.47841	22.9196
2.47723	23.1423
2.47604	23.334
2.47486	23.3861
2.47368	23.4438
2.4725	23.546
2.47132	23.7754
2.47014	23.9915
2.46897	24.1401
2.46779	24.2752
2.46662	24.4043
2.46545	24.4688
2.46427	24.4394
2.4631	24.4898
2.46193	24.6484
2.46077	24.7999
2.4596	24.8565
2.45843	24.785
2.45727	24.81
2.4561	25.004
2.45494	25.085
2.45378	25.1806
2.45262	25.337
2.45146	25.3791
2.4503	25.3823
2.44914	25.5216
2.44799	25.678
2.44683	25.7865
2.44568	25.781
2.44452	25.7061
2.44337	25.7589
2.44222	25.797
2.44107	25.7064
2.43992	25.6278
2.43877	25.6998
2.43763	26.0144
2.43648	26.1486
2.43534	26.0446
2.43419	26.0351
2.43305	26.1801
2.43191	26.2651
2.43077	26.2207
2.42963	26.2175
2.42849	26.4397
2.42736	26.6295
2.42622	26.566
2.42509	26.6009
2.42395	26.7247
2.42282	26.6828
2.42169	26.7657
2.42056	26.9718
2.41943	27.1381
2.4183	27.3238
2.41717	27.3032
2.41605	27.1438
2.41492	27.2128
2.4138	27.3376
2.41267	27.2444
2.41155	27.4076
2.41043	27.6016
2.40931	27.6808
2.40819	27.7035
2.40707	27.8517
2.40595	28.1465
2.40484	28.2671
2.40372	28.4953
2.40261	28.5113
2.4015	28.4371
2.40039	28.444
2.39928	28.6004
2.39817	28.7789
2.39706	28.7101
2.39595	28.4911
2.39484	28.3886
2.39374	28.1454
2.39263	28.0193
2.39153	27.9682
2.39043	27.982
2.38932	28.0967
2.38822	28.2076
2.38712	28.4474
2.38603	28.8478
2.38493	29.1545
2.38383	29.4801
2.38274	29.7833
2.38164	30.0986
2.38055	30.4801
2.37946	30.8207
2.37836	31.1628
2.37727	31.5803
2.37618	32.1075
2.3751	32.6778
2.37401	33.1567
2.37292	33.5646
2.37184	33.8998
2.37075	34.2085
2.36967	34.6441
2.36859	34.9083
2.3675	35.057
2.36642	35.135
2.36534	35.2751
2.36427	35.4434
2.36319	35.6822
2.36211	36.0123
2.36104	36.417
2.35996	36.6695
2.35889	36.8751
2.35781	37.2529
2.35674	37.4407
2.35567	37.5779
2.3546	37.8722
2.35353	38.1544
2.35247	38.3514
2.3514	38.486
2.35033	38.6379
2.34927	38.9864
2.3482	39.3659
2.34714	39.4703
2.34608	39.7709
2.34502	40.1464
2.34396	40.2458
2.3429	40.3433
2.34184	40.5739
2.34078	40.9119
2.33973	41.1434
2.33867	41.2643
2.33762	41.2596
2.33656	41.2343
2.33551	41.3212
2.33446	41.3865
2.33341	41.2266
2.33236	41.1346
2.33131	41.1183
2.33026	40.9452
2.32922	40.4586
2.32817	39.8165
2.32712	39.319
2.32608	38.8881
2.32504	38.1291
2.324	37.3885
2.32295	36.9016
2.32191	36.3875
2.32087	35.7986
2.31984	35.3012
2.3188	34.7564
2.31776	34.2967
2.31673	33.9193
2.31569	33.3684
2.31466	32.8258
2.31362	32.621
2.31259	32.8315
2.31156	33.1116
2.31053	33.4397
2.3095	34.0846
2.30847	34.9905
2.30745	35.8975
2.30642	36.7876
2.3054	37.6646
2.30437	38.3609
2.30335	38.8269
2.30232	39.1717
2.3013	39.4954
2.30028	39.5598
2.29926	39.6634
2.29824	39.6866
2.29722	39.7987
2.29621	40.1035
2.29519	40.2721
2.29417	40.4315
2.29316	40.4447
2.29215	40.4459
2.29113	40.6107
2.29012	41.0036
2.28911	41.3371
2.2881	41.6932
2.28709	42.1953
2.28608	42.8365
2.28507	43.4798
2.28407	44.1736
2.28306	44.8414
2.28206	45.3727
2.28105	45.85
2.28005	46.4865
2.27905	47.1007
2.27805	47.6175
2.27705	47.8894
2.27605	48.0517
2.27505	48.4903
2.27405	49.0134
2.27305	49.1149
2.27206	49.1803
2.27106	49.3377
2.27007	49.5342
2.26907	49.7384
2.26808	49.8797
2.26709	50.1715
2.2661	50.4024
2.26511	50.5532
2.26412	50.6507
2.26313	50.7983
2.26214	51.0092
2.26116	51.1874
2.26017	51.3359
2.25919	51.5222
2.2582	51.6976
2.25722	51.8371
2.25624	52.027
2.25526	52.0533
2.25428	52.0934
2.2533	52.2416
2.25232	52.3315
2.25134	52.3996
2.25036	52.5548
2.24939	52.6086
2.24841	52.6987
2.24744	52.8336
2.24646	52.9235
2.24549	52.9505
2.24452	52.8982
2.24355	52.8296
2.24257	52.8763
2.24161	53.0562
2.24064	53.0579
2.23967	53.101
2.2387	53.2161
2.23774	53.2784
2.23677	53.1573
2.23581	53.1106
2.23484	53.2089
2.23388	53.1715
2.23292	53.2026
2.23196	53.1311
2.231	53.082
2.23004	53.1971
2.22908	53.3382
2.22812	53.2782
2.22716	53.2674
2.22621	53.2718
2.22525	53.3097
2.2243	53.3638
2.22334	53.5333
2.22239	53.7342
2.22144	53.7889
2.22049	53.5668
2.21953	53.5076
2.21859	53.6581
2.21764	53.6563
2.21669	53.6931
2.21574	53.7933
2.21479	53.9697
2.21385	54.2399
2.2129	54.3535
2.21196	54.316
2.21102	54.3552
2.21007	54.4975
2.20913	54.6568
2.20819	54.8327
2.20725	54.9068
2.20631	54.9171
2.20537	54.8471
2.20444	54.8747
2.2035	55.0907
2.20256	55.0943
2.20163	54.9783
2.20069	55.0338
2.19976	55.0235
2.19883	55.102
2.19789	55.1063
2.19696	55.0286
2.19603	55.0275
2.1951	55.0056
2.19417	54.9048
2.19325	54.8338
2.19232	54.8982
2.19139	54.8904
2.19047	54.6848
2.18954	54.5653
2.18862	54.4789
2.18769	54.3737
2.18677	54.3463
2.18585	54.3667
2.18493	54.4755
2.18401	54.5829
2.18309	54.583
2.18217	54.7133
2.18125	55.0453
2.18033	55.2881
2.17942	55.2787
2.1785	55.367
2.17759	55.4372
2.17667	55.3766
2.17576	55.4579
2.17485	55.4985
2.17393	55.7208
2.17302	55.9768
2.17211	55.8947
2.1712	55.8141
2.17029	55.8987
2.16939	55.8226
2.16848	55.9708
2.16757	56.1649
2.16667	56.2154
2.16576	56.1406
2.16486	56.0863
2.16395	56.2058
2.16305	56.3568
2.16215	56.4252
2.16125	56.2338
2.16035	56.0794
2.15945	56.1431
2.15855	56.2513
2.15765	56.2319
2.15675	56.2678
2.15586	56.497
2.15496	56.4808
2.15406	56.3935
2.15317	56.4193
2.15228	56.3725
2.15138	56.2863
2.15049	56.1378
2.1496	56.1424
2.14871	56.2558
2.14782	56.2795
2.14693	56.2776
2.14604	56.4794
2.14515	56.5778
2.14427	56.3444
2.14338	56.2359
2.14249	56.5511
2.14161	56.5926
2.14072	56.4377
2.13984	56.5966
2.13896	56.6356
2.13808	56.7004
2.13719	56.7719
2.13631	56.8758
2.13543	56.9372
2.13455	56.9011
2.13368	56.7061
2.1328	56.6585
2.13192	56.8083
2.13105	56.8478
2.13017	56.8784
2.1293	56.7677
2.12842	56.5614
2.12755	56.4108
2.12668	56.4577
2.1258	56.6556
2.12493	56.5281
2.12406	56.2939
2.12319	56.2303
2.12232	56.2115
2.12145	56.2341
2.12059	56.1853
2.11972	56.0428
2.11885	55.9593
2.11799	55.9128
2.11712	55.8551
2.11626	55.9077
2.1154	55.9861
2.11453	56.0557
2.11367	56.089
2.11281	56.0517
2.11195	55.9422
2.11109	55.9252
2.11023	55.887
2.10937	55.7461
2.10851	55.5735
2.10766	55.5013
2.1068	55.3913
2.10594	55.3349
2.10509	55.4673
2.10423	55.5711
2.10338	55.6291
2.10253	55.5999
2.10168	55.3846
2.10082	55.0805
2.09997	55.0626
2.09912	55.2298
2.09827	55.4089
2.09742	55.1706
2.09658	54.9338
2.09573	54.8257
2.09488	54.7273
2.09404	54.5323
2.09319	54.3946
2.09235	54.4544
2.0915	54.4948
2.09066	54.5023
2.08982	54.5124
2.08897	54.5063
2.08813	54.4925
2.08729	54.5429
2.08645	54.5349
2.08561	54.262
2.08477	54.0039
2.08394	53.9534
2.0831	53.9784
2.08226	54.1134
2.08143	54.2259
2.08059	53.8763
2.07976	53.84
2.07892	53.8259
2.07809	53.7238
2.07726	53.8162
2.07643	54.0102
2.07559	53.9651
2.07476	53.7306
2.07393	53.6916
2.0731	53.2869
2.07228	53.3746
2.07145	53.5849
2.07062	53.5325
2.06979	53.3209
2.06897	53.2844
2.06814	53.2897
2.06732	53.1654
2.06649	53.0296
2.06567	52.8911
2.06485	52.9992
2.06403	53.1258
2.0632	53.2281
2.06238	53.2242
2.06156	53.2003
2.06074	53.1452
2.05993	52.7995
2.05911	52.5471
2.05829	52.6996
2.05747	52.8157
2.05666	52.5854
2.05584	52.5605
2.05503	52.7967
2.05421	52.697
2.0534	52.7219
2.05259	52.5405
2.05177	52.5481
2.05096	52.6724
2.05015	52.6304
2.04934	52.4562
2.04853	52.1055
2.04772	52.0223
2.04691	52.1955
2.04611	52.0717
2.0453	51.9231
2.04449	51.8678
2.04369	51.6748
2.04288	51.5319
2.04208	51.484
2.04127	51.4292
2.04047	51.4021
2.03967	51.2979
2.03886	51.1752
2.03806	51.0823
2.03726	50.9478
2.03646	50.927
2.03566	50.7024
2.03486	50.5049
2.03407	50.7246
2.03327	50.5165
2.03247	50.0361
2.03167	50.1382
2.03088	50.334
2.03008	50.0469
2.02929	49.9837
2.0285	50.0021
2.0277	49.6871
2.02691	49.2186
2.02612	49.0922
2.02533	48.963
2.02453	48.7403
2.02374	48.6653
2.02295	48.6623
2.02217	48.4816
2.02138	48.0762
2.02059	47.6609
2.0198	47.5484
2.01902	47.5152
2.01823	47.3898
2.01744	47.2308
2.01666	47.0622
2.01588	46.8405
2.01509	46.5002
2.01431	46.4035
2.01353	46.2046
2.01275	46.0539
2.01196	45.8357
2.01118	45.563
2.0104	45.2846
2.00963	45.0605
2.00885	44.8893
2.00807	44.6408
2.00729	44.4983
2.00651	44.4078
2.00574	44.0131
2.00496	43.8673
2.00419	43.8197
2.00341	43.4485
2.00264	43.2522
2.00187	43.2661
2.00109	42.9276
2.00032	42.6065
