Name: Gahnite ZnAl_2O_4
Type: Mineral
Class: Oxides
Subclass: 
Particle Size: 125-500um
Sample No.: O-11A
Owner: JPL
Wavelength range: IR
Origin: Nigeria, Kaduna, Jemaa, Godogodo Mine
Collected by New, David
Description: 





Measurement: Hemispherical reflectance
First Column: X
Second Column: Y
X Units:  Wavelength (micrometers)
Y Units:  Reflectance (percent)
First X Value: 15.3853
Last X Value: 2.00032
Number of X Values: 2256
Additional information: o11aa.txt
 
15.3853	32.243
15.3397	36.0779
15.2945	39.2699
15.2495	41.6833
15.2048	43.5698
15.1603	45.3392
15.1161	46.6641
15.0722	47.8907
15.0285	49.198
14.9851	50.0989
14.9419	50.7424
14.8989	51.4741
14.8563	51.6942
14.8138	51.728
14.7716	51.7356
14.7296	51.6524
14.6879	51.7197
14.6464	52.0891
14.6052	52.2423
14.5641	52.4108
14.5233	52.6158
14.4828	52.639
14.4424	52.7192
14.4023	52.7831
14.3624	52.914
14.3227	53.0029
14.2833	52.962
14.244	52.9901
14.205	52.9993
14.1662	53.0992
14.1276	53.1671
14.0892	53.2069
14.051	53.1287
14.0131	53.0977
13.9753	52.9322
13.9377	52.7742
13.9004	52.6095
13.8632	52.4669
13.8262	52.1678
13.7895	51.9447
13.7529	51.7746
13.7165	51.4658
13.6803	51.1653
13.6443	50.9442
13.6085	50.8069
13.5729	50.4554
13.5374	50.0445
13.5022	49.7201
13.4671	49.5201
13.4322	49.3006
13.3975	48.8311
13.363	48.266
13.3286	47.6921
13.2944	47.1978
13.2604	46.7463
13.2266	46.3736
13.193	45.7622
13.1595	45.1747
13.1262	44.7067
13.093	44.3803
13.06	44.1426
13.0272	43.9169
12.9946	43.5367
12.9621	43.1957
12.9298	42.93
12.8976	42.7365
12.8656	42.4357
12.8337	41.9905
12.8021	41.5257
12.7705	40.8059
12.7391	39.8823
12.7079	38.7419
12.6769	37.3493
12.6459	36.0842
12.6152	34.9823
12.5845	33.9371
12.5541	32.8546
12.5238	31.8269
12.4936	30.8504
12.4635	29.7523
12.4337	28.5698
12.4039	27.0825
12.3743	25.5901
12.3448	24.3884
12.3155	23.2113
12.2863	21.9943
12.2573	20.7484
12.2284	19.5746
12.1996	18.4533
12.171	17.148
12.1425	15.8199
12.1141	14.6561
12.0859	13.3884
12.0578	12.2868
12.0298	11.3851
12.0019	10.7816
11.9742	10.4546
11.9466	10.2175
11.9192	10.0616
11.8918	9.86086
11.8646	9.6962
11.8375	9.54506
11.8106	9.32579
11.7837	9.41993
11.757	9.86503
11.7304	10.2274
11.7039	10.315
11.6776	10.2262
11.6513	9.96336
11.6252	9.32625
11.5992	8.50292
11.5733	7.57592
11.5475	6.80444
11.5219	6.08925
11.4963	5.2784
11.4709	4.61422
11.4455	4.11891
11.4203	3.77639
11.3952	3.25485
11.3702	2.85013
11.3454	2.65412
11.3206	2.32907
11.2959	2.02029
11.2714	1.86259
11.2469	1.66388
11.2226	1.5128
11.1983	1.32477
11.1742	1.13363
11.1502	1.02187
11.1263	0.942187
11.1024	0.815739
11.0787	0.748101
11.0551	0.66738
11.0316	0.499113
11.0081	0.456561
10.9848	0.504474
10.9616	0.441633
10.9385	0.394989
10.9154	0.396079
10.8925	0.379931
10.8697	0.289786
10.8469	0.228436
10.8243	0.194299
10.8017	0.136372
10.7793	0.177672
10.7569	0.245085
10.7346	0.172068
10.7125	0.192519
10.6904	0.220278
10.6684	0.234641
10.6465	0.295212
10.6247	0.27764
10.6029	0.166665
10.5813	0.230845
10.5597	0.254663
10.5383	0.135804
10.5169	0.0165801
10.4956	0.189767
10.4744	0.365128
10.4533	0.285321
10.4323	0.133252
10.4113	0.141844
10.3904	0.213354
10.3697	0.24616
10.349	0.297225
10.3284	0.352297
10.3078	0.335111
10.2874	0.355006
10.267	0.388496
10.2467	0.365523
10.2265	0.319714
10.2064	0.259672
10.1863	0.403703
10.1663	0.575285
10.1464	0.520444
10.1266	0.554817
10.1069	0.581933
10.0872	0.585152
10.0676	0.566828
10.0481	0.556467
10.0287	0.57276
10.0093	0.561994
9.99005	0.623161
9.97084	0.690861
9.95169	0.712307
9.93263	0.64352
9.91364	0.677553
9.89472	0.79305
9.87587	0.865102
9.8571	0.874825
9.83839	0.764621
9.81976	0.68302
9.80119	0.675516
9.78271	0.704338
9.76428	0.859859
9.74592	0.852401
9.72764	0.871595
9.70943	0.976509
9.69128	0.945961
9.6732	1.00976
9.65518	0.987872
9.63724	0.942928
9.61935	1.00742
9.60155	0.994299
9.5838	1.03821
9.56611	1.1267
9.5485	1.2304
9.53094	1.2384
9.51345	1.19097
9.49604	1.22472
9.47867	1.23916
9.46137	1.2414
9.44414	1.28751
9.42697	1.31619
9.40986	1.35293
9.39281	1.44317
9.37583	1.28974
9.35891	1.20211
9.34204	1.39646
9.32524	1.47521
9.3085	1.43728
9.29182	1.42619
9.27519	1.5326
9.25863	1.63233
9.24213	1.70891
9.22568	1.72442
9.2093	1.62602
9.19297	1.62692
9.17669	1.7076
9.16048	1.64838
9.14433	1.64064
9.12823	1.77196
9.11218	1.84674
9.0962	1.72452
9.08027	1.57427
9.06439	1.6007
9.04858	1.6256
9.03281	1.71543
9.0171	1.78976
9.00145	1.83997
8.98585	1.80211
8.9703	1.78303
8.9548	1.82211
8.93937	1.7666
8.92398	1.75556
8.90865	1.91781
8.89337	2.00762
8.87814	1.93777
8.86296	1.85781
8.84784	1.89649
8.83277	1.98131
8.81774	2.1015
8.80277	1.98094
8.78786	1.90364
8.77298	1.90223
8.75816	1.90824
8.7434	1.90059
8.72868	1.94426
8.714	2.03505
8.69938	1.96147
8.68481	1.87387
8.67029	1.89984
8.65581	1.86581
8.64139	1.90841
8.62701	2.00041
8.61268	2.03627
8.5984	2.04479
8.58416	2.21273
8.56997	2.39182
8.55583	2.50773
8.54174	2.63838
8.52769	2.72739
8.51368	2.73433
8.49973	2.75621
8.48582	2.75816
8.47195	2.84809
8.45813	2.98728
8.44436	3.0233
8.43062	3.15786
8.41693	3.27872
8.4033	3.34318
8.3897	3.51025
8.37614	3.36547
8.36264	3.33616
8.34917	3.54469
8.33574	3.68117
8.32236	3.71926
8.30903	3.81842
8.29573	3.93157
8.28248	3.99838
8.26927	4.08639
8.2561	4.10301
8.24298	4.05043
8.2299	4.05568
8.21685	4.16582
8.20385	4.21325
8.19089	4.27346
8.17797	4.3922
8.16509	4.40018
8.15225	4.43535
8.13946	4.48629
8.1267	4.58572
8.11398	4.6468
8.10131	4.83196
8.08867	4.91092
8.07606	5.00441
8.0635	4.97022
8.05099	5.02183
8.0385	5.21656
8.02606	5.30121
8.01366	5.2531
8.00129	5.3637
7.98896	5.4255
7.97667	5.3837
7.96442	5.33089
7.9522	5.36892
7.94002	5.47471
7.92788	5.48047
7.91578	5.36192
7.90371	5.28305
7.89168	5.3319
7.87969	5.39581
7.86773	5.402
7.85581	5.37388
7.84392	5.22525
7.83207	5.19858
7.82026	5.33011
7.80849	5.26436
7.79674	5.22331
7.78503	5.3147
7.77337	5.45827
7.76173	5.61588
7.75012	5.75775
7.73856	5.99879
7.72703	6.23842
7.71553	6.55225
7.70406	6.80064
7.69263	7.07908
7.68123	7.49657
7.66987	7.84611
7.65855	8.16761
7.64725	8.54565
7.63598	8.8217
7.62475	9.01068
7.61356	9.20547
7.60239	9.46536
7.59126	9.7081
7.58017	9.93663
7.5691	10.1393
7.55806	10.3082
7.54707	10.4373
7.5361	10.5314
7.52516	10.5738
7.51425	10.6529
7.50338	10.8009
7.49253	10.869
7.48172	10.8313
7.47094	10.8729
7.46019	10.9346
7.44947	10.9811
7.43879	11.0142
7.42813	11.1509
7.4175	11.3711
7.4069	11.5264
7.39634	11.6555
7.3858	11.7812
7.37529	11.8876
7.36482	11.8579
7.35437	11.9038
7.34396	12.0936
7.33357	12.2033
7.32321	12.2085
7.31288	12.3104
7.30258	12.4032
7.29231	12.4179
7.28207	12.4587
7.27185	12.4441
7.26167	12.4027
7.25152	12.3698
7.24139	12.366
7.23129	12.3866
7.22122	12.2694
7.21117	12.169
7.20116	12.0786
7.19117	11.9274
7.18121	11.8129
7.17128	11.7092
7.16137	11.5211
7.1515	11.2904
7.14164	10.9742
7.13182	10.764
7.12203	10.6676
7.11225	10.5317
7.10251	10.4298
7.0928	10.2937
7.08311	10.276
7.07344	10.3539
7.06381	10.3924
7.0542	10.5011
7.04461	10.6108
7.03506	10.686
7.02552	10.7632
7.01601	10.8906
7.00653	11.2432
6.99708	11.6262
6.98765	11.9959
6.97824	12.5497
6.96886	13.1591
6.95951	13.8165
6.95018	14.3328
6.94087	14.759
6.9316	15.2072
6.92234	15.6986
6.91311	16.257
6.90391	16.7282
6.89473	17.1268
6.88557	17.4274
6.87644	17.7143
6.86733	18.1336
6.85824	18.2944
6.84918	18.1855
6.84015	18.1033
6.83114	18.0771
6.82215	17.9831
6.81319	17.7588
6.80424	17.6055
6.79532	17.5324
6.78643	17.4464
6.77756	17.3918
6.76871	17.3748
6.75989	17.3462
6.75109	17.528
6.74231	17.9223
6.73355	18.4486
6.72482	18.9887
6.71611	19.6275
6.70742	20.2579
6.69875	20.7476
6.69011	21.3157
6.68149	22.0142
6.67289	22.4951
6.66431	22.9238
6.65576	23.366
6.64722	23.9694
6.63871	24.7111
6.63022	25.0168
6.62175	25.071
6.61331	25.2675
6.60488	25.5453
6.59648	25.9563
6.5881	26.2842
6.57974	26.6549
6.5714	27.0403
6.56308	27.1095
6.55478	27.3337
6.54651	27.5949
6.53825	27.7167
6.53001	28.0068
6.5218	28.4615
6.51361	28.6472
6.50544	28.9047
6.49729	29.4795
6.48915	29.7497
6.48104	29.7117
6.47295	29.7608
6.46488	29.7994
6.45683	30.0138
6.4488	30.2659
6.44079	30.4151
6.4328	30.6906
6.42482	31.0726
6.41687	31.6903
6.40894	31.7181
6.40103	31.3705
6.39314	31.4437
6.38526	31.6108
6.37741	31.7456
6.36957	31.9986
6.36176	32.1251
6.35396	32.333
6.34618	32.7545
6.33843	32.7318
6.33069	32.6657
6.32297	32.7948
6.31527	32.9655
6.30758	33.2016
6.29992	33.3326
6.29227	33.4368
6.28465	33.5504
6.27704	33.7631
6.26945	33.9683
6.26188	34.1636
6.25432	34.3627
6.24679	34.4902
6.23927	34.6222
6.23177	34.768
6.22429	34.8905
6.21683	35.1493
6.20938	35.3708
6.20195	35.4877
6.19454	35.7007
6.18715	36.185
6.17978	36.2516
6.17242	36.2021
6.16508	36.5429
6.15776	36.7461
6.15045	36.7747
6.14317	36.9407
6.1359	37.1164
6.12864	37.2273
6.12141	37.6115
6.11419	38.1167
6.10699	38.0434
6.0998	37.9072
6.09263	38.0552
6.08549	38.3202
6.07835	38.7419
6.07123	39.025
6.06413	39.0089
6.05705	39.3361
6.04998	40.0913
6.04293	39.9205
6.0359	39.5694
6.02888	39.6354
6.02187	39.9038
6.01489	40.1799
6.00792	40.2862
6.00096	40.4794
5.99403	40.89
5.98711	41.0734
5.9802	40.9733
5.97331	41.2175
5.96644	41.446
5.95958	41.3571
5.95274	41.5583
5.94591	41.9086
5.9391	42.4966
5.9323	42.521
5.92552	42.2794
5.91876	42.4559
5.91201	42.6236
5.90528	42.8984
5.89856	43.4826
5.89186	43.6104
5.88517	43.9206
5.8785	44.1798
5.87184	43.8381
5.8652	44.0245
5.85857	44.178
5.85196	44.2533
5.84536	44.3624
5.83878	44.6096
5.83221	44.8937
5.82566	45.3448
5.81912	45.5771
5.81259	45.4112
5.80608	45.4461
5.79959	45.626
5.79311	45.7591
5.78665	45.9283
5.78019	46.094
5.77376	46.4212
5.76734	46.9954
5.76093	46.9901
5.75453	46.871
5.74815	47.0822
5.74179	47.1355
5.73543	47.2664
5.7291	47.462
5.72277	47.7276
5.71646	48.0901
5.71017	48.4113
5.70389	48.3786
5.69762	48.4613
5.69136	48.7322
5.68513	48.9417
5.6789	49.2354
5.67268	49.3724
5.66648	49.3312
5.6603	49.5264
5.65413	49.738
5.64797	49.9298
5.64182	50.1698
5.63569	50.0742
5.62957	50.0136
5.62347	50.1065
5.61737	50.2379
5.61129	50.3443
5.60522	50.4779
5.59917	50.5691
5.59313	50.666
5.5871	50.9072
5.58109	51.2484
5.57509	51.3278
5.5691	51.2583
5.56312	51.3519
5.55716	51.5808
5.55121	51.781
5.54528	51.8662
5.53935	51.9471
5.53344	52.0457
5.52754	52.2529
5.52166	52.3828
5.51578	52.4473
5.50992	52.5527
5.50407	52.7149
5.49823	52.8694
5.49241	53.0426
5.4866	53.191
5.4808	53.3955
5.47501	53.5445
5.46923	53.6905
5.46347	53.8213
5.45772	53.8306
5.45198	53.9109
5.44625	54.0151
5.44054	54.1061
5.43484	54.2274
5.42914	54.382
5.42347	54.6033
5.4178	54.5587
5.41214	54.4696
5.4065	54.5044
5.40087	54.5759
5.39525	54.6299
5.38964	54.6355
5.38404	54.6215
5.37846	54.6491
5.37288	54.7533
5.36732	54.8884
5.36177	55.0129
5.35623	55.1734
5.35071	55.3405
5.34519	55.4001
5.33968	55.4593
5.33419	55.5253
5.32871	55.5749
5.32324	55.6373
5.31778	55.744
5.31233	55.8814
5.30689	55.9724
5.30147	56.1159
5.29605	56.3195
5.29065	56.4932
5.28525	56.5824
5.27987	56.7029
5.2745	56.8324
5.26914	56.9464
5.26379	57.0548
5.25845	57.187
5.25312	57.3492
5.24781	57.5354
5.2425	57.7379
5.23721	57.9072
5.23192	57.9675
5.22665	58.1178
5.22138	58.3511
5.21613	58.6193
5.21089	58.7543
5.20566	58.7736
5.20044	58.9642
5.19522	59.1363
5.19002	59.1812
5.18483	59.2173
5.17965	59.3176
5.17448	59.4699
5.16933	59.5853
5.16418	59.6591
5.15904	59.7471
5.15391	59.8528
5.14879	59.9137
5.14368	59.9473
5.13859	60.0535
5.1335	60.1771
5.12842	60.2648
5.12335	60.4016
5.1183	60.5117
5.11325	60.5397
5.10821	60.5855
5.10318	60.7175
5.09817	60.8168
5.09316	60.8772
5.08816	60.9592
5.08317	61.0424
5.07819	61.0656
5.07322	61.152
5.06826	61.224
5.06331	61.2573
5.05837	61.3138
5.05344	61.4116
5.04852	61.5194
5.04361	61.5745
5.03871	61.5987
5.03382	61.7639
5.02894	61.9001
5.02406	61.9412
5.0192	61.9276
5.01435	61.914
5.0095	61.9824
5.00467	62.1274
4.99984	62.2424
4.99502	62.3549
4.99021	62.4394
4.98542	62.515
4.98063	62.5959
4.97585	62.7092
4.97108	62.8492
4.96632	62.94
4.96156	63.0623
4.95682	63.2151
4.95209	63.3144
4.94736	63.4198
4.94264	63.5639
4.93794	63.6761
4.93324	63.719
4.92855	63.7924
4.92387	63.886
4.9192	64.0356
4.91453	64.1846
4.90988	64.3086
4.90524	64.4928
4.9006	64.7435
4.89597	64.921
4.89135	65.1276
4.88674	65.3342
4.88214	65.5264
4.87755	65.6681
4.87296	65.8125
4.86839	65.9239
4.86382	66.0886
4.85926	66.2183
4.85471	66.307
4.85017	66.3716
4.84564	66.4933
4.84111	66.6805
4.8366	66.8185
4.83209	66.8377
4.82759	66.8823
4.8231	67.02
4.81862	67.1797
4.81415	67.2544
4.80968	67.3027
4.80522	67.418
4.80077	67.5543
4.79633	67.623
4.7919	67.6605
4.78747	67.7639
4.78306	67.8384
4.77865	67.9145
4.77425	68.0177
4.76986	68.0693
4.76547	68.1087
4.7611	68.1937
4.75673	68.3229
4.75237	68.4077
4.74802	68.4013
4.74367	68.4074
4.73934	68.5316
4.73501	68.631
4.73069	68.709
4.72638	68.7596
4.72207	68.7851
4.71777	68.832
4.71348	68.8927
4.7092	68.9194
4.70493	68.9511
4.70066	68.9947
4.69641	69.0691
4.69216	69.0766
4.68791	69.0635
4.68368	69.0727
4.67945	69.1094
4.67523	69.1772
4.67102	69.2853
4.66682	69.4202
4.66262	69.4954
4.65843	69.5465
4.65425	69.644
4.65007	69.7627
4.64591	69.8283
4.64175	69.8865
4.6376	69.9453
4.63345	70.0059
4.62932	70.1504
4.62519	70.2591
4.62106	70.2516
4.61695	70.2727
4.61284	70.3624
4.60874	70.4136
4.60465	70.5021
4.60056	70.5704
4.59648	70.6077
4.59241	70.6195
4.58835	70.691
4.58429	70.739
4.58024	70.762
4.5762	70.7955
4.57216	70.8592
4.56814	70.8881
4.56411	70.9378
4.5601	70.9529
4.55609	70.8966
4.55209	70.8693
4.5481	70.9451
4.54411	71.0226
4.54013	70.9866
4.53616	70.9854
4.5322	71.0501
4.52824	71.0466
4.52429	70.9979
4.52034	70.9353
4.51641	70.8978
4.51247	70.8702
4.50855	70.8438
4.50463	70.7934
4.50072	70.7409
4.49682	70.7311
4.49292	70.7712
4.48903	70.7815
4.48515	70.7933
4.48127	70.7547
4.4774	70.7173
4.47354	70.7695
4.46968	70.8361
4.46584	70.7965
4.46199	70.7518
4.45815	70.7382
4.45432	70.8528
4.4505	70.9164
4.44668	70.9195
4.44287	71.0573
4.43907	71.11
4.43527	71.0543
4.43148	71.0963
4.4277	71.1513
4.42392	71.1972
4.42015	71.2816
4.41638	71.2676
4.41262	71.2383
4.40887	71.3063
4.40513	71.3263
4.40139	71.3114
4.39765	71.3802
4.39393	71.48
4.39021	71.5366
4.38649	71.544
4.38278	71.5622
4.37908	71.5866
4.37539	71.5483
4.3717	71.5469
4.36801	71.5824
4.36434	71.5773
4.36067	71.5602
4.357	71.5755
4.35335	71.6478
4.34969	71.6913
4.34605	71.6242
4.34241	71.5434
4.33877	71.4952
4.33514	71.4785
4.33152	71.4404
4.32791	71.4416
4.3243	71.3906
4.32069	71.343
4.3171	71.2605
4.31351	71.185
4.30992	71.0613
4.30634	70.9756
4.30277	70.8809
4.2992	70.7425
4.29564	70.6151
4.29208	70.5274
4.28853	70.4958
4.28499	70.4037
4.28145	70.2281
4.27792	70.0493
4.27439	69.9238
4.27087	69.7407
4.26735	69.6589
4.26384	69.7891
4.26034	70.006
4.25684	70.1698
4.25335	70.2187
4.24986	70.2453
4.24638	70.2233
4.24291	70.1365
4.23944	70.1087
4.23598	70.1418
4.23252	70.1198
4.22906	70.1615
4.22562	70.2453
4.22218	70.363
4.21874	70.4594
4.21531	70.4452
4.21189	70.47
4.20847	70.5448
4.20506	70.615
4.20165	70.6026
4.19825	70.5843
4.19485	70.5756
4.19146	70.5136
4.18807	70.5095
4.18469	70.4435
4.18132	70.3581
4.17795	70.3808
4.17458	70.3842
4.17123	70.3868
4.16787	70.3066
4.16453	70.1742
4.16118	70.1649
4.15785	70.1987
4.15451	70.0985
4.15119	70.0281
4.14787	70.0005
4.14455	69.8967
4.14124	69.8596
4.13794	69.8402
4.13464	69.8134
4.13134	69.7809
4.12805	69.7051
4.12477	69.5299
4.12149	69.4783
4.11822	69.528
4.11495	69.4805
4.11168	69.3576
4.10843	69.2798
4.10517	69.2641
4.10192	69.2529
4.09868	69.1821
4.09545	69.098
4.09221	69.0448
4.08899	68.9652
4.08576	68.8385
4.08255	68.7358
4.07933	68.641
4.07613	68.5513
4.07292	68.5412
4.06973	68.533
4.06654	68.3727
4.06335	68.227
4.06017	68.1421
4.05699	68.1032
4.05382	68.0139
4.05065	67.9151
4.04749	67.8293
4.04433	67.7749
4.04118	67.691
4.03803	67.5455
4.03489	67.4404
4.03175	67.3586
4.02862	67.2296
4.02549	67.1243
4.02237	66.9897
4.01925	66.8854
4.01614	66.8264
4.01303	66.7276
4.00993	66.5806
4.00683	66.4759
4.00373	66.3675
4.00064	66.24
3.99756	66.0729
3.99448	65.9909
3.9914	65.924
3.98833	65.8556
3.98527	65.794
3.98221	65.6773
3.97915	65.4996
3.9761	65.3097
3.97305	65.1893
3.97001	65.09
3.96697	64.9504
3.96394	64.8385
3.96091	64.6706
3.95789	64.5727
3.95487	64.5365
3.95186	64.4108
3.94885	64.1535
3.94584	63.943
3.94284	63.8831
3.93984	63.8431
3.93685	63.7588
3.93386	63.6395
3.93088	63.475
3.9279	63.3741
3.92493	63.2282
3.92196	63.0293
3.919	62.8677
3.91604	62.7478
3.91308	62.6267
3.91013	62.5226
3.90718	62.383
3.90424	62.2163
3.9013	62.0716
3.89837	61.9403
3.89544	61.817
3.89252	61.6418
3.8896	61.4525
3.88668	61.2653
3.88377	61.1108
3.88086	61.0439
3.87796	60.9223
3.87506	60.6927
3.87217	60.5043
3.86928	60.3892
3.86639	60.194
3.86351	60.0529
3.86064	59.8851
3.85776	59.6892
3.8549	59.5336
3.85203	59.3612
3.84917	59.201
3.84631	59.0877
3.84346	58.9468
3.84062	58.7313
3.83777	58.5135
3.83494	58.3802
3.8321	58.2711
3.82927	58.0701
3.82644	57.9275
3.82362	57.7502
3.82081	57.5361
3.81799	57.3141
3.81518	57.1436
3.81238	57.0475
3.80958	56.8469
3.80678	56.675
3.80399	56.5479
3.8012	56.3563
3.79841	56.1547
3.79563	55.9633
3.79286	55.7842
3.79008	55.5801
3.78731	55.357
3.78455	55.215
3.78179	55.064
3.77903	54.8898
3.77628	54.6899
3.77353	54.4285
3.77079	54.2469
3.76805	54.0846
3.76531	53.9006
3.76258	53.7324
3.75985	53.5332
3.75713	53.3616
3.7544	53.1384
3.75169	52.8369
3.74898	52.5914
3.74627	52.4675
3.74356	52.3663
3.74086	52.231
3.73816	52.0531
3.73547	51.8238
3.73278	51.608
3.7301	51.4069
3.72741	51.1838
3.72474	50.9897
3.72206	50.8153
3.71939	50.5808
3.71673	50.3347
3.71406	50.1695
3.71141	49.9748
3.70875	49.7962
3.7061	49.5943
3.70345	49.3158
3.70081	49.1355
3.69817	49.0555
3.69553	48.8895
3.6929	48.664
3.69027	48.4113
3.68765	48.1772
3.68503	47.997
3.68241	47.7804
3.6798	47.5135
3.67719	47.2983
3.67458	47.1286
3.67198	46.8742
3.66938	46.7492
3.66678	46.6891
3.66419	46.4259
3.66161	46.1644
3.65902	45.9506
3.65644	45.7277
3.65387	45.548
3.65129	45.379
3.64872	45.1083
3.64616	44.7921
3.64359	44.6267
3.64103	44.4671
3.63848	44.1795
3.63593	43.9174
3.63338	43.8076
3.63084	43.6023
3.6283	43.3589
3.62576	43.1206
3.62322	42.8974
3.62069	42.7072
3.61817	42.5318
3.61564	42.3881
3.61312	42.1651
3.61061	41.9149
3.6081	41.7151
3.60559	41.5023
3.60308	41.3319
3.60058	41.0872
3.59808	40.8477
3.59558	40.6264
3.59309	40.3997
3.59061	40.1592
3.58812	39.9082
3.58564	39.71
3.58316	39.4776
3.58069	39.2547
3.57822	39.1315
3.57575	38.9101
3.57328	38.7151
3.57082	38.5444
3.56836	38.2709
3.56591	37.9791
3.56346	37.8003
3.56101	37.6508
3.55857	37.4267
3.55613	37.1115
3.55369	36.9287
3.55126	36.7926
3.54883	36.5163
3.5464	36.2199
3.54397	35.9682
3.54155	35.7843
3.53914	35.6364
3.53672	35.45
3.53431	35.2317
3.5319	34.9724
3.5295	34.7719
3.5271	34.602
3.5247	34.3456
3.52231	34.0051
3.51991	33.7084
3.51753	33.3788
3.51514	33.0002
3.51276	32.5267
3.51038	32.1353
3.50801	31.8854
3.50563	31.774
3.50327	31.7551
3.5009	31.7067
3.49854	31.5338
3.49618	31.2848
3.49382	31.0918
3.49147	31.0267
3.48912	30.9194
3.48677	30.7559
3.48443	30.583
3.48209	30.4278
3.47975	30.2924
3.47742	30.0916
3.47509	29.8949
3.47276	29.7283
3.47044	29.5483
3.46812	29.3485
3.4658	29.1528
3.46348	28.9014
3.46117	28.6745
3.45886	28.4521
3.45656	28.2017
3.45425	28.0136
3.45195	27.8351
3.44966	27.6378
3.44736	27.443
3.44507	27.2203
3.44279	26.9628
3.4405	26.7722
3.43822	26.5875
3.43594	26.3323
3.43367	25.9488
3.43139	25.5339
3.42912	25.2638
3.42686	25.1189
3.42459	24.9686
3.42233	24.7867
3.42007	24.7388
3.41782	24.6104
3.41557	24.4778
3.41332	24.3341
3.41108	24.2552
3.40883	24.1953
3.40659	24.0881
3.40435	23.9295
3.40212	23.7799
3.39989	23.694
3.39766	23.5007
3.39544	23.2535
3.39322	23.0912
3.391	23.0262
3.38878	22.7929
3.38657	22.494
3.38436	22.2788
3.38215	22.2139
3.37994	22.1536
3.37774	22.0021
3.37554	21.7998
3.37335	21.6672
3.37115	21.5589
3.36896	21.4372
3.36678	21.2669
3.36459	21.1139
3.36241	20.9583
3.36023	20.8151
3.35805	20.7017
3.35588	20.5818
3.35371	20.3194
3.35154	20.0591
3.34938	19.9854
3.34721	19.8986
3.34505	19.7538
3.3429	19.6231
3.34074	19.5258
3.33859	19.4024
3.33644	19.1551
3.3343	19.0072
3.33215	18.8845
3.33001	18.6685
3.32788	18.5895
3.32574	18.5156
3.32361	18.3282
3.32148	18.1164
3.31936	17.8426
3.31723	17.6711
3.31511	17.6224
3.31299	17.4897
3.31088	17.3941
3.30876	17.2846
3.30665	17.2177
3.30455	17.0658
3.30244	16.9056
3.30034	16.7283
3.29824	16.5804
3.29614	16.4605
3.29405	16.2528
3.29196	16.1105
3.28987	15.9862
3.28778	15.8365
3.2857	15.6714
3.28362	15.5607
3.28154	15.5653
3.27946	15.5544
3.27739	15.4833
3.27532	15.3011
3.27325	15.0633
3.27119	14.9284
3.26913	14.8258
3.26707	14.6926
3.26501	14.5895
3.26295	14.4884
3.2609	14.3646
3.25885	14.2411
3.2568	14.1814
3.25476	14.1478
3.25272	13.9742
3.25068	13.7798
3.24864	13.733
3.24661	13.5985
3.24458	13.4189
3.24255	13.2351
3.24052	13.1834
3.2385	13.0806
3.23648	12.9368
3.23446	12.8449
3.23244	12.8051
3.23043	12.7251
3.22841	12.6396
3.2264	12.472
3.2244	12.3721
3.22239	12.2421
3.22039	12.1857
3.21839	12.2523
3.2164	12.0726
3.2144	11.8098
3.21241	11.7056
3.21042	11.6941
3.20844	11.6022
3.20645	11.389
3.20447	11.3967
3.20249	11.3079
3.20051	11.2194
3.19854	11.2535
3.19657	11.1348
3.1946	10.9534
3.19263	10.8513
3.19067	10.724
3.1887	10.667
3.18674	10.6824
3.18479	10.5739
3.18283	10.5432
3.18088	10.4439
3.17893	10.3056
3.17698	10.2117
3.17504	10.2197
3.17309	10.1179
3.17115	9.96198
3.16921	9.82161
3.16728	9.81219
3.16534	9.80109
3.16341	9.65238
3.16148	9.58525
3.15956	9.5257
3.15763	9.38662
3.15571	9.25276
3.15379	9.1943
3.15187	9.16151
3.14996	9.13434
3.14805	9.0642
3.14614	8.8523
3.14423	8.81477
3.14232	8.87454
3.14042	8.81378
3.13852	8.67033
3.13662	8.68002
3.13472	8.66899
3.13283	8.55586
3.13094	8.47733
3.12905	8.29831
3.12716	8.21929
3.12528	8.1843
3.12339	8.1936
3.12151	8.03683
3.11964	7.95898
3.11776	8.08041
3.11589	7.99288
3.11401	7.94107
3.11214	7.91838
3.11028	7.75812
3.10841	7.73602
3.10655	7.82785
3.10469	7.67993
3.10283	7.47639
3.10098	7.34413
3.09912	7.21448
3.09727	7.13237
3.09542	7.14914
3.09358	7.26595
3.09173	7.28561
3.08989	6.9838
3.08805	6.87235
3.08621	6.99582
3.08437	7.07787
3.08254	7.0175
3.08071	6.89256
3.07888	6.88041
3.07705	6.81826
3.07523	6.70625
3.0734	6.72477
3.07158	6.6267
3.06977	6.47255
3.06795	6.42328
3.06613	6.50523
3.06432	6.53907
3.06251	6.45517
3.0607	6.31964
3.0589	6.24947
3.0571	6.28064
3.05529	6.41026
3.05349	6.32448
3.0517	6.19961
3.0499	6.21049
3.04811	6.15035
3.04632	6.17299
3.04453	6.09138
3.04274	6.03088
3.04096	6.03342
3.03918	5.96806
3.0374	5.9424
3.03562	5.83398
3.03384	5.80618
3.03207	5.75663
3.03029	5.65116
3.02852	5.58889
3.02676	5.56908
3.02499	5.61183
3.02323	5.72111
3.02146	5.6796
3.0197	5.58266
3.01795	5.73079
3.01619	5.75619
3.01444	5.65777
3.01269	5.53052
3.01094	5.4422
3.00919	5.31949
3.00744	5.22564
3.0057	5.3478
3.00396	5.40664
3.00222	5.32532
3.00048	5.29068
2.99875	5.22877
2.99701	5.24757
2.99528	5.23682
2.99355	5.16632
2.99183	5.14756
2.9901	5.17091
2.98838	5.23545
2.98666	5.2545
2.98494	5.13115
2.98322	4.92569
2.9815	4.89336
2.97979	5.08132
2.97808	5.01828
2.97637	4.91723
2.97466	4.9667
2.97295	4.92548
2.97125	4.83752
2.96955	4.93591
2.96785	5.02235
2.96615	4.8893
2.96446	4.9364
2.96276	5.05735
2.96107	4.94951
2.95938	4.81767
2.95769	4.70573
2.95601	4.70254
2.95432	4.76915
2.95264	4.94442
2.95096	4.86068
2.94928	4.58073
2.9476	4.54084
2.94593	4.56003
2.94425	4.63229
2.94258	4.70818
2.94092	4.62308
2.93925	4.61662
2.93758	4.79304
2.93592	4.69198
2.93426	4.55358
2.9326	4.53066
2.93094	4.56873
2.92928	4.62652
2.92763	4.6257
2.92598	4.66061
2.92433	4.67915
2.92268	4.58693
2.92103	4.52942
2.91939	4.61568
2.91775	4.74789
2.9161	4.71048
2.91447	4.50958
2.91283	4.27934
2.91119	4.21914
2.90956	4.34022
2.90793	4.4369
2.9063	4.5091
2.90467	4.51546
2.90304	4.37947
2.90142	4.37125
2.89979	4.34523
2.89817	4.32214
2.89656	4.34121
2.89494	4.50075
2.89332	4.69434
2.89171	4.61548
2.8901	4.47773
2.88849	4.47935
2.88688	4.47822
2.88527	4.32222
2.88367	4.31664
2.88206	4.3034
2.88046	4.29284
2.87886	4.28205
2.87727	4.24232
2.87567	4.27415
2.87408	4.33581
2.87248	4.2626
2.87089	4.13381
2.8693	4.10973
2.86772	4.13438
2.86613	4.19229
2.86455	4.20384
2.86297	4.2336
2.86139	4.26158
2.85981	4.21944
2.85823	4.19478
2.85666	4.26796
2.85508	4.22767
2.85351	4.05096
2.85194	4.03365
2.85038	4.22904
2.84881	4.25122
2.84724	4.10373
2.84568	4.05983
2.84412	3.98781
2.84256	3.94184
2.841	4.11034
2.83945	4.30927
2.83789	4.061
2.83634	4.01437
2.83479	4.23417
2.83324	4.3041
2.83169	4.10404
2.83015	3.99912
2.82861	4.06688
2.82706	4.12305
2.82552	4.02338
2.82398	3.89774
2.82245	4.03911
2.82091	4.17005
2.81938	4.17576
2.81784	4.14133
2.81631	4.27157
2.81479	4.38786
2.81326	4.15507
2.81173	4.01773
2.81021	4.17848
2.80869	4.22175
2.80716	4.26836
2.80565	4.28424
2.80413	4.10453
2.80261	3.99545
2.8011	4.07104
2.79959	4.1203
2.79808	4.00369
2.79657	3.96106
2.79506	3.92344
2.79355	3.9598
2.79205	4.0095
2.79055	4.11276
2.78904	4.20822
2.78754	4.21106
2.78605	3.95718
2.78455	3.47248
2.78306	3.55024
2.78156	3.89349
2.78007	4.0441
2.77858	3.94314
2.77709	3.85423
2.77561	3.93053
2.77412	4.15819
2.77264	4.296
2.77116	4.09907
2.76968	3.90306
2.7682	3.85149
2.76672	3.93689
2.76524	3.92957
2.76377	3.9259
2.7623	3.91622
2.76083	3.82047
2.75936	3.86089
2.75789	4.01778
2.75642	4.03316
2.75496	4.09302
2.7535	4.15849
2.75203	4.01377
2.75057	3.91267
2.74912	3.98204
2.74766	3.99212
2.7462	3.95547
2.74475	3.88531
2.7433	3.70479
2.74185	3.697
2.7404	3.82945
2.73895	3.91054
2.7375	3.86918
2.73606	3.90286
2.73462	3.94345
2.73318	3.98555
2.73174	3.91305
2.7303	3.85605
2.72886	3.84298
2.72742	3.82363
2.72599	4.00088
2.72456	4.10513
2.72313	4.11957
2.7217	4.03485
2.72027	4.05178
2.71884	4.02666
2.71742	3.99402
2.71599	4.06511
2.71457	3.9884
2.71315	3.8933
2.71173	3.95661
2.71032	4.10615
2.7089	4.16005
2.70748	4.08443
2.70607	3.95234
2.70466	3.8915
2.70325	3.94359
2.70184	4.03295
2.70043	4.03095
2.69903	3.93085
2.69762	3.84439
2.69622	3.85503
2.69482	3.90972
2.69342	3.96164
2.69202	3.93593
2.69062	4.00863
2.68923	4.10232
2.68783	4.09428
2.68644	3.96223
2.68505	4.04726
2.68366	4.05204
2.68227	3.85029
2.68089	3.94685
2.6795	4.00083
2.67812	3.88248
2.67673	3.88879
2.67535	4.06084
2.67397	4.04458
2.6726	3.99896
2.67122	4.06372
2.66984	4.05994
2.66847	3.97473
2.6671	3.99641
2.66572	4.03873
2.66435	3.96444
2.66299	3.85646
2.66162	3.95996
2.66025	4.06212
2.65889	4.02799
2.65753	4.02468
2.65616	4.01153
2.65481	4.04433
2.65345	4.03318
2.65209	3.99762
2.65073	3.9594
2.64938	4.0322
2.64803	3.99963
2.64667	3.90292
2.64532	3.94997
2.64397	3.96238
2.64263	3.99195
2.64128	4.00249
2.63994	3.90824
2.63859	3.81627
2.63725	3.89837
2.63591	4.04492
2.63457	4.02279
2.63323	3.95334
2.6319	3.94475
2.63056	4.06722
2.62923	4.07577
2.62789	4.18279
2.62656	4.17691
2.62523	3.91125
2.6239	3.87198
2.62258	4.09325
2.62125	4.2294
2.61993	4.09015
2.6186	4.0404
2.61728	4.06682
2.61596	4.05411
2.61464	3.95189
2.61332	3.9748
2.61201	4.06394
2.61069	4.09091
2.60938	4.14013
2.60807	4.14935
2.60675	4.15723
2.60544	4.1408
2.60414	4.03743
2.60283	4.08376
2.60152	4.06497
2.60022	4.11841
2.59891	4.17931
2.59761	4.11642
2.59631	4.04028
2.59501	4.08972
2.59371	4.19751
2.59242	4.13723
2.59112	4.18407
2.58983	4.18327
2.58853	4.14978
2.58724	4.03462
2.58595	3.85438
2.58466	3.94415
2.58338	3.99436
2.58209	4.01334
2.5808	4.00234
2.57952	4.09345
2.57824	4.1889
2.57695	4.13133
2.57567	4.13901
2.5744	4.0775
2.57312	4.09375
2.57184	4.05307
2.57057	4.01864
2.56929	4.10178
2.56802	4.09206
2.56675	3.97212
2.56548	3.93821
2.56421	4.08048
2.56294	4.2341
2.56168	4.1088
2.56041	4.00739
2.55915	4.06448
2.55789	4.1334
2.55662	4.05421
2.55536	3.9494
2.5541	4.13062
2.55285	4.24267
2.55159	4.11882
2.55034	4.10481
2.54908	4.06856
2.54783	3.99979
2.54658	4.03446
2.54533	3.98878
2.54408	3.94968
2.54283	4.08942
2.54159	4.1667
2.54034	4.10814
2.5391	4.08342
2.53785	4.08336
2.53661	3.92843
2.53537	3.84616
2.53413	4.00564
2.53289	4.15126
2.53166	4.18669
2.53042	4.03352
2.52919	3.93865
2.52795	4.00061
2.52672	3.90453
2.52549	3.90108
2.52426	4.02067
2.52303	4.11766
2.52181	4.08777
2.52058	3.92876
2.51936	3.97711
2.51813	4.02828
2.51691	4.05859
2.51569	4.16124
2.51447	4.25999
2.51325	4.32112
2.51203	4.09709
2.51082	4.01801
2.5096	4.00587
2.50839	4.00722
2.50717	4.08083
2.50596	4.15232
2.50475	4.20504
2.50354	4.17705
2.50233	4.06424
2.50113	4.05423
2.49992	4.11951
2.49872	4.06923
2.49751	4.05845
2.49631	4.03895
2.49511	4.00591
2.49391	3.99519
2.49271	3.99528
2.49151	4.02346
2.49031	4.06255
2.48912	4.07503
2.48792	4.12568
2.48673	4.15593
2.48554	4.20678
2.48435	4.14897
2.48316	3.98857
2.48197	3.97687
2.48078	4.11823
2.4796	4.18338
2.47841	4.11443
2.47723	4.10375
2.47604	4.10638
2.47486	4.01307
2.47368	3.90743
2.4725	3.87793
2.47132	3.83284
2.47014	3.92384
2.46897	4.00734
2.46779	4.07662
2.46662	4.18508
2.46545	4.24161
2.46427	4.14124
2.4631	4.16453
2.46193	4.30082
2.46077	4.30598
2.4596	4.23533
2.45843	4.10405
2.45727	4.04525
2.4561	4.12745
2.45494	4.16885
2.45378	4.07029
2.45262	3.96224
2.45146	4.04266
2.4503	4.1507
2.44914	4.1602
2.44799	4.13015
2.44683	4.05207
2.44568	4.00621
2.44452	4.0256
2.44337	4.21122
2.44222	4.24764
2.44107	4.18906
2.43992	4.11031
2.43877	4.23585
2.43763	4.14592
2.43648	3.90276
2.43534	3.80132
2.43419	3.9567
2.43305	4.14281
2.43191	4.08551
2.43077	4.04962
2.42963	4.06036
2.42849	4.10701
2.42736	4.1411
2.42622	4.07605
2.42509	4.06131
2.42395	4.1181
2.42282	4.25543
2.42169	4.25619
2.42056	4.23369
2.41943	4.15369
2.4183	4.25083
2.41717	4.20325
2.41605	3.96503
2.41492	4.03101
2.4138	4.16787
2.41267	4.11754
2.41155	4.23606
2.41043	4.38787
2.40931	4.36926
2.40819	4.28302
2.40707	4.18666
2.40595	4.27745
2.40484	4.26314
2.40372	4.39237
2.40261	4.41129
2.4015	4.27573
2.40039	4.15445
2.39928	4.0451
2.39817	4.08648
2.39706	4.30307
2.39595	4.27899
2.39484	4.1329
2.39374	3.97983
2.39263	3.84961
2.39153	3.98607
2.39043	4.19238
2.38932	4.24732
2.38822	4.19345
2.38712	4.12218
2.38603	4.1563
2.38493	4.19129
2.38383	4.11913
2.38274	4.08953
2.38164	4.16446
2.38055	4.12663
2.37946	4.05662
2.37836	4.06941
2.37727	4.19086
2.37618	4.22068
2.3751	4.26499
2.37401	4.19179
2.37292	4.13457
2.37184	4.08522
2.37075	4.19194
2.36967	4.28025
2.36859	4.09344
2.3675	4.00651
2.36642	4.02624
2.36534	4.14563
2.36427	4.28583
2.36319	4.33446
2.36211	4.37584
2.36104	4.38214
2.35996	4.27027
2.35889	4.13195
2.35781	4.04752
2.35674	4.10335
2.35567	4.2081
2.3546	4.18497
2.35353	4.21579
2.35247	4.27443
2.3514	4.13322
2.35033	4.11034
2.34927	4.24918
2.3482	4.27222
2.34714	4.1653
2.34608	4.09363
2.34502	4.1646
2.34396	4.26858
2.3429	4.33465
2.34184	4.18921
2.34078	4.02485
2.33973	4.04852
2.33867	3.96586
2.33762	4.04337
2.33656	4.07296
2.33551	4.09954
2.33446	4.16681
2.33341	4.16039
2.33236	4.17924
2.33131	4.20329
2.33026	4.11838
2.32922	4.21636
2.32817	4.33045
2.32712	4.22916
2.32608	4.23908
2.32504	4.42091
2.324	4.26272
2.32295	4.17508
2.32191	4.2152
2.32087	4.36434
2.31984	4.34302
2.3188	4.1684
2.31776	4.06643
2.31673	3.98082
2.31569	3.97745
2.31466	4.16526
2.31362	4.32976
2.31259	4.27793
2.31156	4.17926
2.31053	4.10073
2.3095	3.98752
2.30847	3.95054
2.30745	4.05964
2.30642	4.1628
2.3054	4.26393
2.30437	4.23229
2.30335	4.08581
2.30232	3.98638
2.3013	4.17373
2.30028	4.30182
2.29926	4.27404
2.29824	4.3574
2.29722	4.21872
2.29621	4.10483
2.29519	4.15099
2.29417	4.2825
2.29316	4.33952
2.29215	4.33674
2.29113	4.27073
2.29012	4.13515
2.28911	4.06372
2.2881	4.15478
2.28709	4.29218
2.28608	4.34818
2.28507	4.28146
2.28407	4.16804
2.28306	4.22561
2.28206	4.23411
2.28105	4.25413
2.28005	4.29344
2.27905	4.27301
2.27805	4.34468
2.27705	4.30433
2.27605	4.15527
2.27505	4.11212
2.27405	4.13528
2.27305	4.26228
2.27206	4.30228
2.27106	4.36588
2.27007	4.28893
2.26907	4.07925
2.26808	4.11702
2.26709	4.32624
2.2661	4.29005
2.26511	4.18489
2.26412	4.28089
2.26313	4.26529
2.26214	4.23843
2.26116	4.29746
2.26017	4.14102
2.25919	4.04577
2.2582	4.11249
2.25722	4.15803
2.25624	4.16446
2.25526	4.03585
2.25428	4.04965
2.2533	4.30312
2.25232	4.27411
2.25134	4.10131
2.25036	4.02651
2.24939	4.14332
2.24841	4.39284
2.24744	4.36199
2.24646	4.15576
2.24549	4.19374
2.24452	4.27745
2.24355	4.18351
2.24257	4.11197
2.24161	4.18152
2.24064	4.16642
2.23967	4.12429
2.2387	4.19787
2.23774	4.22231
2.23677	4.2533
2.23581	4.31184
2.23484	4.23321
2.23388	4.15369
2.23292	4.34984
2.23196	4.43884
2.231	4.27818
2.23004	4.27691
2.22908	4.32678
2.22812	4.19068
2.22716	4.26833
2.22621	4.33126
2.22525	4.22154
2.2243	4.11452
2.22334	4.09212
2.22239	4.11967
2.22144	4.1845
2.22049	4.26015
2.21953	4.26101
2.21859	4.44449
2.21764	4.32617
2.21669	3.97239
2.21574	4.1644
2.21479	4.44482
2.21385	4.33734
2.2129	4.22258
2.21196	4.07439
2.21102	4.01695
2.21007	4.0207
2.20913	4.01099
2.20819	4.15796
2.20725	4.24679
2.20631	4.09325
2.20537	4.113
2.20444	4.12679
2.2035	4.16612
2.20256	4.1963
2.20163	4.14161
2.20069	4.13511
2.19976	4.18858
2.19883	4.17478
2.19789	3.99365
2.19696	4.05112
2.19603	4.0891
2.1951	4.09105
2.19417	4.03875
2.19325	3.99717
2.19232	4.20427
2.19139	4.41296
2.19047	4.27982
2.18954	4.1253
2.18862	4.15556
2.18769	4.10641
2.18677	4.2021
2.18585	4.22046
2.18493	4.20952
2.18401	4.19577
2.18309	4.12619
2.18217	4.0029
2.18125	3.8965
2.18033	4.00794
2.17942	4.08186
2.1785	4.1904
2.17759	4.22288
2.17667	4.34474
2.17576	4.42482
2.17485	4.20474
2.17393	4.09088
2.17302	3.97199
2.17211	4.02726
2.1712	4.07881
2.17029	4.17403
2.16939	4.43051
2.16848	4.42262
2.16757	4.31871
2.16667	4.24145
2.16576	4.13281
2.16486	4.00506
2.16395	4.09054
2.16305	4.2017
2.16215	4.21385
2.16125	4.16276
2.16035	4.04339
2.15945	3.87692
2.15855	4.08571
2.15765	4.20913
2.15675	4.20085
2.15586	4.10837
2.15496	4.22066
2.15406	4.22232
2.15317	4.28175
2.15228	4.28849
2.15138	4.27622
2.15049	4.11779
2.1496	3.91301
2.14871	3.77872
2.14782	3.95763
2.14693	4.10874
2.14604	4.03005
2.14515	4.13416
2.14427	4.2704
2.14338	4.20949
2.14249	4.13431
2.14161	4.06075
2.14072	3.97385
2.13984	3.94127
2.13896	4.25616
2.13808	4.48002
2.13719	4.40513
2.13631	4.28208
2.13543	4.07706
2.13455	4.15187
2.13368	4.29435
2.1328	4.19828
2.13192	3.95295
2.13105	3.90574
2.13017	4.04718
2.1293	4.22235
2.12842	4.18543
2.12755	4.22794
2.12668	4.24262
2.1258	4.33499
2.12493	4.44858
2.12406	4.32613
2.12319	4.1222
2.12232	3.99739
2.12145	3.98349
2.12059	4.00956
2.11972	4.11847
2.11885	4.30988
2.11799	4.25266
2.11712	4.03301
2.11626	3.81761
2.1154	3.86823
2.11453	4.09248
2.11367	4.07712
2.11281	3.92938
2.11195	4.02632
2.11109	4.04757
2.11023	3.96487
2.10937	3.93042
2.10851	4.22044
2.10766	4.1604
2.1068	4.02363
2.10594	4.04106
2.10509	3.98504
2.10423	4.30463
2.10338	4.30892
2.10253	4.02442
2.10168	4.23532
2.10082	4.45561
2.09997	4.2015
2.09912	3.942
2.09827	4.07565
2.09742	4.19137
2.09658	4.2204
2.09573	4.37839
2.09488	4.46041
2.09404	4.09882
2.09319	3.91988
2.09235	3.62597
2.0915	3.56461
2.09066	3.70497
2.08982	3.76104
2.08897	3.83303
2.08813	4.15329
2.08729	4.30568
2.08645	4.283
2.08561	4.09806
2.08477	3.90206
2.08394	3.93845
2.0831	3.74701
2.08226	3.62156
2.08143	3.88455
2.08059	3.88097
2.07976	4.04417
2.07892	4.24437
2.07809	4.15693
2.07726	3.97741
2.07643	3.89919
2.07559	4.42342
2.07476	4.95517
2.07393	4.80883
2.0731	4.43811
2.07228	4.17532
2.07145	3.95943
2.07062	3.74043
2.06979	4.00174
2.06897	4.07882
2.06814	3.99597
2.06732	4.29339
2.06649	3.92553
2.06567	4.15005
2.06485	4.10883
2.06403	3.64609
2.0632	3.95873
2.06238	4.12728
2.06156	4.28117
2.06074	4.24633
2.05993	4.17764
2.05911	4.09284
2.05829	4.23803
2.05747	4.39488
2.05666	4.38895
2.05584	4.15916
2.05503	4.12569
2.05421	3.86026
2.0534	3.62224
2.05259	3.97106
2.05177	4.39699
2.05096	4.30939
2.05015	4.1711
2.04934	4.24942
2.04853	4.32461
2.04772	4.22513
2.04691	4.0929
2.04611	4.13953
2.0453	4.05732
2.04449	4.18718
2.04369	4.2468
2.04288	4.22637
2.04208	4.23756
2.04127	4.20491
2.04047	4.16945
2.03967	4.04317
2.03886	4.00027
2.03806	4.13202
2.03726	4.26926
2.03646	4.14039
2.03566	4.0598
2.03486	4.13297
2.03407	4.18136
2.03327	4.04875
2.03247	4.06389
2.03167	4.28552
2.03088	4.40841
2.03008	4.24968
2.02929	4.17536
2.0285	4.0488
2.0277	3.90475
2.02691	3.96661
2.02612	4.22119
2.02533	4.33154
2.02453	4.06044
2.02374	3.9785
2.02295	4.12175
2.02217	4.28455
2.02138	4.33898
2.02059	4.22427
2.0198	4.13686
2.01902	4.49319
2.01823	4.69285
2.01744	4.32069
2.01666	3.95121
2.01588	4.09323
2.01509	4.2689
2.01431	4.12008
2.01353	4.07308
2.01275	3.99794
2.01196	4.1125
2.01118	4.21702
2.0104	4.07367
2.00963	3.9241
2.00885	3.91931
2.00807	3.98712
2.00729	4.03427
2.00651	4.11108
2.00574	4.1846
2.00496	4.51623
2.00419	4.39059
2.00341	4.1693
2.00264	4.18983
2.00187	4.22573
2.00109	4.3086
2.00032	4.24843
