Name: Trona Na_3(CO_3)(HCO_3).2H_2O
Type: Mineral
Class: Carbonates
Subclass: 
Particle Size: 45-125um
Sample No.: C-4A
Owner: JPL
Wavelength range: IR
Origin: USA, Wyoming, Sweetwater County
Collected by Ward's
Description: 





Measurement: Hemispherical reflectance
First Column: X
Second Column: Y
X Units:  Wavelength (micrometers)
Y Units:  Reflectance (percent)
First X Value: 15.3853
Last X Value: 2.00032
Number of X Values: 2256
Additional information: c04aa.txt
 
15.3853	6.22547
15.3397	6.2049
15.2945	6.1689
15.2495	6.04576
15.2048	6.10003
15.1603	6.07234
15.1161	5.60748
15.0722	5.00424
15.0285	4.56714
14.9851	4.02042
14.9419	3.54714
14.8989	3.58832
14.8563	3.80573
14.8138	3.77747
14.7716	3.62424
14.7296	3.59866
14.6879	3.51218
14.6464	3.39536
14.6052	3.25667
14.5641	2.99438
14.5233	2.42871
14.4828	2.25663
14.4424	2.09582
14.4023	1.60495
14.3624	1.23616
14.3227	1.07835
14.2833	1.09041
14.244	1.14214
14.205	1.07015
14.1662	1.09523
14.1276	1.1782
14.0892	1.38247
14.051	1.54973
14.0131	1.64961
13.9753	1.54654
13.9377	1.52382
13.9004	1.62626
13.8632	1.74561
13.8262	1.88344
13.7895	2.08873
13.7529	2.03291
13.7165	1.85606
13.6803	1.99809
13.6443	2.13331
13.6085	2.15621
13.5729	2.14935
13.5374	2.21469
13.5022	2.47042
13.4671	2.55377
13.4322	2.61155
13.3975	2.52644
13.363	2.52396
13.3286	2.74377
13.2944	2.6952
13.2604	2.67325
13.2266	2.74834
13.193	2.63415
13.1595	2.60428
13.1262	2.75845
13.093	2.85235
13.06	2.92581
13.0272	2.91143
12.9946	3.0098
12.9621	3.14995
12.9298	3.23551
12.8976	3.29077
12.8656	3.35542
12.8337	3.44791
12.8021	3.39854
12.7705	3.59359
12.7391	3.69856
12.7079	3.59497
12.6769	3.79216
12.6459	3.82611
12.6152	3.679
12.5845	3.62645
12.5541	3.6279
12.5238	3.58154
12.4936	3.81862
12.4635	3.92523
12.4337	3.70414
12.4039	3.54012
12.3743	3.60323
12.3448	3.67186
12.3155	3.76454
12.2863	3.72085
12.2573	3.62337
12.2284	3.78901
12.1996	3.93007
12.171	3.92197
12.1425	4.01739
12.1141	4.01694
12.0859	4.03509
12.0578	4.26565
12.0298	4.37708
12.0019	4.36897
11.9742	4.35931
11.9466	4.37708
11.9192	4.62419
11.8918	5.10578
11.8646	5.67012
11.8375	6.58522
11.8106	8.262
11.7837	10.649
11.757	12.7049
11.7304	13.5441
11.7039	13.0932
11.6776	11.6086
11.6513	9.60609
11.6252	7.8723
11.5992	6.51654
11.5733	5.50689
11.5475	4.69626
11.5219	4.208
11.4963	4.06616
11.4709	3.95368
11.4455	3.67781
11.4203	3.49793
11.3952	3.44152
11.3702	3.36637
11.3454	3.28594
11.3206	3.21763
11.2959	3.1816
11.2714	3.22445
11.2469	3.10939
11.2226	3.14614
11.1983	3.19279
11.1742	3.11119
11.1502	3.2026
11.1263	3.38499
11.1024	3.28377
11.0787	3.21043
11.0551	3.16345
11.0316	3.13656
11.0081	3.14272
10.9848	3.12958
10.9616	3.11672
10.9385	3.04017
10.9154	3.14451
10.8925	3.22455
10.8697	3.09955
10.8469	3.11894
10.8243	3.2236
10.8017	3.20345
10.7793	3.24615
10.7569	3.41063
10.7346	3.45873
10.7125	3.41317
10.6904	3.2881
10.6684	3.10932
10.6465	3.09263
10.6247	3.22367
10.6029	3.26374
10.5813	3.30018
10.5597	3.30005
10.5383	3.28333
10.5169	3.2922
10.4956	3.289
10.4744	3.32202
10.4533	3.34625
10.4323	3.29003
10.4113	3.27304
10.3904	3.27938
10.3697	3.41858
10.349	3.47536
10.3284	3.46634
10.3078	3.42173
10.2874	3.41309
10.267	3.36594
10.2467	3.35159
10.2265	3.45834
10.2064	3.5909
10.1863	3.54824
10.1663	3.50634
10.1464	3.39196
10.1266	3.42852
10.1069	3.42401
10.0872	3.35351
10.0676	3.37802
10.0481	3.33117
10.0287	3.34355
10.0093	3.36999
9.99005	3.25847
9.97084	3.26685
9.95169	3.3646
9.93263	3.46201
9.91364	3.46833
9.89472	3.42692
9.87587	3.42376
9.8571	3.44715
9.83839	3.42779
9.81976	3.35608
9.80119	3.3406
9.78271	3.34889
9.76428	3.356
9.74592	3.31379
9.72764	3.31628
9.70943	3.34892
9.69128	3.33954
9.6732	3.34611
9.65518	3.27659
9.63724	3.23116
9.61935	3.15982
9.60155	3.08828
9.5838	2.93135
9.56611	2.70434
9.5485	2.47333
9.53094	2.563
9.51345	2.95332
9.49604	3.35309
9.47867	3.66571
9.46137	3.8291
9.44414	3.8935
9.42697	3.91805
9.40986	3.79686
9.39281	3.81932
9.37583	3.87075
9.35891	3.83138
9.34204	3.787
9.32524	3.86742
9.3085	3.88168
9.29182	3.91632
9.27519	3.84578
9.25863	3.64802
9.24213	3.6446
9.22568	3.71993
9.2093	3.62528
9.19297	3.74614
9.17669	3.79272
9.16048	3.76955
9.14433	3.78207
9.12823	3.78862
9.11218	3.69635
9.0962	3.62598
9.08027	3.65078
9.06439	3.69155
9.04858	3.75464
9.03281	3.77616
9.0171	3.71081
9.00145	3.70396
8.98585	3.77801
8.9703	3.67944
8.9548	3.56201
8.93937	3.68652
8.92398	3.81908
8.90865	3.70823
8.89337	3.55148
8.87814	3.56796
8.86296	3.56677
8.84784	3.51153
8.83277	3.58609
8.81774	3.62639
8.80277	3.51156
8.78786	3.45378
8.77298	3.54198
8.75816	3.62278
8.7434	3.59185
8.72868	3.58586
8.714	3.54035
8.69938	3.52938
8.68481	3.46722
8.67029	3.4959
8.65581	3.60847
8.64139	3.70897
8.62701	3.76157
8.61268	3.63979
8.5984	3.62146
8.58416	3.63151
8.56997	3.54795
8.55583	3.58386
8.54174	3.64782
8.52769	3.75904
8.51368	3.79473
8.49973	3.78115
8.48582	3.80245
8.47195	3.87
8.45813	4.01693
8.44436	4.01452
8.43062	3.91884
8.41693	3.88753
8.4033	3.85541
8.3897	3.77834
8.37614	3.93161
8.36264	3.99443
8.34917	3.95262
8.33574	3.86196
8.32236	3.82948
8.30903	3.85208
8.29573	3.7615
8.28248	3.78491
8.26927	3.90138
8.2561	3.80867
8.24298	3.73906
8.2299	3.79295
8.21685	3.69604
8.20385	3.58045
8.19089	3.50984
8.17797	3.52746
8.16509	3.50993
8.15225	3.47264
8.13946	3.47164
8.1267	3.50922
8.11398	3.46945
8.10131	3.35918
8.08867	3.23868
8.07606	3.23996
8.0635	3.29712
8.05099	3.27909
8.0385	3.26982
8.02606	3.24068
8.01366	3.13986
8.00129	3.14048
7.98896	3.15252
7.97667	3.10207
7.96442	3.06948
7.9522	3.05355
7.94002	3.0372
7.92788	3.02279
7.91578	3.02333
7.90371	2.87487
7.89168	2.78203
7.87969	2.82587
7.86773	2.86273
7.85581	2.75237
7.84392	2.74565
7.83207	2.79767
7.82026	2.78774
7.80849	2.68189
7.79674	2.60292
7.78503	2.6193
7.77337	2.64791
7.76173	2.56019
7.75012	2.54386
7.73856	2.6067
7.72703	2.55723
7.71553	2.50181
7.70406	2.46955
7.69263	2.55134
7.68123	2.58838
7.66987	2.46746
7.65855	2.41008
7.64725	2.47224
7.63598	2.4598
7.62475	2.37609
7.61356	2.30844
7.60239	2.37055
7.59126	2.37751
7.58017	2.34897
7.5691	2.37691
7.55806	2.366
7.54707	2.3719
7.5361	2.37563
7.52516	2.34973
7.51425	2.37541
7.50338	2.32536
7.49253	2.24343
7.48172	2.17569
7.47094	2.28068
7.46019	2.33875
7.44947	2.23397
7.43879	2.26381
7.42813	2.25433
7.4175	2.17134
7.4069	2.17805
7.39634	2.17975
7.3858	2.2245
7.37529	2.25882
7.36482	2.2295
7.35437	2.12902
7.34396	2.01696
7.33357	2.01841
7.32321	2.1043
7.31288	2.13442
7.30258	2.18038
7.29231	2.2196
7.28207	2.12497
7.27185	2.02464
7.26167	2.08331
7.25152	2.12016
7.24139	2.12962
7.23129	2.0691
7.22122	1.99883
7.21117	2.01033
7.20116	1.98446
7.19117	1.9228
7.18121	1.89946
7.17128	1.97158
7.16137	2.00267
7.1515	2.02037
7.14164	1.98168
7.13182	1.89223
7.12203	1.88003
7.11225	1.90295
7.10251	1.92921
7.0928	1.90529
7.08311	1.92378
7.07344	1.95511
7.06381	1.99736
7.0542	2.05178
7.04461	2.05254
7.03506	1.9832
7.02552	2.01552
7.01601	2.1117
7.00653	2.15052
6.99708	2.08019
6.98765	2.06576
6.97824	2.05009
6.96886	2.11288
6.95951	2.28597
6.95018	2.37548
6.94087	2.38489
6.9316	2.37102
6.92234	2.35193
6.91311	2.38132
6.90391	2.48776
6.89473	2.6052
6.88557	2.69261
6.87644	2.76357
6.86733	2.9008
6.85824	3.02856
6.84918	3.04427
6.84015	3.05554
6.83114	3.10022
6.82215	3.13467
6.81319	3.16824
6.80424	3.2603
6.79532	3.4591
6.78643	3.56201
6.77756	3.53098
6.76871	3.49878
6.75989	3.37926
6.75109	3.33682
6.74231	3.34553
6.73355	3.33403
6.72482	3.21035
6.71611	2.964
6.70742	2.78968
6.69875	2.70018
6.69011	2.61277
6.68149	2.52101
6.67289	2.33759
6.66431	2.0474
6.65576	1.90954
6.64722	1.85962
6.63871	1.82427
6.63022	1.63512
6.62175	1.50824
6.61331	1.38728
6.60488	1.27248
6.59648	1.17555
6.5881	1.10214
6.57974	1.15227
6.5714	1.11973
6.56308	1.00199
6.55478	0.93399
6.54651	0.926552
6.53825	0.917506
6.53001	0.857272
6.5218	0.87287
6.51361	0.880462
6.50544	0.861607
6.49729	0.879026
6.48915	0.901048
6.48104	0.880609
6.47295	0.742449
6.46488	0.721293
6.45683	0.791625
6.4488	0.860131
6.44079	0.832041
6.4328	0.824867
6.42482	0.882481
6.41687	0.976654
6.40894	0.911544
6.40103	0.774931
6.39314	0.777742
6.38526	0.80433
6.37741	0.840415
6.36957	0.799057
6.36176	0.746501
6.35396	0.709128
6.34618	0.735608
6.33843	0.812956
6.33069	0.82733
6.32297	0.793232
6.31527	0.858668
6.30758	0.948626
6.29992	0.970832
6.29227	0.979345
6.28465	0.95091
6.27704	0.895916
6.26945	0.90206
6.26188	0.965542
6.25432	0.893267
6.24679	0.891388
6.23927	0.939141
6.23177	0.954789
6.22429	0.933032
6.21683	0.999655
6.20938	1.06351
6.20195	1.08089
6.19454	1.10891
6.18715	1.19061
6.17978	1.16445
6.17242	1.14679
6.16508	1.17868
6.15776	1.10356
6.15045	1.07137
6.14317	1.12896
6.1359	1.18647
6.12864	1.24329
6.12141	1.3068
6.11419	1.32793
6.10699	1.19171
6.0998	1.17657
6.09263	1.28714
6.08549	1.43205
6.07835	1.54607
6.07123	1.48473
6.06413	1.35332
6.05705	1.43526
6.04998	1.48522
6.04293	1.48667
6.0359	1.5966
6.02888	1.57585
6.02187	1.53151
6.01489	1.49463
6.00792	1.47676
6.00096	1.48601
5.99403	1.46579
5.98711	1.45891
5.9802	1.58688
5.97331	1.68235
5.96644	1.64135
5.95958	1.60923
5.95274	1.65752
5.94591	1.68216
5.9391	1.8826
5.9323	1.93003
5.92552	1.7833
5.91876	1.79134
5.91201	1.84082
5.90528	1.8799
5.89856	1.98883
5.89186	1.94926
5.88517	1.91482
5.8785	1.84913
5.87184	1.72867
5.8652	1.74512
5.85857	1.77574
5.85196	1.78405
5.84536	1.73653
5.83878	1.70181
5.83221	1.77411
5.82566	1.78598
5.81912	1.74878
5.81259	1.69939
5.80608	1.668
5.79959	1.62587
5.79311	1.54609
5.78665	1.48766
5.78019	1.46655
5.77376	1.5058
5.76734	1.63068
5.76093	1.65573
5.75453	1.51666
5.74815	1.46484
5.74179	1.46285
5.73543	1.40419
5.7291	1.32519
5.72277	1.3109
5.71646	1.22462
5.71017	1.14148
5.70389	1.16376
5.69762	1.22563
5.69136	1.20656
5.68513	1.16412
5.6789	1.18905
5.67268	1.12846
5.66648	1.08461
5.6603	1.11799
5.65413	1.11892
5.64797	1.11092
5.64182	1.08599
5.63569	1.03373
5.62957	0.997379
5.62347	0.973956
5.61737	0.949181
5.61129	0.995848
5.60522	0.925823
5.59917	0.897391
5.59313	0.960385
5.5871	0.949805
5.58109	0.991779
5.57509	0.952112
5.5691	0.953191
5.56312	0.902005
5.55716	0.896045
5.55121	0.991154
5.54528	0.958543
5.53935	0.856547
5.53344	0.858007
5.52754	0.948717
5.52166	0.999001
5.51578	0.903225
5.50992	0.838168
5.50407	0.817698
5.49823	0.832743
5.49241	0.834604
5.4866	0.834498
5.4808	0.824523
5.47501	0.81722
5.46923	0.822151
5.46347	0.835857
5.45772	0.857517
5.45198	0.83582
5.44625	0.844483
5.44054	0.812629
5.43484	0.775071
5.42914	0.803458
5.42347	0.865057
5.4178	0.86086
5.41214	0.879485
5.4065	0.933609
5.40087	0.901302
5.39525	0.871156
5.38964	0.840304
5.38404	0.824805
5.37846	0.764806
5.37288	0.757779
5.36732	0.815514
5.36177	0.838149
5.35623	0.871151
5.35071	0.951318
5.34519	0.918858
5.33968	0.856237
5.33419	0.802399
5.32871	0.79041
5.32324	0.870507
5.31778	0.832375
5.31233	0.800189
5.30689	0.87823
5.30147	0.921855
5.29605	0.864849
5.29065	0.821529
5.28525	0.821668
5.27987	0.871265
5.2745	0.908227
5.26914	0.923028
5.26379	0.868468
5.25845	0.843753
5.25312	0.887986
5.24781	0.889804
5.2425	0.890067
5.23721	0.908016
5.23192	0.883741
5.22665	0.862413
5.22138	0.893272
5.21613	0.880106
5.21089	0.90084
5.20566	0.918374
5.20044	0.943322
5.19522	0.970163
5.19002	0.948167
5.18483	0.95041
5.17965	0.958268
5.17448	0.928646
5.16933	0.899808
5.16418	0.937496
5.15904	1.011
5.15391	0.976324
5.14879	0.974009
5.14368	0.956152
5.13859	0.87596
5.1335	0.87861
5.12842	0.94751
5.12335	0.924221
5.1183	0.94068
5.11325	0.966519
5.10821	0.994493
5.10318	1.02018
5.09817	1.05725
5.09316	1.0283
5.08816	1.0004
5.08317	1.00511
5.07819	0.982192
5.07322	0.926768
5.06826	0.99045
5.06331	1.0117
5.05837	1.00341
5.05344	1.05392
5.04852	0.98272
5.04361	0.904104
5.03871	0.97844
5.03382	1.06345
5.02894	1.11715
5.02406	1.09717
5.0192	1.0747
5.01435	1.07889
5.0095	1.0066
5.00467	1.06742
4.99984	1.11018
4.99502	1.06671
4.99021	1.11618
4.98542	1.11439
4.98063	0.960404
4.97585	0.929529
4.97108	0.987235
4.96632	1.05585
4.96156	1.13458
4.95682	1.14658
4.95209	1.0968
4.94736	1.07948
4.94264	1.06836
4.93794	1.06415
4.93324	1.1036
4.92855	1.15242
4.92387	1.1218
4.9192	1.06376
4.91453	1.08012
4.90988	1.12024
4.90524	1.07595
4.9006	0.995313
4.89597	1.02252
4.89135	1.05294
4.88674	1.06892
4.88214	1.15734
4.87755	1.23487
4.87296	1.21367
4.86839	1.12516
4.86382	1.0742
4.85926	1.1259
4.85471	1.17345
4.85017	1.13382
4.84564	1.12934
4.84111	1.11227
4.8366	1.04032
4.83209	1.05952
4.82759	1.14518
4.8231	1.21519
4.81862	1.20771
4.81415	1.17235
4.80968	1.1721
4.80522	1.17027
4.80077	1.22991
4.79633	1.27797
4.7919	1.19428
4.78747	1.17007
4.78306	1.18225
4.77865	1.11223
4.77425	1.12927
4.76986	1.19091
4.76547	1.27978
4.7611	1.32207
4.75673	1.24432
4.75237	1.18088
4.74802	1.20183
4.74367	1.31553
4.73934	1.31552
4.73501	1.30554
4.73069	1.21827
4.72638	1.1656
4.72207	1.14016
4.71777	1.23365
4.71348	1.31812
4.7092	1.2698
4.70493	1.27781
4.70066	1.33687
4.69641	1.30799
4.69216	1.3041
4.68791	1.25823
4.68368	1.27928
4.67945	1.29338
4.67523	1.33289
4.67102	1.34212
4.66682	1.2731
4.66262	1.22586
4.65843	1.27169
4.65425	1.35686
4.65007	1.33843
4.64591	1.25781
4.64175	1.29846
4.6376	1.38553
4.63345	1.30795
4.62932	1.28051
4.62519	1.36556
4.62106	1.30922
4.61695	1.21992
4.61284	1.26231
4.60874	1.37752
4.60465	1.40477
4.60056	1.31054
4.59648	1.25882
4.59241	1.31536
4.58835	1.31127
4.58429	1.27931
4.58024	1.26174
4.5762	1.309
4.57216	1.38883
4.56814	1.38736
4.56411	1.32769
4.5601	1.22129
4.55609	1.20943
4.55209	1.2904
4.5481	1.37475
4.54411	1.37391
4.54013	1.35692
4.53616	1.42987
4.5322	1.38681
4.52824	1.34699
4.52429	1.37776
4.52034	1.35524
4.51641	1.29208
4.51247	1.2835
4.50855	1.37357
4.50463	1.41322
4.50072	1.36581
4.49682	1.33623
4.49292	1.2915
4.48903	1.2967
4.48515	1.37064
4.48127	1.36696
4.4774	1.37952
4.47354	1.35324
4.46968	1.27733
4.46584	1.30862
4.46199	1.34899
4.45815	1.31407
4.45432	1.29979
4.4505	1.37363
4.44668	1.39881
4.44287	1.3619
4.43907	1.41517
4.43527	1.40683
4.43148	1.25224
4.4277	1.17923
4.42392	1.21264
4.42015	1.26912
4.41638	1.30115
4.41262	1.25671
4.40887	1.2418
4.40513	1.23821
4.40139	1.28681
4.39765	1.31283
4.39393	1.28408
4.39021	1.26144
4.38649	1.32288
4.38278	1.39827
4.37908	1.40375
4.37539	1.4157
4.3717	1.33389
4.36801	1.26489
4.36434	1.32324
4.36067	1.30743
4.357	1.2662
4.35335	1.24436
4.34969	1.22191
4.34605	1.29294
4.34241	1.38077
4.33877	1.36015
4.33514	1.35517
4.33152	1.42648
4.32791	1.42721
4.3243	1.36641
4.32069	1.37672
4.3171	1.3984
4.31351	1.36461
4.30992	1.37308
4.30634	1.43467
4.30277	1.40753
4.2992	1.39945
4.29564	1.41099
4.29208	1.43221
4.28853	1.47872
4.28499	1.40824
4.28145	1.40223
4.27792	1.43183
4.27439	1.33166
4.27087	1.25125
4.26735	1.371
4.26384	1.47967
4.26034	1.47779
4.25684	1.42886
4.25335	1.3547
4.24986	1.33748
4.24638	1.35607
4.24291	1.39345
4.23944	1.51222
4.23598	1.46053
4.23252	1.38008
4.22906	1.45967
4.22562	1.52631
4.22218	1.47936
4.21874	1.51722
4.21531	1.55489
4.21189	1.41731
4.20847	1.38064
4.20506	1.42794
4.20165	1.41233
4.19825	1.44263
4.19485	1.48125
4.19146	1.49571
4.18807	1.52029
4.18469	1.53642
4.18132	1.41179
4.17795	1.40518
4.17458	1.43848
4.17123	1.38278
4.16787	1.44076
4.16453	1.49759
4.16118	1.48158
4.15785	1.49942
4.15451	1.53942
4.15119	1.49492
4.14787	1.44774
4.14455	1.51237
4.14124	1.54992
4.13794	1.53729
4.13464	1.46243
4.13134	1.43137
4.12805	1.45673
4.12477	1.4639
4.12149	1.49281
4.11822	1.50009
4.11495	1.49602
4.11168	1.55468
4.10843	1.52585
4.10517	1.40632
4.10192	1.43475
4.09868	1.50801
4.09545	1.50139
4.09221	1.55962
4.08899	1.56446
4.08576	1.48157
4.08255	1.4898
4.07933	1.48327
4.07613	1.49364
4.07292	1.46585
4.06973	1.47858
4.06654	1.48609
4.06335	1.47244
4.06017	1.45668
4.05699	1.50315
4.05382	1.54117
4.05065	1.57999
4.04749	1.55777
4.04433	1.41489
4.04118	1.38856
4.03803	1.49022
4.03489	1.56465
4.03175	1.55091
4.02862	1.5346
4.02549	1.54736
4.02237	1.5553
4.01925	1.65898
4.01614	1.63777
4.01303	1.55057
4.00993	1.56367
4.00683	1.61263
4.00373	1.68123
4.00064	1.6638
3.99756	1.55122
3.99448	1.45142
3.9914	1.47319
3.98833	1.54751
3.98527	1.56
3.98221	1.5657
3.97915	1.62303
3.9761	1.56133
3.97305	1.50588
3.97001	1.5579
3.96697	1.58747
3.96394	1.65829
3.96091	1.73605
3.95789	1.6841
3.95487	1.60265
3.95186	1.56171
3.94885	1.5757
3.94584	1.59886
3.94284	1.62295
3.93984	1.58789
3.93685	1.51457
3.93386	1.52074
3.93088	1.5455
3.9279	1.63414
3.92493	1.70332
3.92196	1.68331
3.919	1.60341
3.91604	1.60924
3.91308	1.55352
3.91013	1.5699
3.90718	1.65471
3.90424	1.64304
3.9013	1.58556
3.89837	1.62165
3.89544	1.68752
3.89252	1.60353
3.8896	1.53409
3.88668	1.58721
3.88377	1.67949
3.88086	1.71655
3.87796	1.71408
3.87506	1.61473
3.87217	1.57513
3.86928	1.604
3.86639	1.61519
3.86351	1.60453
3.86064	1.6075
3.85776	1.59923
3.8549	1.65782
3.85203	1.65551
3.84917	1.62617
3.84631	1.67258
3.84346	1.69014
3.84062	1.71698
3.83777	1.7816
3.83494	1.76356
3.8321	1.70648
3.82927	1.66749
3.82644	1.65534
3.82362	1.68297
3.82081	1.6312
3.81799	1.61044
3.81518	1.62015
3.81238	1.70215
3.80958	1.69268
3.80678	1.70736
3.80399	1.775
3.8012	1.76624
3.79841	1.66105
3.79563	1.63663
3.79286	1.70892
3.79008	1.70762
3.78731	1.70049
3.78455	1.7252
3.78179	1.74141
3.77903	1.7001
3.77628	1.61377
3.77353	1.59907
3.77079	1.64858
3.76805	1.66509
3.76531	1.61837
3.76258	1.65304
3.75985	1.73798
3.75713	1.70953
3.7544	1.72293
3.75169	1.76457
3.74898	1.84886
3.74627	1.86436
3.74356	1.78039
3.74086	1.75352
3.73816	1.76426
3.73547	1.72559
3.73278	1.65266
3.7301	1.69101
3.72741	1.62807
3.72474	1.53613
3.72206	1.67363
3.71939	1.76832
3.71673	1.77637
3.71406	1.75266
3.71141	1.7625
3.70875	1.78611
3.7061	1.75732
3.70345	1.69232
3.70081	1.67743
3.69817	1.78246
3.69553	1.70611
3.6929	1.59685
3.69027	1.62433
3.68765	1.64386
3.68503	1.69835
3.68241	1.79851
3.6798	1.83781
3.67719	1.79216
3.67458	1.71978
3.67198	1.7076
3.66938	1.68008
3.66678	1.76253
3.66419	1.86065
3.66161	1.83461
3.65902	1.80123
3.65644	1.77607
3.65387	1.70985
3.65129	1.68253
3.64872	1.66434
3.64616	1.73214
3.64359	1.85015
3.64103	1.81535
3.63848	1.69725
3.63593	1.72652
3.63338	1.74041
3.63084	1.68108
3.6283	1.72237
3.62576	1.6953
3.62322	1.66395
3.62069	1.67878
3.61817	1.6972
3.61564	1.65814
3.61312	1.70479
3.61061	1.74241
3.6081	1.749
3.60559	1.75079
3.60308	1.72982
3.60058	1.69035
3.59808	1.65698
3.59558	1.62812
3.59309	1.66843
3.59061	1.59389
3.58812	1.60747
3.58564	1.73506
3.58316	1.69101
3.58069	1.57474
3.57822	1.67017
3.57575	1.82581
3.57328	1.72497
3.57082	1.65894
3.56836	1.73634
3.56591	1.77217
3.56346	1.6389
3.56101	1.6064
3.55857	1.59856
3.55613	1.5745
3.55369	1.60521
3.55126	1.76401
3.54883	1.77742
3.5464	1.68414
3.54397	1.71973
3.54155	1.67367
3.53914	1.63364
3.53672	1.71278
3.53431	1.69471
3.5319	1.69917
3.5295	1.70401
3.5271	1.72676
3.5247	1.7927
3.52231	1.81361
3.51991	1.70811
3.51753	1.65253
3.51514	1.67869
3.51276	1.73238
3.51038	1.74473
3.50801	1.75254
3.50563	1.67506
3.50327	1.63349
3.5009	1.68278
3.49854	1.64853
3.49618	1.61513
3.49382	1.65819
3.49147	1.6505
3.48912	1.59086
3.48677	1.62218
3.48443	1.65068
3.48209	1.62825
3.47975	1.61186
3.47742	1.60125
3.47509	1.71212
3.47276	1.73489
3.47044	1.65813
3.46812	1.72331
3.4658	1.7349
3.46348	1.68184
3.46117	1.65287
3.45886	1.63368
3.45656	1.6194
3.45425	1.67223
3.45195	1.68944
3.44966	1.67789
3.44736	1.70864
3.44507	1.68208
3.44279	1.60124
3.4405	1.63674
3.43822	1.70363
3.43594	1.69328
3.43367	1.67331
3.43139	1.65662
3.42912	1.66594
3.42686	1.69666
3.42459	1.64238
3.42233	1.69648
3.42007	1.70078
3.41782	1.68416
3.41557	1.70936
3.41332	1.63435
3.41108	1.59918
3.40883	1.60683
3.40659	1.65149
3.40435	1.69391
3.40212	1.77436
3.39989	1.77619
3.39766	1.76895
3.39544	1.79031
3.39322	1.84728
3.391	1.81487
3.38878	1.66651
3.38657	1.61859
3.38436	1.59785
3.38215	1.59655
3.37994	1.68727
3.37774	1.75737
3.37554	1.7469
3.37335	1.6194
3.37115	1.58989
3.36896	1.67414
3.36678	1.69115
3.36459	1.68367
3.36241	1.71039
3.36023	1.69548
3.35805	1.68425
3.35588	1.72394
3.35371	1.74326
3.35154	1.71442
3.34938	1.6282
3.34721	1.65835
3.34505	1.79061
3.3429	1.72173
3.34074	1.62349
3.33859	1.68602
3.33644	1.71243
3.3343	1.67049
3.33215	1.6114
3.33001	1.5547
3.32788	1.6695
3.32574	1.72455
3.32361	1.73279
3.32148	1.71488
3.31936	1.72894
3.31723	1.63718
3.31511	1.54312
3.31299	1.58332
3.31088	1.60872
3.30876	1.58301
3.30665	1.56529
3.30455	1.55674
3.30244	1.57309
3.30034	1.64056
3.29824	1.67187
3.29614	1.66916
3.29405	1.69578
3.29196	1.6928
3.28987	1.59685
3.28778	1.55535
3.2857	1.50614
3.28362	1.57338
3.28154	1.64707
3.27946	1.5378
3.27739	1.53664
3.27532	1.63626
3.27325	1.67962
3.27119	1.62206
3.26913	1.43117
3.26707	1.3895
3.26501	1.45738
3.26295	1.53227
3.2609	1.55792
3.25885	1.49024
3.2568	1.49901
3.25476	1.57177
3.25272	1.5446
3.25068	1.5355
3.24864	1.41198
3.24661	1.38445
3.24458	1.45999
3.24255	1.48761
3.24052	1.58006
3.2385	1.56666
3.23648	1.47934
3.23446	1.50158
3.23244	1.55712
3.23043	1.50092
3.22841	1.30954
3.2264	1.265
3.2244	1.34373
3.22239	1.39429
3.22039	1.41559
3.21839	1.44688
3.2164	1.4851
3.2144	1.58332
3.21241	1.54039
3.21042	1.4547
3.20844	1.39537
3.20645	1.42163
3.20447	1.38172
3.20249	1.29841
3.20051	1.33971
3.19854	1.36751
3.19657	1.29115
3.1946	1.24876
3.19263	1.3168
3.19067	1.4269
3.1887	1.41828
3.18674	1.32497
3.18479	1.37728
3.18283	1.45573
3.18088	1.38459
3.17893	1.30707
3.17698	1.42507
3.17504	1.48373
3.17309	1.46937
3.17115	1.47713
3.16921	1.38539
3.16728	1.28913
3.16534	1.35348
3.16341	1.42988
3.16148	1.30542
3.15956	1.35199
3.15763	1.53106
3.15571	1.54047
3.15379	1.39619
3.15187	1.30234
3.14996	1.28291
3.14805	1.3298
3.14614	1.39616
3.14423	1.36915
3.14232	1.28127
3.14042	1.35684
3.13852	1.46605
3.13662	1.47124
3.13472	1.34222
3.13283	1.31734
3.13094	1.3724
3.12905	1.37319
3.12716	1.34981
3.12528	1.39269
3.12339	1.379
3.12151	1.40128
3.11964	1.43232
3.11776	1.33927
3.11589	1.30156
3.11401	1.30195
3.11214	1.31542
3.11028	1.21432
3.10841	1.25626
3.10655	1.43305
3.10469	1.49338
3.10283	1.36209
3.10098	1.26262
3.09912	1.27113
3.09727	1.26697
3.09542	1.23411
3.09358	1.20173
3.09173	1.27998
3.08989	1.40021
3.08805	1.4206
3.08621	1.34412
3.08437	1.30592
3.08254	1.31008
3.08071	1.32991
3.07888	1.36058
3.07705	1.42666
3.07523	1.34869
3.0734	1.22235
3.07158	1.41019
3.06977	1.47254
3.06795	1.33802
3.06613	1.28548
3.06432	1.38336
3.06251	1.45862
3.0607	1.38529
3.0589	1.32607
3.0571	1.34504
3.05529	1.28946
3.05349	1.28542
3.0517	1.39829
3.0499	1.39866
3.04811	1.37717
3.04632	1.36556
3.04453	1.26241
3.04274	1.20791
3.04096	1.24939
3.03918	1.31828
3.0374	1.43323
3.03562	1.39327
3.03384	1.30698
3.03207	1.41962
3.03029	1.38963
3.02852	1.34621
3.02676	1.53885
3.02499	1.57457
3.02323	1.47572
3.02146	1.44725
3.0197	1.46302
3.01795	1.42226
3.01619	1.48216
3.01444	1.4488
3.01269	1.41694
3.01094	1.46494
3.00919	1.54562
3.00744	1.5341
3.0057	1.48952
3.00396	1.47108
3.00222	1.45462
3.00048	1.47024
2.99875	1.53217
2.99701	1.48263
2.99528	1.38695
2.99355	1.48657
2.99183	1.72423
2.9901	1.66488
2.98838	1.37065
2.98666	1.301
2.98494	1.55974
2.98322	1.65838
2.9815	1.56972
2.97979	1.61302
2.97808	1.63577
2.97637	1.53091
2.97466	1.42941
2.97295	1.43537
2.97125	1.54869
2.96955	1.46836
2.96785	1.29012
2.96615	1.4122
2.96446	1.57921
2.96276	1.62861
2.96107	1.53438
2.95938	1.57763
2.95769	1.55064
2.95601	1.44995
2.95432	1.58207
2.95264	1.54688
2.95096	1.64071
2.94928	1.81929
2.9476	1.81824
2.94593	1.78435
2.94425	1.80481
2.94258	1.7654
2.94092	1.57873
2.93925	1.48936
2.93758	1.48777
2.93592	1.51828
2.93426	1.663
2.9326	1.77845
2.93094	1.71521
2.92928	1.64519
2.92763	1.63789
2.92598	1.609
2.92433	1.57569
2.92268	1.79783
2.92103	1.80626
2.91939	1.74225
2.91775	1.86841
2.9161	1.94815
2.91447	1.90414
2.91283	1.91179
2.91119	1.904
2.90956	1.94361
2.90793	1.93934
2.9063	1.78516
2.90467	1.83156
2.90304	1.98782
2.90142	2.11627
2.89979	2.14198
2.89817	2.17034
2.89656	2.2603
2.89494	2.2938
2.89332	2.29539
2.89171	2.24966
2.8901	2.25305
2.88849	2.25761
2.88688	2.32092
2.88527	2.31026
2.88367	2.16258
2.88206	1.94597
2.88046	1.89498
2.87886	1.85503
2.87727	1.79217
2.87567	1.86448
2.87408	1.8112
2.87248	1.89601
2.87089	2.01854
2.8693	1.89328
2.86772	1.56459
2.86613	1.40174
2.86455	1.56594
2.86297	1.65546
2.86139	1.71096
2.85981	1.78951
2.85823	1.64623
2.85666	1.52739
2.85508	1.47504
2.85351	1.53943
2.85194	1.72158
2.85038	1.67843
2.84881	1.62197
2.84724	1.53548
2.84568	1.4651
2.84412	1.53341
2.84256	1.55579
2.841	1.54151
2.83945	1.51218
2.83789	1.51115
2.83634	1.48107
2.83479	1.46021
2.83324	1.42094
2.83169	1.36745
2.83015	1.36969
2.82861	1.37416
2.82706	1.40521
2.82552	1.46014
2.82398	1.39936
2.82245	1.25102
2.82091	1.17035
2.81938	1.19791
2.81784	1.3711
2.81631	1.28698
2.81479	1.17028
2.81326	1.38268
2.81173	1.53728
2.81021	1.49399
2.80869	1.44244
2.80716	1.55864
2.80565	1.52462
2.80413	1.44442
2.80261	1.55926
2.8011	1.66681
2.79959	1.63629
2.79808	1.58897
2.79657	1.69486
2.79506	1.70063
2.79355	1.59607
2.79205	1.56566
2.79055	1.64724
2.78904	1.78868
2.78754	1.90449
2.78605	1.8268
2.78455	1.85312
2.78306	1.95397
2.78156	2.005
2.78007	2.03999
2.77858	1.98067
2.77709	1.97626
2.77561	1.96469
2.77412	1.95172
2.77264	2.11411
2.77116	2.46537
2.76968	2.38674
2.7682	2.22337
2.76672	2.30208
2.76524	2.21729
2.76377	2.20673
2.7623	2.38379
2.76083	2.41449
2.75936	2.49374
2.75789	2.70403
2.75642	2.76434
2.75496	2.51477
2.7535	2.45604
2.75203	2.71473
2.75057	2.82479
2.74912	2.82199
2.74766	2.9713
2.7462	2.96384
2.74475	2.96794
2.7433	3.12598
2.74185	3.24642
2.7404	3.2607
2.73895	3.32373
2.7375	3.31878
2.73606	3.41364
2.73462	3.57213
2.73318	3.64323
2.73174	3.66407
2.7303	3.77319
2.72886	3.98159
2.72742	4.08923
2.72599	4.19685
2.72456	4.28026
2.72313	4.29441
2.7217	4.40043
2.72027	4.58
2.71884	4.5555
2.71742	4.72365
2.71599	4.84867
2.71457	4.91743
2.71315	4.965
2.71173	5.20952
2.71032	5.53849
2.7089	5.46068
2.70748	5.33723
2.70607	5.44399
2.70466	5.72166
2.70325	5.90096
2.70184	5.98646
2.70043	5.99824
2.69903	6.13518
2.69762	6.23026
2.69622	6.23472
2.69482	6.31324
2.69342	6.43865
2.69202	6.585
2.69062	6.57426
2.68923	6.58911
2.68783	6.6255
2.68644	6.68549
2.68505	6.83472
2.68366	6.90543
2.68227	6.95095
2.68089	7.08281
2.6795	7.1674
2.67812	7.29931
2.67673	7.44113
2.67535	7.23911
2.67397	7.11778
2.6726	7.25655
2.67122	7.69446
2.66984	7.76264
2.66847	7.65337
2.6671	7.9091
2.66572	8.10861
2.66435	8.11998
2.66299	7.97674
2.66162	7.83535
2.66025	7.80395
2.65889	7.98775
2.65753	7.97928
2.65616	8.02014
2.65481	8.06846
2.65345	8.01382
2.65209	8.17515
2.65073	8.32032
2.64938	8.38969
2.64803	8.50354
2.64667	8.53033
2.64532	8.5338
2.64397	8.48099
2.64263	8.57769
2.64128	8.5774
2.63994	8.60848
2.63859	8.75237
2.63725	8.67984
2.63591	8.5874
2.63457	8.92825
2.63323	9.01741
2.6319	9.10092
2.63056	9.33517
2.62923	9.3484
2.62789	9.38653
2.62656	9.25696
2.62523	9.21377
2.6239	9.38526
2.62258	9.45221
2.62125	9.61096
2.61993	9.6239
2.6186	9.59022
2.61728	9.73227
2.61596	9.55858
2.61464	9.50056
2.61332	9.61797
2.61201	9.68713
2.61069	9.82834
2.60938	9.89296
2.60807	9.92929
2.60675	10.16
2.60544	10.3131
2.60414	10.0726
2.60283	9.94144
2.60152	9.97891
2.60022	9.9642
2.59891	10.078
2.59761	10.4224
2.59631	10.8011
2.59501	11.1644
2.59371	10.9302
2.59242	10.5813
2.59112	10.5213
2.58983	10.526
2.58853	10.6895
2.58724	10.8092
2.58595	10.715
2.58466	10.8976
2.58338	10.93
2.58209	10.8331
2.5808	10.8297
2.57952	10.7077
2.57824	10.9928
2.57695	11.1779
2.57567	11.057
2.5744	11.228
2.57312	11.3618
2.57184	11.0656
2.57057	11.0791
2.56929	11.3178
2.56802	11.2972
2.56675	11.1639
2.56548	11.2338
2.56421	11.4126
2.56294	11.4899
2.56168	11.6044
2.56041	11.5174
2.55915	11.4664
2.55789	11.585
2.55662	11.5756
2.55536	11.5139
2.5541	11.5433
2.55285	11.6739
2.55159	11.6447
2.55034	11.6492
2.54908	11.8419
2.54783	12.0073
2.54658	11.9021
2.54533	11.8491
2.54408	11.8919
2.54283	11.917
2.54159	11.9487
2.54034	11.9647
2.5391	11.9641
2.53785	12.1382
2.53661	12.2472
2.53537	12.1496
2.53413	12.1164
2.53289	12.2066
2.53166	12.3075
2.53042	12.3485
2.52919	12.4496
2.52795	12.4829
2.52672	12.5085
2.52549	12.5712
2.52426	12.5905
2.52303	12.6167
2.52181	12.692
2.52058	12.6765
2.51936	12.5567
2.51813	12.537
2.51691	12.584
2.51569	12.5693
2.51447	12.5963
2.51325	12.6701
2.51203	12.6993
2.51082	12.7524
2.5096	12.6506
2.50839	12.6427
2.50717	12.8203
2.50596	12.8286
2.50475	12.8363
2.50354	12.9778
2.50233	12.9827
2.50113	13.006
2.49992	13.0761
2.49872	13.0653
2.49751	12.9566
2.49631	13.0125
2.49511	13.1204
2.49391	13.1078
2.49271	12.9293
2.49151	13.0024
2.49031	13.0847
2.48912	13.1871
2.48792	13.2808
2.48673	13.1469
2.48554	13.0988
2.48435	13.1494
2.48316	13.22
2.48197	13.2486
2.48078	13.1484
2.4796	13.223
2.47841	13.3053
2.47723	13.1935
2.47604	13.1823
2.47486	13.267
2.47368	13.2001
2.4725	13.2805
2.47132	13.4175
2.47014	13.2845
2.46897	13.2334
2.46779	13.3129
2.46662	13.2013
2.46545	13.1759
2.46427	13.2132
2.4631	13.3563
2.46193	13.4273
2.46077	13.4364
2.4596	13.3884
2.45843	13.2498
2.45727	13.1651
2.4561	13.2581
2.45494	13.4056
2.45378	13.486
2.45262	13.4288
2.45146	13.2978
2.4503	13.245
2.44914	13.2401
2.44799	13.3294
2.44683	13.3967
2.44568	13.4398
2.44452	13.4138
2.44337	13.3582
2.44222	13.307
2.44107	13.4031
2.43992	13.4304
2.43877	13.5128
2.43763	13.6935
2.43648	13.8189
2.43534	13.7043
2.43419	13.6082
2.43305	13.6091
2.43191	13.5534
2.43077	13.4666
2.42963	13.3799
2.42849	13.5805
2.42736	13.74
2.42622	13.6543
2.42509	13.5626
2.42395	13.5137
2.42282	13.3712
2.42169	13.3768
2.42056	13.615
2.41943	13.7599
2.4183	13.6841
2.41717	13.5005
2.41605	13.4549
2.41492	13.5162
2.4138	13.4482
2.41267	13.4244
2.41155	13.5027
2.41043	13.4941
2.40931	13.5767
2.40819	13.6493
2.40707	13.4481
2.40595	13.5067
2.40484	13.6822
2.40372	13.7606
2.40261	13.646
2.4015	13.5603
2.40039	13.6477
2.39928	13.7581
2.39817	13.6565
2.39706	13.6891
2.39595	13.7998
2.39484	13.7653
2.39374	13.65
2.39263	13.6501
2.39153	13.7014
2.39043	13.799
2.38932	13.8944
2.38822	13.9191
2.38712	13.8647
2.38603	14.0624
2.38493	14.2045
2.38383	14.0765
2.38274	14.1571
2.38164	14.4325
2.38055	14.7235
2.37946	14.9291
2.37836	14.8343
2.37727	14.761
2.37618	14.8265
2.3751	14.9728
2.37401	15.0385
2.37292	15.1583
2.37184	15.2785
2.37075	15.4319
2.36967	15.5355
2.36859	15.47
2.3675	15.5428
2.36642	15.6724
2.36534	15.6601
2.36427	15.6839
2.36319	15.7937
2.36211	15.8996
2.36104	16.0236
2.35996	16.042
2.35889	16.0564
2.35781	16.037
2.35674	16.1353
2.35567	16.4169
2.3546	16.5944
2.35353	16.5589
2.35247	16.4678
2.3514	16.4749
2.35033	16.7019
2.34927	16.7667
2.3482	16.8808
2.34714	16.954
2.34608	16.8829
2.34502	16.954
2.34396	17.1104
2.3429	17.0965
2.34184	17.1351
2.34078	17.2501
2.33973	17.3951
2.33867	17.4299
2.33762	17.3373
2.33656	17.3769
2.33551	17.4129
2.33446	17.421
2.33341	17.5241
2.33236	17.5884
2.33131	17.665
2.33026	17.6556
2.32922	17.7587
2.32817	17.8649
2.32712	17.8838
2.32608	17.9178
2.32504	18.0384
2.324	18.3188
2.32295	18.2915
2.32191	18.2278
2.32087	18.2289
2.31984	18.2239
2.3188	18.3898
2.31776	18.4073
2.31673	18.3882
2.31569	18.4407
2.31466	18.4246
2.31362	18.5422
2.31259	18.7455
2.31156	18.769
2.31053	18.7473
2.3095	18.8289
2.30847	18.966
2.30745	19.0019
2.30642	18.9532
2.3054	18.9371
2.30437	19.0558
2.30335	19.2337
2.30232	19.3714
2.3013	19.2808
2.30028	19.4368
2.29926	19.561
2.29824	19.3941
2.29722	19.3537
2.29621	19.4908
2.29519	19.4638
2.29417	19.5954
2.29316	19.6717
2.29215	19.6963
2.29113	19.7336
2.29012	19.725
2.28911	19.795
2.2881	19.8107
2.28709	19.72
2.28608	19.9084
2.28507	20.0213
2.28407	19.9645
2.28306	20.0614
2.28206	20.0893
2.28105	20.0118
2.28005	20.0968
2.27905	20.1706
2.27805	20.2506
2.27705	20.3146
2.27605	20.2527
2.27505	20.3707
2.27405	20.4592
2.27305	20.559
2.27206	20.5088
2.27106	20.4683
2.27007	20.6503
2.26907	20.6389
2.26808	20.497
2.26709	20.5577
2.2661	20.7632
2.26511	20.8513
2.26412	20.6746
2.26313	20.597
2.26214	20.6471
2.26116	20.6225
2.26017	20.6402
2.25919	20.7854
2.2582	20.7718
2.25722	20.7896
2.25624	20.9335
2.25526	21.0563
2.25428	20.9804
2.2533	20.9176
2.25232	20.9706
2.25134	20.8213
2.25036	20.7767
2.24939	20.8991
2.24841	20.8515
2.24744	20.822
2.24646	21.0288
2.24549	20.9431
2.24452	20.8374
2.24355	20.8184
2.24257	20.8477
2.24161	20.9722
2.24064	21.0382
2.23967	20.9263
2.2387	20.8233
2.23774	20.8465
2.23677	20.6581
2.23581	20.5898
2.23484	20.669
2.23388	20.528
2.23292	20.2753
2.23196	20.1851
2.231	20.491
2.23004	20.4948
2.22908	20.0956
2.22812	20.0192
2.22716	20.094
2.22621	19.977
2.22525	20.0073
2.2243	19.902
2.22334	19.8901
2.22239	19.9823
2.22144	20.0572
2.22049	20.1737
2.21953	20.1137
2.21859	20.0193
2.21764	20.072
2.21669	20.1277
2.21574	20.1629
2.21479	20.1086
2.21385	20.1763
2.2129	20.3187
2.21196	20.393
2.21102	20.3917
2.21007	20.4032
2.20913	20.6004
2.20819	20.6839
2.20725	20.5675
2.20631	20.5018
2.20537	20.5557
2.20444	20.6708
2.2035	20.65
2.20256	20.627
2.20163	20.6943
2.20069	20.6673
2.19976	20.6122
2.19883	20.6401
2.19789	20.6442
2.19696	20.7085
2.19603	20.8275
2.1951	20.8125
2.19417	20.8548
2.19325	20.9728
2.19232	20.7654
2.19139	20.4047
2.19047	20.404
2.18954	20.7345
2.18862	20.9772
2.18769	20.9646
2.18677	20.8313
2.18585	20.9944
2.18493	20.957
2.18401	20.8346
2.18309	21.0043
2.18217	21.1401
2.18125	21.1703
2.18033	21.0317
2.17942	20.9357
2.1785	20.9838
2.17759	21.0475
2.17667	21.1054
2.17576	20.9708
2.17485	20.9085
2.17393	21.0535
2.17302	21.0625
2.17211	21.1318
2.1712	21.3367
2.17029	21.1593
2.16939	20.9456
2.16848	20.8477
2.16757	20.9913
2.16667	21.1504
2.16576	21.1958
2.16486	21.2145
2.16395	21.2443
2.16305	20.9922
2.16215	20.8935
2.16125	20.908
2.16035	20.8344
2.15945	20.9286
2.15855	20.9809
2.15765	20.8983
2.15675	20.9369
2.15586	20.8488
2.15496	20.7894
2.15406	20.8947
2.15317	20.8916
2.15228	20.9004
2.15138	20.8669
2.15049	20.8686
2.1496	20.8559
2.14871	20.7041
2.14782	20.6283
2.14693	20.7331
2.14604	20.7558
2.14515	20.7306
2.14427	20.76
2.14338	20.6805
2.14249	20.6021
2.14161	20.7227
2.14072	20.6872
2.13984	20.5346
2.13896	20.5625
2.13808	20.6134
2.13719	20.7226
2.13631	20.6629
2.13543	20.5866
2.13455	20.4728
2.13368	20.4155
2.1328	20.465
2.13192	20.4177
2.13105	20.3188
2.13017	20.3899
2.1293	20.416
2.12842	20.3206
2.12755	20.3493
2.12668	20.3931
2.1258	20.4789
2.12493	20.4078
2.12406	20.2756
2.12319	20.1943
2.12232	20.1045
2.12145	20.0617
2.12059	20.1426
2.11972	20.1896
2.11885	20.1387
2.11799	20.033
2.11712	19.9157
2.11626	19.9583
2.1154	19.96
2.11453	19.8387
2.11367	19.9385
2.11281	20.0529
2.11195	19.8655
2.11109	19.7178
2.11023	19.6825
2.10937	19.8115
2.10851	19.8197
2.10766	19.8077
2.1068	19.6636
2.10594	19.3517
2.10509	19.3284
2.10423	19.5544
2.10338	19.5809
2.10253	19.3668
2.10168	19.2869
2.10082	19.0284
2.09997	18.7104
2.09912	18.7237
2.09827	18.9118
2.09742	19.0176
2.09658	18.9368
2.09573	18.8082
2.09488	18.7541
2.09404	18.9522
2.09319	18.8577
2.09235	18.6367
2.0915	18.5423
2.09066	18.4628
2.08982	18.4684
2.08897	18.5058
2.08813	18.3683
2.08729	18.3777
2.08645	18.4721
2.08561	18.4487
2.08477	18.101
2.08394	17.9937
2.0831	18.059
2.08226	18.1441
2.08143	17.9634
2.08059	17.9484
2.07976	18.0105
2.07892	18.0387
2.07809	18.2172
2.07726	17.9713
2.07643	18.0154
2.07559	18.0228
2.07476	17.8379
2.07393	17.8389
2.0731	17.7966
2.07228	17.576
2.07145	17.4592
2.07062	17.6164
2.06979	17.5765
2.06897	17.4298
2.06814	17.0673
2.06732	16.9468
2.06649	17.4663
2.06567	17.8424
2.06485	17.7491
2.06403	17.2786
2.0632	17.237
2.06238	17.2046
2.06156	16.8571
2.06074	16.9463
2.05993	17.1765
2.05911	17.0207
2.05829	16.9323
2.05747	16.9364
2.05666	16.7757
2.05584	16.8125
2.05503	16.737
2.05421	16.6702
2.0534	16.4851
2.05259	16.5489
2.05177	16.5538
2.05096	16.5166
2.05015	16.6933
2.04934	16.6675
2.04853	16.6296
2.04772	16.6768
2.04691	16.6916
2.04611	16.4893
2.0453	16.3252
2.04449	16.2046
2.04369	16.1434
2.04288	16.3564
2.04208	16.7831
2.04127	16.7478
2.04047	16.4155
2.03967	16.3054
2.03886	16.4378
2.03806	16.6136
2.03726	16.6132
2.03646	16.4053
2.03566	16.2605
2.03486	16.3558
2.03407	16.476
2.03327	16.8301
2.03247	17.0782
2.03167	17.2775
2.03088	17.1661
2.03008	17.0988
2.02929	17.0426
2.0285	16.8434
2.0277	16.8102
2.02691	17.0071
2.02612	17.312
2.02533	17.3878
2.02453	17.2312
2.02374	17.3911
2.02295	17.738
2.02217	17.8032
2.02138	17.7
2.02059	17.6309
2.0198	17.9819
2.01902	18.0899
2.01823	17.8945
2.01744	17.941
2.01666	18.1757
2.01588	18.4199
2.01509	18.295
2.01431	18.2707
2.01353	18.185
2.01275	18.192
2.01196	18.3331
2.01118	18.5775
2.0104	18.8617
2.00963	18.8517
2.00885	18.813
2.00807	18.8948
2.00729	18.9978
2.00651	19.1233
2.00574	19.0173
2.00496	18.8869
2.00419	19.1098
2.00341	19.1704
2.00264	19.0489
2.00187	18.9485
2.00109	18.9388
2.00032	19.0691
