Name: Gray Sandstone
Type: Rock
Class: Sedimentary
Subclass:  Sandstone 
Particle Size: Solid surface
Sample No.: Ward58.txt
Owner: JPL
Wavelength range:  VNIR SWIR IR 
Origin: Ward's Collection of American Rocks.  Sample locality - Berea, Cuyahoga County, Ohio.
Collected by:  Ward's Natural Science
Description: A light-gray, fine-grained sandstone showing fine parallel
bedding lines.
Geologic age - Mississippian.



Measurement: Hemispherical reflectance
First Column: X
Second Column: Y
X Units: Wavelength (micrometers)
Y Units: Reflectance (percent)
First X Value: 2.500
Last X Value: 0.400
Number of X Values: 2101
Additional information: None

2.500  40.815282
2.499  40.909200
2.498  40.842380
2.497  41.050332
2.496  40.810002
2.495  41.081831
2.494  40.943520
2.493  41.050734
2.492  40.827441
2.491  41.172750
2.490  41.178869
2.489  41.130991
2.488  41.025997
2.487  41.418944
2.486  41.349683
2.485  41.393795
2.484  41.535066
2.483  41.560520
2.482  41.433412
2.481  41.688334
2.480  41.818096
2.479  41.791424
2.478  41.811637
2.477  41.967137
2.476  41.901731
2.475  41.949642
2.474  42.053283
2.473  42.301479
2.472  42.087297
2.471  42.204053
2.470  42.139097
2.469  42.520134
2.468  42.335585
2.467  42.385168
2.466  42.371939
2.465  42.393179
2.464  42.398405
2.463  42.602548
2.462  42.530538
2.461  42.588651
2.460  42.525117
2.459  42.559510
2.458  42.640088
2.457  42.853581
2.456  42.675099
2.455  42.931080
2.454  42.835996
2.453  42.917164
2.452  42.860301
2.451  42.919284
2.450  42.919156
2.449  43.107794
2.448  43.054065
2.447  43.263053
2.446  43.321243
2.445  43.395234
2.444  43.318717
2.443  43.420472
2.442  43.474625
2.441  43.646531
2.440  43.617326
2.439  43.823984
2.438  43.872141
2.437  44.022842
2.436  44.076731
2.435  44.217443
2.434  44.235602
2.433  44.437512
2.432  44.467159
2.431  44.567989
2.430  44.700034
2.429  44.857296
2.428  44.937967
2.427  45.026659
2.426  45.116126
2.425  45.179939
2.424  45.214158
2.423  45.359293
2.422  45.473073
2.421  45.572659
2.420  45.601798
2.419  45.794053
2.418  45.785100
2.417  45.920556
2.416  45.949678
2.415  46.045860
2.414  46.059785
2.413  46.172375
2.412  46.269188
2.411  46.327010
2.410  46.324105
2.409  46.429836
2.408  46.401097
2.407  46.483441
2.406  46.499813
2.405  46.547271
2.404  46.471037
2.403  46.551071
2.402  46.484310
2.401  46.527641
2.400  46.498994
2.399  46.527186
2.398  46.466147
2.397  46.437113
2.396  46.406447
2.395  46.389987
2.394  46.325068
2.393  46.326150
2.392  46.318550
2.391  46.260389
2.390  46.139327
2.389  46.138739
2.388  46.126897
2.387  46.102163
2.386  46.055516
2.385  46.038651
2.384  45.970335
2.383  46.040671
2.382  46.060408
2.381  46.036055
2.380  46.007493
2.379  46.079531
2.378  46.044664
2.377  46.078240
2.376  46.149049
2.375  46.253589
2.374  46.280975
2.373  46.281417
2.372  46.361992
2.371  46.444813
2.370  46.501880
2.369  46.551637
2.368  46.532868
2.367  46.607289
2.366  46.660661
2.365  46.667912
2.364  46.701954
2.363  46.709377
2.362  46.695709
2.361  46.708074
2.360  46.736616
2.359  46.725489
2.358  46.694008
2.357  46.717554
2.356  46.734434
2.355  46.771991
2.354  46.820742
2.353  46.843653
2.352  46.917091
2.351  46.966745
2.350  47.012355
2.349  47.034003
2.348  47.019612
2.347  47.048777
2.346  47.108943
2.345  47.179338
2.344  47.226429
2.343  47.291406
2.342  47.393792
2.341  47.458287
2.340  47.531570
2.339  47.550700
2.338  47.633192
2.337  47.644443
2.336  47.688444
2.335  47.797750
2.334  47.827346
2.333  47.843124
2.332  47.855452
2.331  47.848198
2.330  47.920344
2.329  47.890950
2.328  47.926086
2.327  47.942352
2.326  47.991234
2.325  48.008984
2.324  48.096619
2.323  48.132998
2.322  48.114107
2.321  48.163494
2.320  48.257945
2.319  48.298294
2.318  48.332262
2.317  48.409164
2.316  48.534962
2.315  48.531328
2.314  48.626143
2.313  48.710489
2.312  48.798262
2.311  48.867021
2.310  48.986161
2.309  49.079413
2.308  49.159027
2.307  49.238709
2.306  49.352668
2.305  49.377195
2.304  49.490014
2.303  49.514462
2.302  49.672551
2.301  49.738172
2.300  49.859920
2.299  49.891286
2.298  49.952199
2.297  49.999814
2.296  50.023573
2.295  50.080968
2.294  50.132267
2.293  50.196393
2.292  50.330683
2.291  50.321082
2.290  50.367885
2.289  50.351900
2.288  50.433079
2.287  50.433702
2.286  50.616093
2.285  50.553837
2.284  50.631820
2.283  50.686621
2.282  50.680863
2.281  50.752931
2.280  50.780437
2.279  50.824610
2.278  50.821643
2.277  50.862750
2.276  50.946321
2.275  50.934897
2.274  51.106229
2.273  51.020943
2.272  51.058210
2.271  51.071602
2.270  51.219921
2.269  51.188305
2.268  51.185304
2.267  51.256861
2.266  51.262294
2.265  51.242974
2.264  51.274319
2.263  51.242731
2.262  51.283242
2.261  51.282432
2.260  51.311362
2.259  51.323155
2.258  51.453437
2.257  51.327924
2.256  51.389463
2.255  51.380405
2.254  51.387156
2.253  51.315550
2.252  51.391449
2.251  51.368946
2.250  51.507679
2.249  51.448208
2.248  51.439950
2.247  51.464759
2.246  51.431670
2.245  51.471653
2.244  51.551961
2.243  51.447039
2.242  51.482417
2.241  51.480258
2.240  51.546993
2.239  51.498989
2.238  51.584570
2.237  51.510543
2.236  51.516064
2.235  51.475957
2.234  51.549254
2.233  51.440039
2.232  51.418089
2.231  51.294000
2.230  51.343783
2.229  51.224060
2.228  51.139728
2.227  50.951027
2.226  50.994379
2.225  50.799612
2.224  50.639333
2.223  50.413434
2.222  50.276952
2.221  49.931069
2.220  49.772986
2.219  49.251781
2.218  48.843325
2.217  48.397231
2.216  48.031973
2.215  47.408244
2.214  47.008526
2.213  46.573839
2.212  46.365800
2.211  45.830641
2.210  45.550132
2.209  45.251038
2.208  45.269257
2.207  45.191582
2.206  45.170292
2.205  45.329568
2.204  45.625092
2.203  45.814370
2.202  46.219398
2.201  46.415613
2.200  46.836813
2.199  46.955309
2.198  47.404493
2.197  47.562909
2.196  47.840530
2.195  47.987171
2.194  48.206974
2.193  48.200398
2.192  48.478956
2.191  48.560641
2.190  48.834201
2.189  48.943054
2.188  49.119958
2.187  49.242265
2.186  49.404489
2.185  49.480163
2.184  49.725264
2.183  49.816327
2.182  49.929679
2.181  49.982741
2.180  50.105635
2.179  50.149990
2.178  50.157848
2.177  50.106607
2.176  50.119469
2.175  50.049927
2.174  50.068071
2.173  50.046916
2.172  50.085068
2.171  50.044098
2.170  50.041383
2.169  50.056655
2.168  49.994958
2.167  49.887620
2.166  49.983591
2.165  49.913540
2.164  50.004731
2.163  49.977253
2.162  50.160254
2.161  50.078779
2.160  50.204486
2.159  50.266418
2.158  50.411871
2.157  50.536235
2.156  50.692841
2.155  50.871518
2.154  51.035089
2.153  51.301061
2.152  51.486585
2.151  51.698553
2.150  51.927226
2.149  52.171117
2.148  52.415718
2.147  52.672079
2.146  52.927009
2.145  53.164066
2.144  53.491889
2.143  53.594090
2.142  53.884467
2.141  53.989129
2.140  54.190268
2.139  54.351261
2.138  54.594029
2.137  54.597964
2.136  54.684897
2.135  54.808393
2.134  54.835303
2.133  54.920904
2.132  54.956035
2.131  54.970545
2.130  55.076090
2.129  55.094274
2.128  55.096959
2.127  55.102979
2.126  55.045362
2.125  55.052253
2.124  55.172635
2.123  55.150049
2.122  55.121521
2.121  55.066030
2.120  55.130107
2.119  55.043295
2.118  55.096142
2.117  55.114600
2.116  55.055750
2.115  55.024391
2.114  55.044074
2.113  55.071579
2.112  55.087632
2.111  55.058367
2.110  55.105244
2.109  55.140705
2.108  55.146048
2.107  55.214269
2.106  55.172291
2.105  55.185071
2.104  55.216623
2.103  55.223283
2.102  55.253538
2.101  55.250109
2.100  55.237938
2.099  55.228350
2.098  55.241194
2.097  55.265990
2.096  55.321845
2.095  55.316917
2.094  55.372405
2.093  55.357373
2.092  55.352291
2.091  55.351968
2.090  55.355427
2.089  55.383709
2.088  55.427955
2.087  55.445923
2.086  55.463009
2.085  55.479722
2.084  55.508275
2.083  55.535436
2.082  55.614133
2.081  55.651341
2.080  55.701806
2.079  55.742362
2.078  55.699560
2.077  55.714088
2.076  55.733444
2.075  55.742794
2.074  55.794276
2.073  55.812480
2.072  55.770969
2.071  55.786491
2.070  55.893334
2.069  55.891040
2.068  55.869779
2.067  55.903908
2.066  55.927460
2.065  55.967064
2.064  55.960189
2.063  55.968674
2.062  55.996580
2.061  56.026307
2.060  55.982280
2.059  56.006894
2.058  56.010177
2.057  55.979898
2.056  55.984430
2.055  56.014364
2.054  56.004184
2.053  56.031246
2.052  56.071881
2.051  56.011831
2.050  55.961979
2.049  55.986550
2.048  56.019460
2.047  56.018747
2.046  56.019522
2.045  56.043077
2.044  55.987062
2.043  56.007331
2.042  55.984703
2.041  55.948863
2.040  55.975363
2.039  56.038315
2.038  56.008337
2.037  56.008636
2.036  55.948459
2.035  55.936830
2.034  55.974415
2.033  55.973188
2.032  55.870406
2.031  55.867360
2.030  55.924697
2.029  55.957353
2.028  55.920258
2.027  55.870303
2.026  55.831452
2.025  55.807889
2.024  55.813341
2.023  55.778303
2.022  55.712396
2.021  55.741567
2.020  55.725584
2.019  55.701696
2.018  55.687010
2.017  55.696576
2.016  55.626953
2.015  55.651416
2.014  55.628941
2.013  55.596440
2.012  55.558623
2.011  55.512619
2.010  55.433691
2.009  55.549900
2.008  55.494757
2.007  55.469907
2.006  55.446061
2.005  55.417704
2.004  55.332790
2.003  55.342126
2.002  55.300003
2.001  55.284771
2.000  55.283056
1.999  55.272131
1.998  55.191143
1.997  55.135273
1.996  55.089930
1.995  55.105249
1.994  55.132348
1.993  55.117517
1.992  54.988827
1.991  54.990050
1.990  54.954439
1.989  54.973551
1.988  54.900976
1.987  54.822780
1.986  54.785920
1.985  54.819998
1.984  54.726874
1.983  54.703691
1.982  54.593543
1.981  54.656458
1.980  54.550906
1.979  54.648374
1.978  54.494057
1.977  54.505359
1.976  54.399655
1.975  54.435665
1.974  54.365404
1.973  54.321479
1.972  54.302366
1.971  54.351158
1.970  54.278565
1.969  54.293638
1.968  54.153433
1.967  54.124407
1.966  54.123121
1.965  54.167005
1.964  54.057274
1.963  54.094464
1.962  53.988436
1.961  54.033870
1.960  53.875291
1.959  53.967377
1.958  53.903110
1.957  53.871931
1.956  53.839808
1.955  53.822933
1.954  53.772937
1.953  53.750163
1.952  53.790400
1.951  53.672447
1.950  53.692456
1.949  53.679653
1.948  53.574456
1.947  53.654068
1.946  53.631427
1.945  53.574982
1.944  53.504921
1.943  53.534339
1.942  53.516541
1.941  53.509328
1.940  53.405586
1.939  53.450883
1.938  53.392919
1.937  53.456853
1.936  53.419123
1.935  53.468098
1.934  53.343777
1.933  53.484394
1.932  53.395835
1.931  53.411340
1.930  53.307758
1.929  53.479801
1.928  53.331910
1.927  53.453699
1.926  53.285431
1.925  53.428837
1.924  53.208835
1.923  53.331089
1.922  53.396819
1.921  53.430912
1.920  53.415790
1.919  53.338857
1.918  53.391706
1.917  53.484455
1.916  53.491173
1.915  53.520253
1.914  53.437341
1.913  53.577259
1.912  53.563247
1.911  53.675888
1.910  53.707412
1.909  53.944919
1.908  53.799800
1.907  53.929902
1.906  54.068174
1.905  54.161304
1.904  54.294099
1.903  54.516961
1.902  54.616113
1.901  54.787085
1.900  55.005860
1.899  55.151065
1.898  55.225683
1.897  55.470454
1.896  55.624905
1.895  55.876176
1.894  56.034548
1.893  56.201679
1.892  56.218236
1.891  56.430080
1.890  56.530238
1.889  56.733975
1.888  56.890959
1.887  57.017312
1.886  57.208221
1.885  57.412854
1.884  57.409683
1.883  57.472752
1.882  57.587972
1.881  57.748266
1.880  57.672277
1.879  57.821847
1.878  57.899193
1.877  57.964370
1.876  57.928923
1.875  58.082776
1.874  58.169508
1.873  58.217185
1.872  58.298573
1.871  58.406202
1.870  58.438759
1.869  58.619554
1.868  58.588422
1.867  58.653870
1.866  58.642079
1.865  58.670911
1.864  58.628994
1.863  58.746582
1.862  58.630452
1.861  58.609568
1.860  58.636971
1.859  58.617086
1.858  58.631730
1.857  58.714696
1.856  58.722172
1.855  58.743857
1.854  58.737695
1.853  58.784558
1.852  58.805573
1.851  58.749689
1.850  58.688035
1.849  58.723865
1.848  58.696008
1.847  58.685739
1.846  58.710011
1.845  58.738911
1.844  58.676321
1.843  58.647803
1.842  58.676064
1.841  58.682376
1.840  58.751092
1.839  58.769731
1.838  58.715441
1.837  58.731334
1.836  58.768236
1.835  58.771943
1.834  58.748959
1.833  58.775515
1.832  58.774251
1.831  58.713135
1.830  58.690158
1.829  58.745703
1.828  58.717209
1.827  58.733110
1.826  58.639148
1.825  58.654467
1.824  58.633633
1.823  58.670483
1.822  58.572872
1.821  58.583712
1.820  58.596016
1.819  58.556205
1.818  58.567794
1.817  58.602567
1.816  58.574617
1.815  58.584776
1.814  58.636536
1.813  58.705441
1.812  58.686230
1.811  58.629972
1.810  58.643756
1.809  58.660150
1.808  58.637544
1.807  58.595419
1.806  58.625963
1.805  58.661682
1.804  58.626461
1.803  58.618384
1.802  58.678299
1.801  58.680242
1.800  58.580903
1.799  58.618983
1.798  58.602733
1.797  58.593400
1.796  58.597400
1.795  58.593067
1.794  58.628051
1.793  58.626003
1.792  58.569872
1.791  58.541412
1.790  58.594275
1.789  58.613402
1.788  58.576103
1.787  58.576737
1.786  58.536494
1.785  58.530210
1.784  58.561937
1.783  58.583919
1.782  58.595981
1.781  58.601358
1.780  58.566243
1.779  58.550736
1.778  58.561825
1.777  58.613077
1.776  58.601546
1.775  58.592331
1.774  58.655865
1.773  58.636065
1.772  58.642124
1.771  58.600315
1.770  58.576483
1.769  58.595415
1.768  58.617076
1.767  58.633461
1.766  58.629830
1.765  58.593056
1.764  58.574046
1.763  58.587196
1.762  58.561405
1.761  58.581282
1.760  58.587117
1.759  58.556060
1.758  58.597437
1.757  58.585984
1.756  58.591703
1.755  58.517217
1.754  58.556029
1.753  58.589283
1.752  58.576229
1.751  58.553078
1.750  58.588487
1.749  58.573180
1.748  58.561362
1.747  58.544930
1.746  58.568631
1.745  58.504161
1.744  58.537390
1.743  58.539000
1.742  58.569308
1.741  58.617004
1.740  58.573992
1.739  58.562285
1.738  58.523344
1.737  58.543868
1.736  58.548030
1.735  58.466040
1.734  58.557715
1.733  58.499791
1.732  58.514192
1.731  58.537547
1.730  58.600231
1.729  58.556243
1.728  58.504352
1.727  58.508491
1.726  58.524218
1.725  58.519521
1.724  58.543939
1.723  58.459759
1.722  58.481309
1.721  58.495115
1.720  58.559869
1.719  58.518665
1.718  58.567194
1.717  58.536700
1.716  58.564434
1.715  58.492092
1.714  58.484057
1.713  58.430934
1.712  58.484651
1.711  58.466955
1.710  58.452334
1.709  58.340414
1.708  58.435561
1.707  58.425760
1.706  58.448729
1.705  58.432777
1.704  58.407629
1.703  58.323769
1.702  58.349880
1.701  58.381392
1.700  58.331924
1.699  58.261731
1.698  58.380544
1.697  58.339593
1.696  58.312323
1.695  58.312385
1.694  58.398976
1.693  58.280594
1.692  58.247823
1.691  58.175397
1.690  58.329991
1.689  58.240363
1.688  58.261177
1.687  58.330838
1.686  58.308974
1.685  58.168220
1.684  58.209077
1.683  58.170231
1.682  58.228250
1.681  58.210606
1.680  58.184484
1.679  58.174456
1.678  58.242659
1.677  58.169234
1.676  58.148837
1.675  58.217871
1.674  58.118784
1.673  58.130548
1.672  58.061659
1.671  58.094134
1.670  58.061222
1.669  58.238592
1.668  58.009602
1.667  58.067211
1.666  58.155729
1.665  58.065253
1.664  58.110632
1.663  58.069496
1.662  58.106299
1.661  58.003773
1.660  58.077319
1.659  57.990058
1.658  57.952669
1.657  57.956865
1.656  58.032102
1.655  57.898439
1.654  57.961196
1.653  57.814087
1.652  57.936216
1.651  57.940978
1.650  57.882893
1.649  57.862391
1.648  57.883037
1.647  57.834523
1.646  57.860648
1.645  57.807565
1.644  57.846112
1.643  57.805273
1.642  57.929522
1.641  57.688154
1.640  57.906188
1.639  57.806563
1.638  57.851672
1.637  57.795915
1.636  57.810160
1.635  57.860057
1.634  57.730244
1.633  57.693871
1.632  57.782755
1.631  57.647289
1.630  57.715872
1.629  57.657070
1.628  57.674692
1.627  57.635394
1.626  57.666088
1.625  57.678989
1.624  57.669199
1.623  57.653096
1.622  57.642707
1.621  57.592804
1.620  57.575068
1.619  57.607043
1.618  57.592333
1.617  57.570713
1.616  57.635065
1.615  57.547596
1.614  57.611288
1.613  57.485603
1.612  57.535331
1.611  57.475656
1.610  57.537985
1.609  57.407398
1.608  57.472382
1.607  57.392403
1.606  57.476719
1.605  57.374231
1.604  57.444632
1.603  57.452470
1.602  57.311824
1.601  57.336107
1.600  57.385806
1.599  57.345958
1.598  57.321083
1.597  57.291179
1.596  57.316030
1.595  57.283078
1.594  57.320897
1.593  57.263970
1.592  57.261991
1.591  57.139743
1.590  57.260899
1.589  57.218541
1.588  57.158686
1.587  57.154410
1.586  57.192236
1.585  57.165265
1.584  57.118097
1.583  57.132528
1.582  57.161771
1.581  57.026690
1.580  57.024494
1.579  57.047733
1.578  56.928748
1.577  56.981975
1.576  56.966442
1.575  56.891324
1.574  56.934194
1.573  56.830107
1.572  56.882148
1.571  56.916747
1.570  56.857818
1.569  56.807178
1.568  56.850030
1.567  56.834887
1.566  56.790316
1.565  56.725473
1.564  56.797653
1.563  56.771277
1.562  56.806972
1.561  56.768315
1.560  56.702991
1.559  56.682163
1.558  56.704468
1.557  56.639788
1.556  56.632597
1.555  56.629600
1.554  56.529087
1.553  56.556775
1.552  56.580014
1.551  56.510620
1.550  56.498380
1.549  56.419223
1.548  56.445614
1.547  56.475536
1.546  56.449505
1.545  56.377035
1.544  56.412651
1.543  56.335536
1.542  56.337619
1.541  56.349308
1.540  56.399384
1.539  56.348091
1.538  56.319013
1.537  56.221360
1.536  56.255235
1.535  56.215979
1.534  56.240002
1.533  56.266459
1.532  56.168326
1.531  56.122338
1.530  56.128599
1.529  56.063501
1.528  56.012710
1.527  56.007040
1.526  56.030532
1.525  56.059626
1.524  56.038940
1.523  56.038548
1.522  56.024491
1.521  55.996758
1.520  55.969659
1.519  55.950924
1.518  55.910253
1.517  55.848157
1.516  55.794961
1.515  55.744292
1.514  55.765284
1.513  55.765038
1.512  55.787749
1.511  55.722707
1.510  55.680171
1.509  55.665322
1.508  55.638675
1.507  55.576432
1.506  55.523233
1.505  55.504831
1.504  55.499306
1.503  55.479877
1.502  55.476581
1.501  55.449702
1.500  55.447639
1.499  55.437248
1.498  55.418684
1.497  55.416135
1.496  55.366470
1.495  55.300539
1.494  55.268511
1.493  55.255561
1.492  55.229832
1.491  55.200885
1.490  55.206835
1.489  55.214481
1.488  55.155296
1.487  55.127355
1.486  55.099190
1.485  55.055682
1.484  55.022447
1.483  55.010597
1.482  54.996538
1.481  54.986611
1.480  54.956055
1.479  54.908605
1.478  54.891213
1.477  54.891745
1.476  54.822584
1.475  54.781434
1.474  54.755058
1.473  54.699980
1.472  54.695546
1.471  54.648530
1.470  54.589633
1.469  54.640014
1.468  54.624443
1.467  54.544070
1.466  54.504591
1.465  54.532130
1.464  54.548427
1.463  54.533013
1.462  54.495369
1.461  54.448378
1.460  54.369949
1.459  54.346592
1.458  54.325924
1.457  54.289858
1.456  54.290086
1.455  54.289197
1.454  54.214558
1.453  54.253673
1.452  54.190001
1.451  54.243190
1.450  54.206797
1.449  54.147771
1.448  54.109026
1.447  54.058820
1.446  54.041112
1.445  54.041681
1.444  54.008986
1.443  54.045648
1.442  53.957866
1.441  53.970924
1.440  53.917788
1.439  53.868299
1.438  53.756162
1.437  53.748389
1.436  53.691739
1.435  53.700747
1.434  53.620674
1.433  53.555977
1.432  53.435584
1.431  53.391172
1.430  53.345183
1.429  53.275381
1.428  53.098245
1.427  53.038197
1.426  52.912529
1.425  52.868926
1.424  52.646410
1.423  52.531781
1.422  52.234635
1.421  51.871674
1.420  51.189585
1.419  50.296194
1.418  49.095986
1.417  48.238277
1.416  47.817705
1.415  48.227845
1.414  48.816716
1.413  49.747076
1.412  50.236936
1.411  50.500976
1.410  50.377727
1.409  50.216567
1.408  49.893332
1.407  49.761302
1.406  49.647040
1.405  49.860973
1.404  50.028349
1.403  50.184950
1.402  50.230805
1.401  50.161332
1.400  49.962605
1.399  49.885490
1.398  49.795332
1.397  49.721698
1.396  49.732187
1.395  49.837938
1.394  50.192604
1.393  50.678695
1.392  51.014022
1.391  51.567921
1.390  51.724010
1.389  52.086555
1.388  52.133862
1.387  52.357816
1.386  52.454258
1.385  52.520302
1.384  52.571400
1.383  52.750896
1.382  52.642504
1.381  52.697293
1.380  52.732963
1.379  52.882510
1.378  52.902133
1.377  52.971429
1.376  53.021183
1.375  52.949248
1.374  52.999462
1.373  52.983148
1.372  53.005665
1.371  53.003391
1.370  52.919656
1.369  52.904574
1.368  52.884945
1.367  52.922017
1.366  52.847048
1.365  52.895002
1.364  52.721362
1.363  52.809047
1.362  52.681950
1.361  52.609779
1.360  52.671551
1.359  52.680454
1.358  52.538804
1.357  52.715456
1.356  52.623819
1.355  52.513370
1.354  52.605163
1.353  52.584441
1.352  52.658541
1.351  52.745746
1.350  52.739663
1.349  52.926104
1.348  52.737910
1.347  52.817718
1.346  52.750698
1.345  52.731175
1.344  52.702711
1.343  52.711862
1.342  52.680895
1.341  52.710107
1.340  52.680653
1.339  52.699975
1.338  52.600586
1.337  52.566134
1.336  52.616307
1.335  52.511619
1.334  52.464247
1.333  52.484409
1.332  52.541353
1.331  52.558326
1.330  52.528965
1.329  52.445831
1.328  52.426862
1.327  52.423935
1.326  52.345363
1.325  52.410153
1.324  52.324932
1.323  52.332572
1.322  52.240478
1.321  52.300101
1.320  52.207207
1.319  52.320275
1.318  52.249247
1.317  52.301606
1.316  52.229903
1.315  52.251268
1.314  52.227532
1.313  52.150898
1.312  52.111827
1.311  52.163009
1.310  52.060412
1.309  52.180790
1.308  52.023101
1.307  52.088944
1.306  52.045534
1.305  51.988335
1.304  52.018568
1.303  51.991385
1.302  51.953490
1.301  52.074380
1.300  51.899517
1.299  51.912892
1.298  51.894105
1.297  51.929452
1.296  51.864365
1.295  51.899004
1.294  51.850551
1.293  51.861704
1.292  51.841989
1.291  51.829735
1.290  51.786952
1.289  51.792457
1.288  51.732028
1.287  51.683176
1.286  51.676098
1.285  51.675742
1.284  51.701458
1.283  51.729324
1.282  51.760106
1.281  51.718145
1.280  51.587708
1.279  51.585271
1.278  51.569417
1.277  51.527149
1.276  51.508730
1.275  51.542799
1.274  51.479288
1.273  51.465952
1.272  51.419620
1.271  51.399391
1.270  51.360701
1.269  51.362094
1.268  51.328148
1.267  51.341333
1.266  51.247616
1.265  51.309187
1.264  51.274516
1.263  51.247605
1.262  51.239096
1.261  51.272147
1.260  51.174238
1.259  51.203366
1.258  51.110781
1.257  51.075913
1.256  51.115475
1.255  51.070292
1.254  50.927783
1.253  50.961638
1.252  51.012442
1.251  50.957915
1.250  50.932619
1.249  50.912972
1.248  50.918213
1.247  50.923775
1.246  50.815048
1.245  50.776957
1.244  50.751120
1.243  50.767007
1.242  50.752705
1.241  50.725767
1.240  50.668510
1.239  50.681259
1.238  50.653761
1.237  50.656853
1.236  50.589955
1.235  50.591258
1.234  50.381104
1.233  50.276999
1.232  50.552732
1.231  50.535800
1.230  50.441037
1.229  50.470787
1.228  50.479310
1.227  50.443137
1.226  50.407014
1.225  50.445342
1.224  50.440827
1.223  50.381882
1.222  50.335208
1.221  50.346405
1.220  50.313698
1.219  50.266081
1.218  50.224360
1.217  50.216013
1.216  50.154433
1.215  50.101002
1.214  50.178113
1.213  50.170144
1.212  50.085513
1.211  50.084753
1.210  50.104955
1.209  50.058364
1.208  50.050821
1.207  50.012590
1.206  49.976223
1.205  50.014174
1.204  49.992580
1.203  49.986026
1.202  49.984692
1.201  49.913772
1.200  49.837581
1.199  49.853890
1.198  49.854768
1.197  49.804330
1.196  49.804189
1.195  49.806783
1.194  49.775314
1.193  49.676344
1.192  49.632741
1.191  49.635113
1.190  49.697556
1.189  49.742826
1.188  49.568724
1.187  49.532587
1.186  49.574921
1.185  49.606364
1.184  49.603461
1.183  49.524908
1.182  49.498169
1.181  49.487213
1.180  49.510439
1.179  49.468532
1.178  49.452193
1.177  49.454204
1.176  49.435339
1.175  49.371169
1.174  49.427859
1.173  49.332175
1.172  49.367123
1.171  49.365219
1.170  49.337911
1.169  49.289805
1.168  49.288705
1.167  49.232099
1.166  49.237096
1.165  49.207178
1.164  49.224207
1.163  49.216772
1.162  49.224432
1.161  49.205785
1.160  49.189701
1.159  49.141940
1.158  49.159035
1.157  49.130836
1.156  49.148990
1.155  49.174565
1.154  49.126248
1.153  49.031673
1.152  49.092228
1.151  48.978566
1.150  49.004388
1.149  48.997495
1.148  49.063485
1.147  48.950419
1.146  48.985363
1.145  48.940172
1.144  48.987289
1.143  48.936451
1.142  48.977769
1.141  48.829932
1.140  48.920022
1.139  48.880883
1.138  48.880380
1.137  48.893670
1.136  48.797135
1.135  48.764075
1.134  48.746837
1.133  48.687923
1.132  48.792059
1.131  48.792418
1.130  48.770004
1.129  48.751365
1.128  48.758977
1.127  48.693051
1.126  48.778598
1.125  48.741476
1.124  48.689256
1.123  48.654001
1.122  48.703760
1.121  48.635851
1.120  48.627348
1.119  48.664175
1.118  48.654565
1.117  48.605535
1.116  48.577900
1.115  48.512368
1.114  48.563910
1.113  48.545291
1.112  48.609725
1.111  48.573676
1.110  48.521742
1.109  48.497371
1.108  48.531541
1.107  48.501820
1.106  48.498569
1.105  48.417971
1.104  48.509853
1.103  48.472814
1.102  48.475258
1.101  48.427968
1.100  48.514828
1.099  48.441703
1.098  48.444250
1.097  48.357694
1.096  48.493365
1.095  48.287913
1.094  48.369334
1.093  48.273901
1.092  48.400449
1.091  48.426645
1.090  48.376880
1.089  48.340640
1.088  48.352424
1.087  48.321819
1.086  48.392261
1.085  48.205976
1.084  48.344687
1.083  48.331628
1.082  48.319027
1.081  48.251812
1.080  48.316242
1.079  48.190341
1.078  48.316930
1.077  48.225276
1.076  48.270314
1.075  48.257878
1.074  48.265483
1.073  48.202932
1.072  48.272882
1.071  48.299098
1.070  48.225172
1.069  48.253285
1.068  48.236959
1.067  48.264842
1.066  48.392183
1.065  48.173741
1.064  48.321740
1.063  48.159451
1.062  48.224674
1.061  48.174997
1.060  48.249772
1.059  48.092062
1.058  48.174289
1.057  48.104444
1.056  48.200901
1.055  48.183246
1.054  48.223294
1.053  48.089793
1.052  48.099170
1.051  48.169916
1.050  48.157546
1.049  48.104306
1.048  48.218911
1.047  48.150977
1.046  48.231039
1.045  48.161749
1.044  48.076557
1.043  48.073750
1.042  48.120302
1.041  48.108799
1.040  48.122780
1.039  48.129867
1.038  48.130391
1.037  48.100079
1.036  48.062057
1.035  48.159733
1.034  48.131177
1.033  48.070027
1.032  48.045129
1.031  48.071902
1.030  48.166785
1.029  48.118065
1.028  48.189501
1.027  48.035632
1.026  48.049982
1.025  48.004662
1.024  48.086188
1.023  48.041742
1.022  48.100072
1.021  48.010598
1.020  48.053959
1.019  48.048475
1.018  48.066081
1.017  48.008701
1.016  48.078261
1.015  48.069277
1.014  48.080383
1.013  47.946435
1.012  48.057441
1.011  48.020856
1.010  48.021179
1.009  48.039254
1.008  48.045023
1.007  47.987026
1.006  48.021102
1.005  47.959262
1.004  47.943706
1.003  47.996379
1.002  48.040478
1.001  48.020013
1.000  47.983627
0.999  47.961545
0.998  47.991808
0.997  47.970306
0.996  48.021663
0.995  47.890899
0.994  47.972463
0.993  47.913198
0.992  47.924834
0.991  47.868621
0.990  47.877643
0.989  47.858065
0.988  47.908941
0.987  47.899302
0.986  47.893280
0.985  47.869714
0.984  47.854103
0.983  47.851655
0.982  47.868669
0.981  47.801716
0.980  47.789475
0.979  47.809490
0.978  47.826968
0.977  47.733864
0.976  47.745387
0.975  47.725342
0.974  47.710497
0.973  47.761133
0.972  47.763455
0.971  47.837913
0.970  47.829579
0.969  47.611413
0.968  47.668073
0.967  47.596368
0.966  47.584900
0.965  47.538685
0.964  47.582937
0.963  47.551486
0.962  47.564864
0.961  47.573782
0.960  47.594474
0.959  47.551546
0.958  47.513163
0.957  47.486236
0.956  47.578197
0.955  47.543622
0.954  47.556937
0.953  47.517670
0.952  47.510083
0.951  47.496515
0.950  47.501079
0.949  47.471156
0.948  47.463957
0.947  47.503172
0.946  47.497905
0.945  47.427643
0.944  47.434375
0.943  47.440353
0.942  47.424096
0.941  47.411645
0.940  47.425550
0.939  47.420273
0.938  47.433445
0.937  47.411526
0.936  47.407882
0.935  47.400925
0.934  47.369831
0.933  47.360087
0.932  47.322809
0.931  47.281994
0.930  47.344938
0.929  47.386288
0.928  47.328169
0.927  47.299231
0.926  47.285043
0.925  47.282629
0.924  47.330203
0.923  47.285825
0.922  47.264141
0.921  47.311506
0.920  47.270945
0.919  47.235503
0.918  47.270476
0.917  47.266560
0.916  47.231819
0.915  47.230578
0.914  47.196014
0.913  47.245611
0.912  47.209484
0.911  47.201423
0.910  47.195987
0.909  47.201604
0.908  47.218992
0.907  47.245459
0.906  47.220321
0.905  47.219498
0.904  47.161485
0.903  47.116104
0.902  47.131324
0.901  47.211847
0.900  47.242020
0.899  47.139719
0.898  47.111606
0.897  47.150680
0.896  47.153520
0.895  47.174832
0.894  47.161773
0.893  47.201623
0.892  47.191521
0.891  47.168595
0.890  47.208110
0.889  47.264386
0.888  47.196076
0.887  47.242416
0.886  47.169196
0.885  47.245903
0.884  47.193679
0.883  47.170366
0.882  47.182013
0.881  47.161020
0.880  47.220594
0.879  47.292466
0.878  47.191426
0.877  47.257743
0.876  47.267783
0.875  47.309948
0.874  47.255759
0.873  47.228310
0.872  47.208288
0.871  47.246312
0.870  47.266169
0.869  47.224186
0.868  47.167429
0.867  47.297370
0.866  47.250313
0.865  47.242804
0.864  47.188576
0.863  47.301069
0.862  47.261217
0.861  47.303286
0.860  47.586220
0.859  47.630679
0.858  47.700998
0.857  47.714667
0.856  47.763510
0.855  47.733486
0.854  47.726519
0.853  47.723805
0.852  47.705456
0.851  47.706836
0.850  47.706341
0.849  47.698358
0.848  47.703616
0.847  47.686025
0.846  47.748859
0.845  47.702964
0.844  47.716499
0.843  47.734460
0.842  47.711488
0.841  47.723292
0.840  47.688981
0.839  47.691983
0.838  47.718331
0.837  47.706589
0.836  47.713849
0.835  47.671015
0.834  47.674251
0.833  47.696746
0.832  47.699015
0.831  47.685833
0.830  47.666482
0.829  47.655161
0.828  47.686265
0.827  47.657543
0.826  47.633174
0.825  47.665435
0.824  47.658774
0.823  47.609113
0.822  47.612416
0.821  47.624907
0.820  47.585207
0.819  47.612496
0.818  47.632479
0.817  47.578184
0.816  47.595394
0.815  47.570946
0.814  47.552973
0.813  47.524044
0.812  47.511529
0.811  47.508526
0.810  47.508035
0.809  47.467959
0.808  47.473902
0.807  47.469691
0.806  47.455233
0.805  47.417663
0.804  47.406001
0.803  47.389789
0.802  47.370380
0.801  47.342698
0.800  47.297398
0.799  47.302489
0.798  47.285075
0.797  47.240673
0.796  47.179415
0.795  47.158641
0.794  47.132432
0.793  47.125137
0.792  47.089346
0.791  47.093018
0.790  47.036460
0.789  47.026743
0.788  47.024034
0.787  46.957911
0.786  46.960563
0.785  46.918634
0.784  46.920016
0.783  46.869530
0.782  46.857503
0.781  46.842471
0.780  46.760701
0.779  46.741404
0.778  46.692890
0.777  46.714604
0.776  46.665970
0.775  46.623829
0.774  46.620428
0.773  46.588312
0.772  46.578013
0.771  46.521084
0.770  46.501846
0.769  46.455284
0.768  46.437851
0.767  46.420189
0.766  46.386213
0.765  46.353667
0.764  46.357815
0.763  46.293832
0.762  46.284202
0.761  46.244783
0.760  46.221890
0.759  46.202973
0.758  46.177832
0.757  46.165598
0.756  46.118162
0.755  46.096041
0.754  46.067449
0.753  46.055490
0.752  46.022109
0.751  45.996744
0.750  45.980390
0.749  45.953053
0.748  45.938992
0.747  45.892776
0.746  45.878190
0.745  45.865685
0.744  45.828325
0.743  45.794693
0.742  45.783709
0.741  45.762842
0.740  45.740252
0.739  45.736378
0.738  45.699612
0.737  45.674176
0.736  45.653022
0.735  45.634301
0.734  45.625701
0.733  45.596100
0.732  45.580047
0.731  45.573822
0.730  45.540697
0.729  45.531547
0.728  45.515115
0.727  45.488945
0.726  45.475385
0.725  45.443132
0.724  45.443493
0.723  45.435585
0.722  45.405548
0.721  45.382434
0.720  45.370399
0.719  45.363171
0.718  45.342506
0.717  45.326891
0.716  45.318118
0.715  45.300751
0.714  45.296128
0.713  45.286834
0.712  45.262848
0.711  45.245249
0.710  45.242247
0.709  45.207418
0.708  45.201473
0.707  45.185980
0.706  45.179130
0.705  45.160925
0.704  45.151049
0.703  45.140648
0.702  45.142743
0.701  45.126574
0.700  45.115120
0.699  45.105410
0.698  45.093007
0.697  45.072632
0.696  45.067571
0.695  45.075740
0.694  45.071013
0.693  45.041897
0.692  45.032505
0.691  45.031101
0.690  45.029655
0.689  45.006564
0.688  44.990280
0.687  44.987719
0.686  44.987289
0.685  44.983386
0.684  44.957158
0.683  44.959796
0.682  44.948835
0.681  44.943804
0.680  44.941724
0.679  44.938154
0.678  44.920931
0.677  44.911560
0.676  44.910216
0.675  44.906524
0.674  44.898735
0.673  44.881532
0.672  44.882654
0.671  44.881027
0.670  44.870753
0.669  44.859347
0.668  44.847101
0.667  44.854062
0.666  44.857687
0.665  44.847648
0.664  44.850485
0.663  44.843158
0.662  44.827660
0.661  44.821842
0.660  44.819838
0.659  44.817223
0.658  44.813950
0.657  44.805283
0.656  44.798512
0.655  44.799390
0.654  44.782531
0.653  44.778584
0.652  44.779681
0.651  44.769972
0.650  44.762122
0.649  44.750212
0.648  44.750160
0.647  44.753765
0.646  44.751900
0.645  44.746212
0.644  44.734015
0.643  44.723423
0.642  44.718237
0.641  44.720044
0.640  44.713033
0.639  44.706124
0.638  44.703623
0.637  44.697970
0.636  44.687414
0.635  44.679750
0.634  44.674090
0.633  44.673755
0.632  44.674124
0.631  44.662351
0.630  44.654803
0.629  44.654572
0.628  44.655339
0.627  44.646862
0.626  44.633414
0.625  44.623025
0.624  44.606210
0.623  44.594635
0.622  44.600167
0.621  44.601937
0.620  44.588161
0.619  44.582420
0.618  44.578789
0.617  44.570684
0.616  44.571349
0.615  44.562123
0.614  44.549195
0.613  44.547639
0.612  44.538944
0.611  44.528109
0.610  44.520762
0.609  44.507487
0.608  44.493664
0.607  44.484912
0.606  44.471158
0.605  44.470470
0.604  44.461802
0.603  44.441905
0.602  44.428070
0.601  44.414383
0.600  44.404377
0.599  44.401117
0.598  44.395991
0.597  44.389934
0.596  44.389526
0.595  44.370518
0.594  44.350981
0.593  44.337442
0.592  44.318644
0.591  44.296440
0.590  44.276477
0.589  44.248458
0.588  44.233147
0.587  44.215567
0.586  44.188726
0.585  44.167285
0.584  44.143653
0.583  44.115655
0.582  44.088557
0.581  44.048899
0.580  44.020426
0.579  43.988416
0.578  43.954258
0.577  43.920877
0.576  43.885917
0.575  43.856440
0.574  43.817248
0.573  43.775424
0.572  43.744721
0.571  43.701362
0.570  43.665753
0.569  43.618785
0.568  43.577586
0.567  43.533944
0.566  43.487385
0.565  43.447524
0.564  43.399892
0.563  43.348345
0.562  43.291113
0.561  43.248242
0.560  43.195707
0.559  43.145931
0.558  43.090944
0.557  43.043728
0.556  42.983447
0.555  42.921818
0.554  42.871309
0.553  42.815681
0.552  42.757427
0.551  42.707595
0.550  42.633979
0.549  42.575359
0.548  42.520868
0.547  42.462264
0.546  42.396496
0.545  42.336346
0.544  42.282046
0.543  42.216337
0.542  42.156799
0.541  42.092208
0.540  42.037450
0.539  41.967801
0.538  41.902382
0.537  41.836740
0.536  41.773478
0.535  41.711563
0.534  41.647880
0.533  41.569859
0.532  41.503736
0.531  41.435394
0.530  41.356711
0.529  41.289464
0.528  41.231459
0.527  41.150929
0.526  41.089803
0.525  41.011645
0.524  40.943380
0.523  40.864656
0.522  40.794471
0.521  40.740291
0.520  40.649546
0.519  40.577666
0.518  40.499431
0.517  40.429588
0.516  40.343776
0.515  40.291488
0.514  40.203017
0.513  40.103607
0.512  40.044208
0.511  39.968167
0.510  39.885918
0.509  39.805541
0.508  39.729548
0.507  39.646533
0.506  39.559438
0.505  39.474957
0.504  39.390426
0.503  39.313423
0.502  39.226191
0.501  39.158237
0.500  39.067072
0.499  38.982221
0.498  38.892081
0.497  38.817346
0.496  38.733367
0.495  38.653251
0.494  38.558807
0.493  38.494005
0.492  38.404988
0.491  38.350087
0.490  38.252789
0.489  38.180900
0.488  38.108034
0.487  38.025322
0.486  37.947031
0.485  37.867067
0.484  37.800931
0.483  37.706502
0.482  37.632045
0.481  37.546114
0.480  37.468395
0.479  37.401191
0.478  37.327541
0.477  37.251482
0.476  37.171931
0.475  37.087922
0.474  37.028225
0.473  36.961553
0.472  36.880153
0.471  36.802109
0.470  36.727595
0.469  36.658540
0.468  36.585731
0.467  36.521271
0.466  36.448080
0.465  36.380006
0.464  36.302316
0.463  36.236409
0.462  36.167769
0.461  36.095289
0.460  36.057692
0.459  35.996836
0.458  35.915575
0.457  35.839206
0.456  35.761480
0.455  35.687670
0.454  35.614162
0.453  35.520499
0.452  35.448917
0.451  35.370037
0.450  35.286255
0.449  35.206596
0.448  35.110610
0.447  35.031689
0.446  34.930855
0.445  34.848978
0.444  34.745182
0.443  34.656127
0.442  34.558675
0.441  34.453289
0.440  34.351773
0.439  34.240980
0.438  34.150735
0.437  34.035270
0.436  33.926590
0.435  33.813218
0.434  33.724458
0.433  33.627716
0.432  33.501237
0.431  33.387058
0.430  33.274759
0.429  33.157709
0.428  33.035338
0.427  32.913079
0.426  32.806874
0.425  32.688739
0.424  32.572527
0.423  32.457686
0.422  32.338689
0.421  32.222681
0.420  32.110350
0.419  32.000439
0.418  31.891457
0.417  31.775646
0.416  31.666404
0.415  31.563403
0.414  31.453804
0.413  31.340411
0.412  31.224841
0.411  31.123116
0.410  31.022020
0.409  30.901476
0.408  30.796425
0.407  30.684355
0.406  30.576285
0.405  30.464234
0.404  30.350166
0.403  30.241950
0.402  30.124105
0.401  30.014055
0.400  29.905382
