Name: Red Slate
Type: Rock
Class: Metamorphic
Subclass:  Slate 
Particle Size: Solid surface
Sample No.: Ward91.txt
Owner: JPL
Wavelength range:  VNIR SWIR IR 
Origin: Ward's Collection of American Rocks.  Sample locality - Granville, Washington County, New York.  Collected by - JPL.
Collected by:  Ward's Natural Science
Description: A fine, red, fissile rock.  Geologic age - Cambrian





Measurement: Hemispherical reflectance
First Column: X
Second Column: Y
X Units: Wavelength (micrometers)
Y Units: Reflectance (percent)
First X Value: 2.500
Last X Value: 0.400
Number of X Values: 2101
Additional information: None

2.500  15.547163
2.499  15.400232
2.498  15.572274
2.497  15.766217
2.496  15.031769
2.495  15.688486
2.494  15.322292
2.493  15.508727
2.492  15.493649
2.491  15.632013
2.490  15.478072
2.489  15.594858
2.488  15.540326
2.487  15.643132
2.486  15.217864
2.485  15.651038
2.484  15.369513
2.483  15.636714
2.482  15.438247
2.481  15.513212
2.480  15.468043
2.479  15.562688
2.478  15.392885
2.477  15.456828
2.476  15.367599
2.475  15.669370
2.474  15.437062
2.473  15.582828
2.472  15.439696
2.471  15.550853
2.470  15.352907
2.469  15.508651
2.468  15.420579
2.467  15.463393
2.466  15.421048
2.465  15.578576
2.464  15.270495
2.463  15.625767
2.462  15.361139
2.461  15.565753
2.460  15.382530
2.459  15.689279
2.458  15.370344
2.457  15.492268
2.456  15.432937
2.455  15.461352
2.454  15.521060
2.453  15.469940
2.452  15.421198
2.451  15.466601
2.450  15.457540
2.449  15.505604
2.448  15.492466
2.447  15.571916
2.446  15.420146
2.445  15.579167
2.444  15.453113
2.443  15.635688
2.442  15.484910
2.441  15.487180
2.440  15.439378
2.439  15.554463
2.438  15.431436
2.437  15.569549
2.436  15.541275
2.435  15.684543
2.434  15.454986
2.433  15.601844
2.432  15.622198
2.431  15.678269
2.430  15.620003
2.429  15.578689
2.428  15.628439
2.427  15.726561
2.426  15.694583
2.425  15.806911
2.424  15.737056
2.423  15.743994
2.422  15.625301
2.421  15.695231
2.420  15.762785
2.419  15.785751
2.418  15.757915
2.417  15.805652
2.416  15.804780
2.415  15.866394
2.414  15.850055
2.413  15.862373
2.412  15.841245
2.411  15.881528
2.410  15.855012
2.409  15.894878
2.408  15.887318
2.407  16.054769
2.406  15.847538
2.405  15.888304
2.404  15.892076
2.403  15.957297
2.402  15.897665
2.401  15.932713
2.400  15.921973
2.399  15.919749
2.398  15.934281
2.397  16.007177
2.396  15.955120
2.395  15.935371
2.394  15.899476
2.393  15.979070
2.392  15.898618
2.391  15.888519
2.390  15.926643
2.389  15.971175
2.388  15.896093
2.387  15.911998
2.386  15.879250
2.385  15.876164
2.384  15.816060
2.383  15.836744
2.382  15.881997
2.381  15.901438
2.380  15.848138
2.379  15.876628
2.378  15.834159
2.377  15.825462
2.376  15.815799
2.375  15.834947
2.374  15.830940
2.373  15.784265
2.372  15.806144
2.371  15.789398
2.370  15.728331
2.369  15.743048
2.368  15.728638
2.367  15.735200
2.366  15.696633
2.365  15.699218
2.364  15.669336
2.363  15.674356
2.362  15.669144
2.361  15.612110
2.360  15.619049
2.359  15.674687
2.358  15.619999
2.357  15.563916
2.356  15.559703
2.355  15.522443
2.354  15.512620
2.353  15.554850
2.352  15.562516
2.351  15.503939
2.350  15.497619
2.349  15.522545
2.348  15.537804
2.347  15.537859
2.346  15.540363
2.345  15.531271
2.344  15.528494
2.343  15.538130
2.342  15.582243
2.341  15.609057
2.340  15.611017
2.339  15.622943
2.338  15.698811
2.337  15.692114
2.336  15.712843
2.335  15.703185
2.334  15.803852
2.333  15.797099
2.332  15.832442
2.331  15.830240
2.330  15.791581
2.329  15.840444
2.328  15.919402
2.327  15.906267
2.326  15.921870
2.325  15.923712
2.324  16.028471
2.323  16.038191
2.322  16.114547
2.321  16.149180
2.320  16.176579
2.319  16.179985
2.318  16.282294
2.317  16.235836
2.316  16.286772
2.315  16.262551
2.314  16.299617
2.313  16.319433
2.312  16.370889
2.311  16.324933
2.310  16.437949
2.309  16.507523
2.308  16.536900
2.307  16.487376
2.306  16.495254
2.305  16.471990
2.304  16.535429
2.303  16.541173
2.302  16.560064
2.301  16.472996
2.300  16.580702
2.299  16.611274
2.298  16.573114
2.297  16.538029
2.296  16.625222
2.295  16.630294
2.294  16.614640
2.293  16.585708
2.292  16.669295
2.291  16.598865
2.290  16.598233
2.289  16.591038
2.288  16.671995
2.287  16.643458
2.286  16.664522
2.285  16.606853
2.284  16.634855
2.283  16.676959
2.282  16.656303
2.281  16.613395
2.280  16.607684
2.279  16.642270
2.278  16.637159
2.277  16.550438
2.276  16.584097
2.275  16.605559
2.274  16.610969
2.273  16.517607
2.272  16.547697
2.271  16.432223
2.270  16.562193
2.269  16.462810
2.268  16.440510
2.267  16.433722
2.266  16.388826
2.265  16.301271
2.264  16.397939
2.263  16.247346
2.262  16.304016
2.261  16.212971
2.260  16.229853
2.259  16.074278
2.258  16.097215
2.257  15.981383
2.256  16.049397
2.255  15.932779
2.254  16.042765
2.253  15.940499
2.252  15.982408
2.251  15.872677
2.250  16.027557
2.249  15.899614
2.248  15.983966
2.247  15.847483
2.246  15.857476
2.245  15.886695
2.244  15.925979
2.243  15.854965
2.242  15.888345
2.241  15.768459
2.240  15.869809
2.239  15.785209
2.238  15.880856
2.237  15.786268
2.236  15.779236
2.235  15.676931
2.234  15.785264
2.233  15.664730
2.232  15.674156
2.231  15.596689
2.230  15.607988
2.229  15.517745
2.228  15.620197
2.227  15.508864
2.226  15.606199
2.225  15.498853
2.224  15.616664
2.223  15.578931
2.222  15.648760
2.221  15.595034
2.220  15.691132
2.219  15.718509
2.218  15.851292
2.217  15.806356
2.216  15.930689
2.215  15.885747
2.214  16.000345
2.213  16.079984
2.212  16.253162
2.211  16.042966
2.210  16.412684
2.209  16.306720
2.208  16.429674
2.207  16.446358
2.206  16.603469
2.205  16.559020
2.204  16.697587
2.203  16.541555
2.202  16.795759
2.201  16.747757
2.200  16.829885
2.199  16.839221
2.198  16.944140
2.197  16.959892
2.196  16.971590
2.195  16.922804
2.194  17.023137
2.193  17.024715
2.192  17.061927
2.191  17.019344
2.190  17.124558
2.189  17.069941
2.188  17.174303
2.187  17.153773
2.186  17.237428
2.185  17.208821
2.184  17.233002
2.183  17.192405
2.182  17.339187
2.181  17.188793
2.180  17.290577
2.179  17.256112
2.178  17.310755
2.177  17.253181
2.176  17.364179
2.175  17.296641
2.174  17.320279
2.173  17.302704
2.172  17.385635
2.171  17.357359
2.170  17.423464
2.169  17.355754
2.168  17.428741
2.167  17.341932
2.166  17.456813
2.165  17.368466
2.164  17.462512
2.163  17.396607
2.162  17.467012
2.161  17.417572
2.160  17.494693
2.159  17.432459
2.158  17.547402
2.157  17.394653
2.156  17.510245
2.155  17.543555
2.154  17.504704
2.153  17.406992
2.152  17.502483
2.151  17.525753
2.150  17.487852
2.149  17.420393
2.148  17.550425
2.147  17.486981
2.146  17.506473
2.145  17.404331
2.144  17.521806
2.143  17.473614
2.142  17.460237
2.141  17.421998
2.140  17.473898
2.139  17.422531
2.138  17.436570
2.137  17.381947
2.136  17.475705
2.135  17.403742
2.134  17.399250
2.133  17.416353
2.132  17.481569
2.131  17.378494
2.130  17.386707
2.129  17.393496
2.128  17.317327
2.127  17.326514
2.126  17.403005
2.125  17.356858
2.124  17.331074
2.123  17.346106
2.122  17.402458
2.121  17.251987
2.120  17.311322
2.119  17.198366
2.118  17.288820
2.117  17.245243
2.116  17.263895
2.115  17.218865
2.114  17.309900
2.113  17.222709
2.112  17.268088
2.111  17.229719
2.110  17.241191
2.109  17.250931
2.108  17.267536
2.107  17.235261
2.106  17.244847
2.105  17.207231
2.104  17.233481
2.103  17.249419
2.102  17.313550
2.101  17.260011
2.100  17.251851
2.099  17.220151
2.098  17.201417
2.097  17.223908
2.096  17.276307
2.095  17.272421
2.094  17.276597
2.093  17.223366
2.092  17.284668
2.091  17.262638
2.090  17.315691
2.089  17.318706
2.088  17.339067
2.087  17.325035
2.086  17.361505
2.085  17.382693
2.084  17.415521
2.083  17.340806
2.082  17.298142
2.081  17.379339
2.080  17.398736
2.079  17.329429
2.078  17.358898
2.077  17.400639
2.076  17.405028
2.075  17.413308
2.074  17.415716
2.073  17.419043
2.072  17.454215
2.071  17.479432
2.070  17.455215
2.069  17.470798
2.068  17.461511
2.067  17.423550
2.066  17.465572
2.065  17.491861
2.064  17.455412
2.063  17.463343
2.062  17.470538
2.061  17.463364
2.060  17.472903
2.059  17.529114
2.058  17.544607
2.057  17.517338
2.056  17.459381
2.055  17.454617
2.054  17.483343
2.053  17.477397
2.052  17.463565
2.051  17.509578
2.050  17.515825
2.049  17.555906
2.048  17.535900
2.047  17.539447
2.046  17.558585
2.045  17.606037
2.044  17.573178
2.043  17.553728
2.042  17.536313
2.041  17.571130
2.040  17.558634
2.039  17.579595
2.038  17.556521
2.037  17.563058
2.036  17.586984
2.035  17.579891
2.034  17.611537
2.033  17.644466
2.032  17.649801
2.031  17.583496
2.030  17.554235
2.029  17.617848
2.028  17.600516
2.027  17.613225
2.026  17.583854
2.025  17.616566
2.024  17.546465
2.023  17.584087
2.022  17.616078
2.021  17.633597
2.020  17.549280
2.019  17.611187
2.018  17.596555
2.017  17.632012
2.016  17.578151
2.015  17.590319
2.014  17.577414
2.013  17.591074
2.012  17.567147
2.011  17.580880
2.010  17.554843
2.009  17.657080
2.008  17.615694
2.007  17.661092
2.006  17.581003
2.005  17.648743
2.004  17.594743
2.003  17.623296
2.002  17.604114
2.001  17.628383
2.000  17.637472
1.999  17.686434
1.998  17.614008
1.997  17.668133
1.996  17.602767
1.995  17.740289
1.994  17.687144
1.993  17.664129
1.992  17.559857
1.991  17.717255
1.990  17.597410
1.989  17.694326
1.988  17.647749
1.987  17.727090
1.986  17.634604
1.985  17.728028
1.984  17.646481
1.983  17.732081
1.982  17.634035
1.981  17.791330
1.980  17.673245
1.979  17.738017
1.978  17.701726
1.977  17.785333
1.976  17.684008
1.975  17.775892
1.974  17.698363
1.973  17.811734
1.972  17.785567
1.971  17.795048
1.970  17.733311
1.969  17.788092
1.968  17.730631
1.967  17.884857
1.966  17.758241
1.965  17.779414
1.964  17.701505
1.963  17.860785
1.962  17.768774
1.961  17.893069
1.960  17.706741
1.959  17.875169
1.958  17.786791
1.957  17.889390
1.956  17.757506
1.955  17.878235
1.954  17.805471
1.953  17.851135
1.952  17.799808
1.951  17.879207
1.950  17.814220
1.949  17.935852
1.948  17.838456
1.947  17.907280
1.946  17.898509
1.945  18.012531
1.944  17.789225
1.943  17.921273
1.942  17.855712
1.941  17.883637
1.940  17.866145
1.939  17.951954
1.938  17.907521
1.937  18.073369
1.936  17.847163
1.935  17.961419
1.934  17.978886
1.933  17.983713
1.932  18.037428
1.931  17.984159
1.930  17.906047
1.929  18.059301
1.928  17.893863
1.927  18.027236
1.926  17.721656
1.925  18.097276
1.924  17.916499
1.923  18.024065
1.922  17.881208
1.921  17.964525
1.920  17.875202
1.919  17.979540
1.918  17.861173
1.917  18.025243
1.916  17.905003
1.915  17.981403
1.914  17.949297
1.913  17.971457
1.912  17.922870
1.911  17.999265
1.910  17.890989
1.909  17.971394
1.908  17.949275
1.907  17.986895
1.906  17.936900
1.905  18.000535
1.904  17.963975
1.903  18.038408
1.902  17.958031
1.901  18.079813
1.900  17.905140
1.899  18.042128
1.898  17.977015
1.897  18.076269
1.896  18.013928
1.895  18.171692
1.894  18.008011
1.893  18.150035
1.892  18.100336
1.891  18.148080
1.890  18.082880
1.889  18.169269
1.888  18.112691
1.887  18.108608
1.886  18.074831
1.885  18.182397
1.884  18.070852
1.883  18.143947
1.882  18.103870
1.881  18.195736
1.880  18.100699
1.879  18.273175
1.878  18.150074
1.877  18.274557
1.876  18.180412
1.875  18.345202
1.874  18.152178
1.873  18.258068
1.872  18.190667
1.871  18.270650
1.870  18.123190
1.869  18.180352
1.868  18.165475
1.867  18.198016
1.866  18.199796
1.865  18.221015
1.864  18.188202
1.863  18.271860
1.862  18.241066
1.861  18.274072
1.860  18.239977
1.859  18.293322
1.858  18.249866
1.857  18.271528
1.856  18.212585
1.855  18.255997
1.854  18.264331
1.853  18.384452
1.852  18.275242
1.851  18.284667
1.850  18.276264
1.849  18.347656
1.848  18.288630
1.847  18.334465
1.846  18.293577
1.845  18.397106
1.844  18.324615
1.843  18.315416
1.842  18.297193
1.841  18.333262
1.840  18.308316
1.839  18.350722
1.838  18.269894
1.837  18.323973
1.836  18.319175
1.835  18.379402
1.834  18.320760
1.833  18.351748
1.832  18.346887
1.831  18.349563
1.830  18.392907
1.829  18.404604
1.828  18.332723
1.827  18.343681
1.826  18.380328
1.825  18.399573
1.824  18.380915
1.823  18.374539
1.822  18.343721
1.821  18.420737
1.820  18.386521
1.819  18.416447
1.818  18.368673
1.817  18.357264
1.816  18.365049
1.815  18.454213
1.814  18.497088
1.813  18.471267
1.812  18.409786
1.811  18.429486
1.810  18.403869
1.809  18.447318
1.808  18.477853
1.807  18.470136
1.806  18.467334
1.805  18.483023
1.804  18.445087
1.803  18.431333
1.802  18.419177
1.801  18.445263
1.800  18.437019
1.799  18.463589
1.798  18.524790
1.797  18.538987
1.796  18.488908
1.795  18.480760
1.794  18.516585
1.793  18.540711
1.792  18.513664
1.791  18.497514
1.790  18.524430
1.789  18.544337
1.788  18.487253
1.787  18.504469
1.786  18.535218
1.785  18.524323
1.784  18.535932
1.783  18.541168
1.782  18.549902
1.781  18.568005
1.780  18.565942
1.779  18.583045
1.778  18.562480
1.777  18.518527
1.776  18.527175
1.775  18.539262
1.774  18.591366
1.773  18.547713
1.772  18.542441
1.771  18.538866
1.770  18.570451
1.769  18.577289
1.768  18.593947
1.767  18.632505
1.766  18.643950
1.765  18.592050
1.764  18.624440
1.763  18.608685
1.762  18.633627
1.761  18.587126
1.760  18.643847
1.759  18.647031
1.758  18.691590
1.757  18.642957
1.756  18.597777
1.755  18.622753
1.754  18.727552
1.753  18.705780
1.752  18.703286
1.751  18.668682
1.750  18.699397
1.749  18.687255
1.748  18.696760
1.747  18.701211
1.746  18.729167
1.745  18.694128
1.744  18.718865
1.743  18.738916
1.742  18.785263
1.741  18.741862
1.740  18.790202
1.739  18.769944
1.738  18.788007
1.737  18.746996
1.736  18.825631
1.735  18.758188
1.734  18.825558
1.733  18.785254
1.732  18.795016
1.731  18.807348
1.730  18.842056
1.729  18.797851
1.728  18.834072
1.727  18.724207
1.726  18.787079
1.725  18.800778
1.724  18.819216
1.723  18.738253
1.722  18.868663
1.721  18.840185
1.720  18.857275
1.719  18.845596
1.718  18.886184
1.717  18.866273
1.716  18.841391
1.715  18.830793
1.714  18.883094
1.713  18.847833
1.712  18.889546
1.711  18.835786
1.710  18.897803
1.709  18.885037
1.708  19.009083
1.707  18.854395
1.706  18.943210
1.705  18.889777
1.704  18.902361
1.703  18.871246
1.702  18.883052
1.701  18.914446
1.700  18.969598
1.699  18.870910
1.698  18.967942
1.697  18.872930
1.696  18.951220
1.695  18.881605
1.694  18.975638
1.693  18.976542
1.692  18.932033
1.691  18.891810
1.690  19.026938
1.689  18.919518
1.688  19.001034
1.687  18.975758
1.686  18.967495
1.685  18.980185
1.684  19.081549
1.683  18.891075
1.682  19.066096
1.681  19.014262
1.680  19.028083
1.679  18.941506
1.678  19.010505
1.677  19.019738
1.676  19.083651
1.675  19.016702
1.674  19.143695
1.673  19.064200
1.672  19.110055
1.671  19.021541
1.670  19.117760
1.669  19.190937
1.668  18.950155
1.667  19.045447
1.666  19.182647
1.665  19.067101
1.664  19.074541
1.663  19.055720
1.662  19.137701
1.661  19.126765
1.660  19.187782
1.659  19.042825
1.658  19.154246
1.657  19.062988
1.656  19.286451
1.655  19.093691
1.654  19.291377
1.653  19.094189
1.652  19.247910
1.651  19.145138
1.650  19.239124
1.649  19.095710
1.648  19.292551
1.647  19.145185
1.646  19.217844
1.645  19.168338
1.644  19.294537
1.643  19.153803
1.642  19.376395
1.641  19.095604
1.640  19.345235
1.639  19.223707
1.638  19.288032
1.637  19.234855
1.636  19.297586
1.635  19.174885
1.634  19.339701
1.633  19.247243
1.632  19.325263
1.631  19.287734
1.630  19.238656
1.629  19.274877
1.628  19.382412
1.627  19.305987
1.626  19.258989
1.625  19.337934
1.624  19.354671
1.623  19.318594
1.622  19.436605
1.621  19.414824
1.620  19.437222
1.619  19.375813
1.618  19.438707
1.617  19.340815
1.616  19.413704
1.615  19.359380
1.614  19.471265
1.613  19.378882
1.612  19.451108
1.611  19.433376
1.610  19.472238
1.609  19.420107
1.608  19.506902
1.607  19.376418
1.606  19.496838
1.605  19.448138
1.604  19.467220
1.603  19.443668
1.602  19.521096
1.601  19.479652
1.600  19.594613
1.599  19.490582
1.598  19.490283
1.597  19.454013
1.596  19.582995
1.595  19.484286
1.594  19.563234
1.593  19.454520
1.592  19.576071
1.591  19.523012
1.590  19.560206
1.589  19.523509
1.588  19.640526
1.587  19.525259
1.586  19.611902
1.585  19.561154
1.584  19.634075
1.583  19.595713
1.582  19.578782
1.581  19.580825
1.580  19.662895
1.579  19.592286
1.578  19.677956
1.577  19.635455
1.576  19.687240
1.575  19.690005
1.574  19.688322
1.573  19.675170
1.572  19.754858
1.571  19.691958
1.570  19.688291
1.569  19.726711
1.568  19.759696
1.567  19.676077
1.566  19.752799
1.565  19.699133
1.564  19.711053
1.563  19.704800
1.562  19.775807
1.561  19.746121
1.560  19.812124
1.559  19.742943
1.558  19.793697
1.557  19.815584
1.556  19.818476
1.555  19.749653
1.554  19.772116
1.553  19.808328
1.552  19.854210
1.551  19.783833
1.550  19.873969
1.549  19.792290
1.548  19.868437
1.547  19.866986
1.546  19.901232
1.545  19.883461
1.544  19.901731
1.543  19.862957
1.542  19.914469
1.541  19.952151
1.540  19.931619
1.539  19.895383
1.538  19.959296
1.537  19.943855
1.536  19.953819
1.535  19.916413
1.534  19.981729
1.533  19.965232
1.532  19.999905
1.531  20.022684
1.530  20.029904
1.529  20.005912
1.528  20.072943
1.527  20.061694
1.526  20.034386
1.525  20.033846
1.524  20.051590
1.523  20.052518
1.522  20.049129
1.521  20.081903
1.520  20.114941
1.519  20.114999
1.518  20.134012
1.517  20.086305
1.516  20.135888
1.515  20.134828
1.514  20.153393
1.513  20.209423
1.512  20.236910
1.511  20.194250
1.510  20.182293
1.509  20.157036
1.508  20.191224
1.507  20.210907
1.506  20.215725
1.505  20.183148
1.504  20.177711
1.503  20.222552
1.502  20.278262
1.501  20.300713
1.500  20.253384
1.499  20.264448
1.498  20.280867
1.497  20.262573
1.496  20.293738
1.495  20.334611
1.494  20.359206
1.493  20.371814
1.492  20.384564
1.491  20.364121
1.490  20.334233
1.489  20.363440
1.488  20.369710
1.487  20.401374
1.486  20.386213
1.485  20.420208
1.484  20.446015
1.483  20.453567
1.482  20.394422
1.481  20.411271
1.480  20.432010
1.479  20.409179
1.478  20.412005
1.477  20.483857
1.476  20.503416
1.475  20.481806
1.474  20.500865
1.473  20.547140
1.472  20.544247
1.471  20.569049
1.470  20.544325
1.469  20.546121
1.468  20.578857
1.467  20.574212
1.466  20.567368
1.465  20.610992
1.464  20.562694
1.463  20.578519
1.462  20.588188
1.461  20.625987
1.460  20.587168
1.459  20.652242
1.458  20.655929
1.457  20.688283
1.456  20.649067
1.455  20.690819
1.454  20.709505
1.453  20.700419
1.452  20.692282
1.451  20.732961
1.450  20.704494
1.449  20.769495
1.448  20.741236
1.447  20.763090
1.446  20.708912
1.445  20.780936
1.444  20.730685
1.443  20.709127
1.442  20.775666
1.441  20.774136
1.440  20.692476
1.439  20.777788
1.438  20.705079
1.437  20.744710
1.436  20.707345
1.435  20.774336
1.434  20.668730
1.433  20.727223
1.432  20.681935
1.431  20.691814
1.430  20.688509
1.429  20.677381
1.428  20.651725
1.427  20.697739
1.426  20.597844
1.425  20.607084
1.424  20.576960
1.423  20.579985
1.422  20.545459
1.421  20.611836
1.420  20.596371
1.419  20.575374
1.418  20.556392
1.417  20.558190
1.416  20.559670
1.415  20.662817
1.414  20.595936
1.413  20.668811
1.412  20.621437
1.411  20.817543
1.410  20.781701
1.409  20.868228
1.408  20.827984
1.407  20.888369
1.406  20.866024
1.405  20.990474
1.404  20.978044
1.403  21.142539
1.402  21.071859
1.401  21.102747
1.400  21.117704
1.399  21.201157
1.398  21.199387
1.397  21.340402
1.396  21.216547
1.395  21.290848
1.394  21.194307
1.393  21.352347
1.392  21.311402
1.391  21.511219
1.390  21.363029
1.389  21.469695
1.388  21.433216
1.387  21.477943
1.386  21.466923
1.385  21.557337
1.384  21.608127
1.383  21.562170
1.382  21.467693
1.381  21.583436
1.380  21.560312
1.379  21.601302
1.378  21.600313
1.377  21.738213
1.376  21.581250
1.375  21.677567
1.374  21.661925
1.373  21.739944
1.372  21.649848
1.371  21.783817
1.370  21.679359
1.369  21.761309
1.368  21.725291
1.367  21.860764
1.366  21.781364
1.365  21.893687
1.364  21.791483
1.363  21.827252
1.362  21.786005
1.361  21.864247
1.360  21.793812
1.359  21.930824
1.358  21.870958
1.357  21.988155
1.356  21.979269
1.355  21.814565
1.354  21.957546
1.353  21.957979
1.352  21.987191
1.351  22.085205
1.350  21.980865
1.349  22.130341
1.348  21.960017
1.347  22.043463
1.346  22.092378
1.345  22.073806
1.344  22.023854
1.343  22.189277
1.342  22.035132
1.341  22.174752
1.340  22.115846
1.339  22.163304
1.338  22.150505
1.337  22.136806
1.336  22.157798
1.335  22.231577
1.334  22.127008
1.333  22.235075
1.332  22.230198
1.331  22.256134
1.330  22.285918
1.329  22.313527
1.328  22.231169
1.327  22.409335
1.326  22.339513
1.325  22.367100
1.324  22.350518
1.323  22.381183
1.322  22.344086
1.321  22.443007
1.320  22.398616
1.319  22.498088
1.318  22.405925
1.317  22.535376
1.316  22.469304
1.315  22.547022
1.314  22.475495
1.313  22.565905
1.312  22.531859
1.311  22.561786
1.310  22.506595
1.309  22.508103
1.308  22.540190
1.307  22.612764
1.306  22.582658
1.305  22.661792
1.304  22.669451
1.303  22.688086
1.302  22.638411
1.301  22.690312
1.300  22.659422
1.299  22.775309
1.298  22.708188
1.297  22.796158
1.296  22.741698
1.295  22.797662
1.294  22.800863
1.293  22.803640
1.292  22.737425
1.291  22.806531
1.290  22.867080
1.289  22.915980
1.288  22.907400
1.287  22.935810
1.286  22.959190
1.285  22.975280
1.284  22.891917
1.283  22.964522
1.282  22.982494
1.281  23.026805
1.280  23.053366
1.279  23.066099
1.278  23.023333
1.277  23.060605
1.276  23.045665
1.275  23.074911
1.274  23.091299
1.273  23.203624
1.272  23.103502
1.271  23.179815
1.270  23.158858
1.269  23.248535
1.268  23.239065
1.267  23.197355
1.266  23.181667
1.265  23.290782
1.264  23.295378
1.263  23.326069
1.262  23.277489
1.261  23.309425
1.260  23.297156
1.259  23.348473
1.258  23.287681
1.257  23.353096
1.256  23.382615
1.255  23.456237
1.254  23.394594
1.253  23.408175
1.252  23.390698
1.251  23.455219
1.250  23.463324
1.249  23.469596
1.248  23.494669
1.247  23.516227
1.246  23.519514
1.245  23.593738
1.244  23.560558
1.243  23.630741
1.242  23.589985
1.241  23.662827
1.240  23.671145
1.239  23.635976
1.238  23.631124
1.237  23.698361
1.236  23.773070
1.235  23.764475
1.234  23.738778
1.233  23.779421
1.232  23.806508
1.231  23.783962
1.230  23.786832
1.229  23.900602
1.228  23.881597
1.227  23.870267
1.226  23.859588
1.225  23.873120
1.224  23.912601
1.223  23.925952
1.222  23.960111
1.221  23.981360
1.220  24.007201
1.219  24.034291
1.218  24.023984
1.217  24.045626
1.216  24.060747
1.215  24.067049
1.214  24.065610
1.213  24.117169
1.212  24.165906
1.211  24.149586
1.210  24.182387
1.209  24.195209
1.208  24.200993
1.207  24.215428
1.206  24.225732
1.205  24.246606
1.204  24.290471
1.203  24.283527
1.202  24.297233
1.201  24.307848
1.200  24.344776
1.199  24.408510
1.198  24.420217
1.197  24.407716
1.196  24.443401
1.195  24.470031
1.194  24.488818
1.193  24.447605
1.192  24.497352
1.191  24.476630
1.190  24.546359
1.189  24.679409
1.188  24.517057
1.187  24.531373
1.186  24.630467
1.185  24.647902
1.184  24.662611
1.183  24.682242
1.182  24.740266
1.181  24.680776
1.180  24.742735
1.179  24.726229
1.178  24.762047
1.177  24.727166
1.176  24.794504
1.175  24.864081
1.174  24.844276
1.173  24.846544
1.172  24.911134
1.171  24.859800
1.170  24.937517
1.169  24.931837
1.168  25.006676
1.167  24.977928
1.166  25.073197
1.165  25.057409
1.164  25.043992
1.163  25.072007
1.162  25.151258
1.161  25.063130
1.160  25.155129
1.159  25.167734
1.158  25.229798
1.157  25.200963
1.156  25.272287
1.155  25.248099
1.154  25.278762
1.153  25.262276
1.152  25.330499
1.151  25.336166
1.150  25.376373
1.149  25.407716
1.148  25.425801
1.147  25.407911
1.146  25.494140
1.145  25.458807
1.144  25.571557
1.143  25.519415
1.142  25.560148
1.141  25.531399
1.140  25.603752
1.139  25.682926
1.138  25.687964
1.137  25.701866
1.136  25.678663
1.135  25.606008
1.134  25.743597
1.133  25.722257
1.132  25.786817
1.131  25.744980
1.130  25.850343
1.129  25.821419
1.128  25.867629
1.127  25.874215
1.126  25.898712
1.125  25.955956
1.124  26.030259
1.123  25.920145
1.122  26.063193
1.121  25.988550
1.120  26.087754
1.119  25.995077
1.118  26.094064
1.117  26.118036
1.116  26.157366
1.115  26.142859
1.114  26.240023
1.113  26.204639
1.112  26.223570
1.111  26.209790
1.110  26.310623
1.109  26.316874
1.108  26.439150
1.107  26.381304
1.106  26.389883
1.105  26.368616
1.104  26.465745
1.103  26.439328
1.102  26.537864
1.101  26.440152
1.100  26.620028
1.099  26.529739
1.098  26.677230
1.097  26.616945
1.096  26.748931
1.095  26.623816
1.094  26.735529
1.093  26.674037
1.092  26.599868
1.091  26.766206
1.090  26.834474
1.089  26.832682
1.088  26.929777
1.087  26.944657
1.086  26.893186
1.085  26.888140
1.084  27.006813
1.083  26.999678
1.082  27.082189
1.081  27.003840
1.080  27.138034
1.079  27.028868
1.078  27.116397
1.077  27.099381
1.076  27.226567
1.075  27.165365
1.074  27.191964
1.073  27.205032
1.072  27.381624
1.071  27.317741
1.070  27.187923
1.069  27.366826
1.068  27.459039
1.067  27.388127
1.066  27.518137
1.065  27.423763
1.064  27.559444
1.063  27.433627
1.062  27.519665
1.061  27.562859
1.060  27.594065
1.059  27.509448
1.058  27.668320
1.057  27.624643
1.056  27.705723
1.055  27.594006
1.054  27.740151
1.053  27.754310
1.052  27.899374
1.051  27.738569
1.050  27.827832
1.049  27.799170
1.048  27.901711
1.047  27.835119
1.046  27.951623
1.045  27.860720
1.044  27.978524
1.043  28.005959
1.042  28.097531
1.041  28.023142
1.040  28.111001
1.039  28.023512
1.038  28.150642
1.037  28.110977
1.036  28.203895
1.035  28.138647
1.034  28.217536
1.033  28.249086
1.032  28.341501
1.031  28.286632
1.030  28.373118
1.029  28.294849
1.028  28.399469
1.027  28.337938
1.026  28.424989
1.025  28.353459
1.024  28.374882
1.023  28.405774
1.022  28.438353
1.021  28.404037
1.020  28.456804
1.019  28.473027
1.018  28.602110
1.017  28.498377
1.016  28.598949
1.015  28.527698
1.014  28.629387
1.013  28.587925
1.012  28.574592
1.011  28.592191
1.010  28.657202
1.009  28.567756
1.008  28.617549
1.007  28.585227
1.006  28.699069
1.005  28.700821
1.004  28.655404
1.003  28.705520
1.002  28.736174
1.001  28.651709
1.000  28.692204
0.999  28.691091
0.998  28.697421
0.997  28.662968
0.996  28.773633
0.995  28.678887
0.994  28.692538
0.993  28.681457
0.992  28.698515
0.991  28.680047
0.990  28.711071
0.989  28.725589
0.988  28.768376
0.987  28.694843
0.986  28.704032
0.985  28.715335
0.984  28.710739
0.983  28.654241
0.982  28.684849
0.981  28.625671
0.980  28.693340
0.979  28.668731
0.978  28.643084
0.977  28.597097
0.976  28.661075
0.975  28.593947
0.974  28.581913
0.973  28.587567
0.972  28.604844
0.971  28.571581
0.970  28.502335
0.969  28.448799
0.968  28.518663
0.967  28.490207
0.966  28.508746
0.965  28.448155
0.964  28.412801
0.963  28.378162
0.962  28.384439
0.961  28.369142
0.960  28.355636
0.959  28.331901
0.958  28.322194
0.957  28.328562
0.956  28.300535
0.955  28.302946
0.954  28.308223
0.953  28.217516
0.952  28.203120
0.951  28.209374
0.950  28.161738
0.949  28.125136
0.948  28.126685
0.947  28.047931
0.946  28.049699
0.945  28.037193
0.944  28.033832
0.943  27.985123
0.942  27.951291
0.941  27.947893
0.940  27.945567
0.939  27.949816
0.938  27.917518
0.937  27.871139
0.936  27.911303
0.935  27.859522
0.934  27.768566
0.933  27.741633
0.932  27.745489
0.931  27.725687
0.930  27.739640
0.929  27.716788
0.928  27.670090
0.927  27.627533
0.926  27.624864
0.925  27.604205
0.924  27.607915
0.923  27.632965
0.922  27.574660
0.921  27.546297
0.920  27.527490
0.919  27.535047
0.918  27.492101
0.917  27.473215
0.916  27.412873
0.915  27.433031
0.914  27.456922
0.913  27.432366
0.912  27.366281
0.911  27.376515
0.910  27.384750
0.909  27.347943
0.908  27.287804
0.907  27.311151
0.906  27.309007
0.905  27.311859
0.904  27.282981
0.903  27.278146
0.902  27.320491
0.901  27.340891
0.900  27.294095
0.899  27.219373
0.898  27.206083
0.897  27.257340
0.896  27.248787
0.895  27.287644
0.894  27.245848
0.893  27.251842
0.892  27.289613
0.891  27.263872
0.890  27.162157
0.889  27.243828
0.888  27.186604
0.887  27.196584
0.886  27.178177
0.885  27.249145
0.884  27.216133
0.883  27.196723
0.882  27.173806
0.881  27.227568
0.880  27.200783
0.879  27.261398
0.878  27.205625
0.877  27.232291
0.876  27.141499
0.875  27.246499
0.874  27.216003
0.873  27.243612
0.872  27.197863
0.871  27.300545
0.870  27.283698
0.869  27.294870
0.868  27.268233
0.867  27.316324
0.866  27.272074
0.865  27.366768
0.864  27.298401
0.863  27.316038
0.862  27.264363
0.861  27.383103
0.860  27.414256
0.859  27.453918
0.858  27.474740
0.857  27.479459
0.856  27.517341
0.855  27.501787
0.854  27.543534
0.853  27.545944
0.852  27.538605
0.851  27.571090
0.850  27.601135
0.849  27.588908
0.848  27.586392
0.847  27.587284
0.846  27.637863
0.845  27.647309
0.844  27.670040
0.843  27.702592
0.842  27.722827
0.841  27.729467
0.840  27.752410
0.839  27.786516
0.838  27.781396
0.837  27.801246
0.836  27.814333
0.835  27.853680
0.834  27.863052
0.833  27.893308
0.832  27.902226
0.831  27.941820
0.830  27.948167
0.829  27.975017
0.828  28.007290
0.827  28.039174
0.826  28.031418
0.825  28.074489
0.824  28.079842
0.823  28.110107
0.822  28.123293
0.821  28.149982
0.820  28.181015
0.819  28.186381
0.818  28.194305
0.817  28.197830
0.816  28.244932
0.815  28.266138
0.814  28.289150
0.813  28.334143
0.812  28.343519
0.811  28.336360
0.810  28.363502
0.809  28.388633
0.808  28.413738
0.807  28.415267
0.806  28.432542
0.805  28.441786
0.804  28.476134
0.803  28.494520
0.802  28.484512
0.801  28.512040
0.800  28.553212
0.799  28.543750
0.798  28.559904
0.797  28.567190
0.796  28.580902
0.795  28.594274
0.794  28.618800
0.793  28.621771
0.792  28.607268
0.791  28.615842
0.790  28.634444
0.789  28.621745
0.788  28.671248
0.787  28.694361
0.786  28.670589
0.785  28.676113
0.784  28.689123
0.783  28.690900
0.782  28.699450
0.781  28.702608
0.780  28.701289
0.779  28.721233
0.778  28.710706
0.777  28.718136
0.776  28.724617
0.775  28.707620
0.774  28.690912
0.773  28.713453
0.772  28.694828
0.771  28.700438
0.770  28.683400
0.769  28.687664
0.768  28.660907
0.767  28.660347
0.766  28.661475
0.765  28.656408
0.764  28.647614
0.763  28.633646
0.762  28.635735
0.761  28.629502
0.760  28.613886
0.759  28.574253
0.758  28.562822
0.757  28.571501
0.756  28.547650
0.755  28.528959
0.754  28.505553
0.753  28.490377
0.752  28.482015
0.751  28.464933
0.750  28.425156
0.749  28.404612
0.748  28.392564
0.747  28.361255
0.746  28.327642
0.745  28.319081
0.744  28.275033
0.743  28.259251
0.742  28.223000
0.741  28.196420
0.740  28.170357
0.739  28.137557
0.738  28.093053
0.737  28.059527
0.736  28.031580
0.735  28.003999
0.734  27.979638
0.733  27.927385
0.732  27.885725
0.731  27.851957
0.730  27.817101
0.729  27.783905
0.728  27.738035
0.727  27.708825
0.726  27.667418
0.725  27.615662
0.724  27.580514
0.723  27.539303
0.722  27.488388
0.721  27.454537
0.720  27.398977
0.719  27.353263
0.718  27.308205
0.717  27.258562
0.716  27.224341
0.715  27.184893
0.714  27.128793
0.713  27.072977
0.712  27.032128
0.711  26.993897
0.710  26.948331
0.709  26.900329
0.708  26.850277
0.707  26.811079
0.706  26.762807
0.705  26.714258
0.704  26.668884
0.703  26.618996
0.702  26.572690
0.701  26.530760
0.700  26.480474
0.699  26.432982
0.698  26.394310
0.697  26.353254
0.696  26.304298
0.695  26.265498
0.694  26.216160
0.693  26.166378
0.692  26.117587
0.691  26.074715
0.690  26.029920
0.689  25.980400
0.688  25.934205
0.687  25.895771
0.686  25.854168
0.685  25.813197
0.684  25.768926
0.683  25.724952
0.682  25.686208
0.681  25.650207
0.680  25.605546
0.679  25.567266
0.678  25.526607
0.677  25.480525
0.676  25.441235
0.675  25.406088
0.674  25.372066
0.673  25.330612
0.672  25.294970
0.671  25.265257
0.670  25.219097
0.669  25.183803
0.668  25.152769
0.667  25.119907
0.666  25.085902
0.665  25.048718
0.664  25.012069
0.663  24.980918
0.662  24.944022
0.661  24.910168
0.660  24.875623
0.659  24.845012
0.658  24.813274
0.657  24.775874
0.656  24.750243
0.655  24.720266
0.654  24.688904
0.653  24.662773
0.652  24.633285
0.651  24.603415
0.650  24.578354
0.649  24.546960
0.648  24.517757
0.647  24.485211
0.646  24.451451
0.645  24.429057
0.644  24.406982
0.643  24.376275
0.642  24.348314
0.641  24.322868
0.640  24.293027
0.639  24.262850
0.638  24.242519
0.637  24.219555
0.636  24.190902
0.635  24.156991
0.634  24.130330
0.633  24.108585
0.632  24.081843
0.631  24.051890
0.630  24.016540
0.629  23.993323
0.628  23.968884
0.627  23.939723
0.626  23.906779
0.625  23.874661
0.624  23.849872
0.623  23.817002
0.622  23.786912
0.621  23.758337
0.620  23.718231
0.619  23.679593
0.618  23.646789
0.617  23.608757
0.616  23.563769
0.615  23.523454
0.614  23.481405
0.613  23.436542
0.612  23.388772
0.611  23.347252
0.610  23.298815
0.609  23.242505
0.608  23.192713
0.607  23.131013
0.606  23.068727
0.605  23.007792
0.604  22.942772
0.603  22.870471
0.602  22.800687
0.601  22.725670
0.600  22.647417
0.599  22.565177
0.598  22.478739
0.597  22.388790
0.596  22.302341
0.595  22.213379
0.594  22.106506
0.593  21.996818
0.592  21.883197
0.591  21.767857
0.590  21.646099
0.589  21.517938
0.588  21.388004
0.587  21.254464
0.586  21.116104
0.585  20.970257
0.584  20.826520
0.583  20.677439
0.582  20.527938
0.581  20.370303
0.580  20.209907
0.579  20.045841
0.578  19.888712
0.577  19.729282
0.576  19.565734
0.575  19.398493
0.574  19.236996
0.573  19.073296
0.572  18.905529
0.571  18.741858
0.570  18.583120
0.569  18.424707
0.568  18.274632
0.567  18.123974
0.566  17.969875
0.565  17.823744
0.564  17.682824
0.563  17.544796
0.562  17.439784
0.561  17.285384
0.560  17.147689
0.559  17.027811
0.558  16.914785
0.557  16.805514
0.556  16.696128
0.555  16.594365
0.554  16.501548
0.553  16.409670
0.552  16.323244
0.551  16.241779
0.550  16.161275
0.549  16.094765
0.548  16.027907
0.547  15.966632
0.546  15.907665
0.545  15.848553
0.544  15.795377
0.543  15.743848
0.542  15.697334
0.541  15.652247
0.540  15.612733
0.539  15.580397
0.538  15.542263
0.537  15.513691
0.536  15.480037
0.535  15.453142
0.534  15.427073
0.533  15.405353
0.532  15.382204
0.531  15.364765
0.530  15.348593
0.529  15.334987
0.528  15.315911
0.527  15.302567
0.526  15.294656
0.525  15.279120
0.524  15.269908
0.523  15.262553
0.522  15.252687
0.521  15.244648
0.520  15.232884
0.519  15.230190
0.518  15.225257
0.517  15.211120
0.516  15.216862
0.515  15.205959
0.514  15.205443
0.513  15.200305
0.512  15.193611
0.511  15.188933
0.510  15.184046
0.509  15.180154
0.508  15.176971
0.507  15.168885
0.506  15.167344
0.505  15.158231
0.504  15.155272
0.503  15.147472
0.502  15.140095
0.501  15.129713
0.500  15.125504
0.499  15.109204
0.498  15.099386
0.497  15.106182
0.496  15.091732
0.495  15.084179
0.494  15.077093
0.493  15.066033
0.492  15.058651
0.491  15.051139
0.490  15.043756
0.489  15.040598
0.488  15.026120
0.487  15.019114
0.486  15.009312
0.485  14.998495
0.484  14.994004
0.483  14.991385
0.482  14.998428
0.481  15.001729
0.480  15.011322
0.479  15.029923
0.478  15.058283
0.477  15.073632
0.476  15.085288
0.475  15.090757
0.474  15.097285
0.473  15.091148
0.472  15.102873
0.471  15.103174
0.470  15.111329
0.469  15.114232
0.468  15.122158
0.467  15.123708
0.466  15.126801
0.465  15.133699
0.464  15.138843
0.463  15.137753
0.462  15.136265
0.461  15.143789
0.460  15.145566
0.459  15.150828
0.458  15.148052
0.457  15.149286
0.456  15.146085
0.455  15.152285
0.454  15.156045
0.453  15.151232
0.452  15.147317
0.451  15.146776
0.450  15.153225
0.449  15.151600
0.448  15.148501
0.447  15.151646
0.446  15.155202
0.445  15.149240
0.444  15.146416
0.443  15.155512
0.442  15.162385
0.441  15.175832
0.440  15.168175
0.439  15.177787
0.438  15.194653
0.437  15.187177
0.436  15.201368
0.435  15.207770
0.434  15.211614
0.433  15.215465
0.432  15.221215
0.431  15.231658
0.430  15.235236
0.429  15.240865
0.428  15.248247
0.427  15.261465
0.426  15.263100
0.425  15.261846
0.424  15.274148
0.423  15.277997
0.422  15.281308
0.421  15.285389
0.420  15.289740
0.419  15.299909
0.418  15.315267
0.417  15.315158
0.416  15.326253
0.415  15.337975
0.414  15.340895
0.413  15.350620
0.412  15.358304
0.411  15.363074
0.410  15.373203
0.409  15.386564
0.408  15.389157
0.407  15.396713
0.406  15.405546
0.405  15.415720
0.404  15.422390
0.403  15.429693
0.402  15.438721
0.401  15.443931
0.400  15.449274
