Name: Chocolate "Marble" Limestone
Type: Rock
Class: Sedimentary
Subclass:  Limestone 
Particle Size: Solid surface
Sample No.: Ward68.txt
Owner: JPL
Wavelength range:  VNIR SWIR IR
Origin: Ward's Collection of American Rocks.  Sample locality - Knoxville, Knox Coutny, Tennessee.
Collected by:  Ward's Natural Science
Description: A brownish, partially crystalline limestone.
Geologic age - Ordovician.




Measurement: Hemispherical reflectance
First Column: X
Second Column: Y
X Units: Wavelength (micrometers)
Y Units: Reflectance (percent)
First X Value: 2.500
Last X Value: 0.400
Number of X Values: 2101
Additional information: None

2.500  13.013313
2.499  12.446957
2.498  13.155968
2.497  12.928656
2.496  12.663037
2.495  12.983147
2.494  12.872569
2.493  12.974799
2.492  13.155343
2.491  12.979381
2.490  13.274020
2.489  13.004880
2.488  13.267292
2.487  13.260717
2.486  13.364946
2.485  13.281285
2.484  13.649874
2.483  13.464397
2.482  13.658822
2.481  13.671932
2.480  13.913549
2.479  13.847293
2.478  14.002169
2.477  14.036250
2.476  14.354009
2.475  14.375485
2.474  14.400499
2.473  14.615634
2.472  14.716018
2.471  14.685180
2.470  15.138678
2.469  15.070950
2.468  15.333194
2.467  15.347273
2.466  15.631905
2.465  15.619962
2.464  15.861768
2.463  15.950478
2.462  16.259456
2.461  16.273984
2.460  16.415567
2.459  16.397066
2.458  16.637020
2.457  16.769285
2.456  16.974443
2.455  16.987245
2.454  17.197615
2.453  17.302540
2.452  17.423729
2.451  17.370186
2.450  17.656817
2.449  17.526428
2.448  17.844135
2.447  17.824806
2.446  17.997541
2.445  18.093803
2.444  18.190534
2.443  18.117170
2.442  18.309507
2.441  18.338209
2.440  18.481705
2.439  18.445439
2.438  18.634886
2.437  18.633612
2.436  18.675761
2.435  18.774745
2.434  18.955231
2.433  18.952358
2.432  19.058859
2.431  19.156809
2.430  19.274578
2.429  19.139106
2.428  19.244265
2.427  19.327410
2.426  19.507001
2.425  19.510929
2.424  19.615033
2.423  19.607253
2.422  19.736587
2.421  19.732370
2.420  19.795788
2.419  19.761716
2.418  19.871976
2.417  19.871735
2.416  20.015501
2.415  20.026841
2.414  20.107554
2.413  20.113078
2.412  20.230621
2.411  20.168745
2.410  20.203281
2.409  20.135795
2.408  20.289337
2.407  20.213529
2.406  20.375785
2.405  20.277744
2.404  20.357213
2.403  20.281518
2.402  20.370693
2.401  20.288922
2.400  20.389725
2.399  20.401925
2.398  20.389599
2.397  20.329750
2.396  20.397442
2.395  20.325790
2.394  20.399763
2.393  20.382044
2.392  20.444075
2.391  20.474929
2.390  20.466559
2.389  20.455728
2.388  20.429840
2.387  20.399384
2.386  20.463270
2.385  20.384304
2.384  20.494060
2.383  20.477359
2.382  20.430911
2.381  20.388490
2.380  20.301261
2.379  20.291561
2.378  20.245949
2.377  20.105738
2.376  20.094665
2.375  20.037064
2.374  19.982099
2.373  19.831649
2.372  19.774910
2.371  19.705261
2.370  19.589316
2.369  19.444842
2.368  19.309589
2.367  19.138196
2.366  18.961130
2.365  18.856515
2.364  18.746414
2.363  18.578582
2.362  18.360238
2.361  18.088379
2.360  17.950579
2.359  17.796075
2.358  17.568727
2.357  17.353555
2.356  17.124358
2.355  16.956583
2.354  16.703490
2.353  16.482101
2.352  16.248727
2.351  16.060951
2.350  15.915524
2.349  15.748888
2.348  15.519491
2.347  15.364796
2.346  15.229312
2.345  15.069365
2.344  14.918033
2.343  14.820272
2.342  14.778794
2.341  14.750250
2.340  14.644970
2.339  14.584404
2.338  14.551002
2.337  14.566637
2.336  14.544953
2.335  14.579464
2.334  14.579513
2.333  14.631433
2.332  14.647053
2.331  14.758167
2.330  14.793705
2.329  14.855776
2.328  14.909167
2.327  14.993642
2.326  15.063683
2.325  15.214745
2.324  15.330754
2.323  15.473551
2.322  15.468660
2.321  15.584881
2.320  15.671239
2.319  15.773597
2.318  15.830023
2.317  15.950960
2.316  16.059131
2.315  16.186872
2.314  16.174509
2.313  16.322868
2.312  16.367780
2.311  16.432465
2.310  16.438549
2.309  16.475986
2.308  16.489318
2.307  16.626229
2.306  16.626014
2.305  16.720220
2.304  16.682343
2.303  16.785256
2.302  16.850495
2.301  16.942597
2.300  16.916855
2.299  17.056943
2.298  17.049912
2.297  17.158284
2.296  17.078397
2.295  17.271558
2.294  17.268546
2.293  17.320961
2.292  17.358218
2.291  17.516378
2.290  17.472624
2.289  17.606137
2.288  17.661323
2.287  17.745187
2.286  17.748429
2.285  17.900806
2.284  17.947093
2.283  18.174967
2.282  18.125224
2.281  18.226738
2.280  18.300654
2.279  18.433193
2.278  18.511139
2.277  18.644934
2.276  18.729976
2.275  18.844443
2.274  18.966508
2.273  19.056401
2.272  19.042945
2.271  19.198214
2.270  19.202603
2.269  19.348747
2.268  19.333205
2.267  19.573941
2.266  19.507409
2.265  19.647930
2.264  19.694787
2.263  19.764884
2.262  19.766023
2.261  19.925719
2.260  19.948315
2.259  20.087841
2.258  20.036980
2.257  20.214456
2.256  20.135877
2.255  20.234225
2.254  20.267373
2.253  20.383935
2.252  20.425997
2.251  20.539130
2.250  20.408810
2.249  20.540821
2.248  20.562521
2.247  20.641647
2.246  20.620828
2.245  20.773984
2.244  20.641558
2.243  20.817609
2.242  20.828724
2.241  20.899581
2.240  20.879406
2.239  20.933463
2.238  20.937773
2.237  21.048706
2.236  21.068038
2.235  21.114380
2.234  21.033413
2.233  21.122903
2.232  21.151789
2.231  21.239509
2.230  21.188420
2.229  21.296094
2.228  21.194037
2.227  21.331819
2.226  21.225206
2.225  21.389480
2.224  21.292140
2.223  21.420568
2.222  21.331089
2.221  21.421490
2.220  21.409746
2.219  21.423522
2.218  21.405131
2.217  21.460893
2.216  21.457696
2.215  21.586507
2.214  21.550788
2.213  21.585704
2.212  21.652588
2.211  21.509355
2.210  21.618852
2.209  21.643397
2.208  21.592463
2.207  21.747912
2.206  21.715284
2.205  21.690687
2.204  21.777191
2.203  21.674409
2.202  21.701691
2.201  21.873047
2.200  21.803292
2.199  21.821917
2.198  21.728376
2.197  21.846782
2.196  21.788144
2.195  21.906799
2.194  21.825363
2.193  21.855765
2.192  21.784712
2.191  21.928768
2.190  21.808940
2.189  21.883012
2.188  21.807734
2.187  21.875742
2.186  21.823626
2.185  22.003291
2.184  21.857554
2.183  22.014995
2.182  21.885427
2.181  21.973121
2.180  21.910223
2.179  21.919359
2.178  21.859322
2.177  21.904973
2.176  21.839167
2.175  21.848082
2.174  21.864574
2.173  21.968225
2.172  21.751394
2.171  21.886306
2.170  21.791294
2.169  21.872308
2.168  21.785252
2.167  21.873926
2.166  21.791176
2.165  21.805518
2.164  21.655778
2.163  21.794527
2.162  21.776738
2.161  21.821993
2.160  21.686455
2.159  21.738606
2.158  21.783523
2.157  21.810573
2.156  21.717940
2.155  21.763617
2.154  21.775127
2.153  21.739828
2.152  21.779366
2.151  21.818756
2.150  21.807027
2.149  21.776969
2.148  21.792350
2.147  21.823019
2.146  21.769470
2.145  21.929279
2.144  21.927773
2.143  21.927639
2.142  21.936638
2.141  21.937277
2.140  22.001079
2.139  22.036586
2.138  21.910126
2.137  22.069099
2.136  22.036118
2.135  22.087821
2.134  21.990876
2.133  22.002857
2.132  22.041514
2.131  22.063375
2.130  22.033131
2.129  22.062926
2.128  22.057304
2.127  22.026171
2.126  21.979969
2.125  22.055618
2.124  22.057383
2.123  22.112218
2.122  21.962408
2.121  21.986688
2.120  21.988311
2.119  22.018730
2.118  22.003111
2.117  21.974881
2.116  21.904339
2.115  21.956268
2.114  21.922606
2.113  21.931955
2.112  21.880797
2.111  21.943052
2.110  21.935407
2.109  21.914163
2.108  21.884218
2.107  21.927139
2.106  21.854885
2.105  21.896562
2.104  21.905259
2.103  21.865182
2.102  21.805370
2.101  21.841161
2.100  21.789585
2.099  21.809232
2.098  21.837190
2.097  21.855185
2.096  21.835641
2.095  21.866085
2.094  21.817802
2.093  21.806643
2.092  21.785297
2.091  21.799446
2.090  21.847419
2.089  21.863569
2.088  21.824861
2.087  21.878884
2.086  21.866357
2.085  21.860410
2.084  21.875758
2.083  21.921669
2.082  21.857628
2.081  21.838324
2.080  21.848259
2.079  21.896619
2.078  21.863018
2.077  21.854395
2.076  21.849198
2.075  21.824662
2.074  21.864281
2.073  21.847615
2.072  21.818362
2.071  21.814821
2.070  21.818971
2.069  21.841287
2.068  21.870608
2.067  21.874148
2.066  21.880691
2.065  21.840994
2.064  21.808711
2.063  21.865299
2.062  21.873281
2.061  21.804240
2.060  21.820226
2.059  21.851146
2.058  21.818897
2.057  21.793535
2.056  21.813932
2.055  21.797154
2.054  21.814560
2.053  21.828937
2.052  21.829425
2.051  21.757031
2.050  21.765651
2.049  21.789062
2.048  21.743509
2.047  21.709558
2.046  21.742323
2.045  21.750361
2.044  21.781766
2.043  21.701658
2.042  21.733039
2.041  21.718533
2.040  21.662825
2.039  21.653037
2.038  21.667189
2.037  21.676011
2.036  21.709390
2.035  21.630093
2.034  21.663096
2.033  21.590865
2.032  21.662207
2.031  21.620310
2.030  21.604161
2.029  21.563314
2.028  21.549563
2.027  21.468248
2.026  21.509752
2.025  21.514140
2.024  21.512710
2.023  21.500297
2.022  21.494249
2.021  21.452830
2.020  21.436322
2.019  21.355454
2.018  21.364889
2.017  21.427385
2.016  21.395688
2.015  21.268962
2.014  21.306936
2.013  21.218730
2.012  21.263498
2.011  21.221285
2.010  21.213400
2.009  21.133891
2.008  21.139803
2.007  21.018934
2.006  21.077724
2.005  21.046969
2.004  20.947392
2.003  20.846962
2.002  20.935941
2.001  20.852181
2.000  20.767953
1.999  20.762174
1.998  20.726852
1.997  20.662310
1.996  20.767989
1.995  20.594974
1.994  20.678928
1.993  20.712771
1.992  20.713790
1.991  20.714897
1.990  20.664649
1.989  20.685706
1.988  20.780814
1.987  20.697465
1.986  20.782640
1.985  20.774458
1.984  20.738013
1.983  20.677511
1.982  20.716545
1.981  20.630609
1.980  20.666460
1.979  20.708091
1.978  20.752417
1.977  20.691967
1.976  20.722942
1.975  20.604646
1.974  20.698403
1.973  20.587953
1.972  20.649781
1.971  20.636524
1.970  20.709398
1.969  20.613125
1.968  20.587382
1.967  20.599190
1.966  20.566017
1.965  20.503241
1.964  20.596114
1.963  20.476682
1.962  20.556424
1.961  20.448675
1.960  20.591296
1.959  20.490920
1.958  20.573629
1.957  20.465646
1.956  20.498753
1.955  20.455111
1.954  20.549767
1.953  20.389683
1.952  20.483179
1.951  20.436376
1.950  20.467019
1.949  20.344759
1.948  20.442572
1.947  20.427439
1.946  20.477286
1.945  20.440177
1.944  20.443326
1.943  20.362693
1.942  20.534323
1.941  20.337130
1.940  20.499545
1.939  20.258938
1.938  20.563008
1.937  20.347022
1.936  20.413147
1.935  20.364946
1.934  20.440453
1.933  20.335306
1.932  20.490954
1.931  20.402416
1.930  20.521347
1.929  20.322472
1.928  20.544673
1.927  20.441085
1.926  20.382365
1.925  20.422419
1.924  20.421907
1.923  20.356139
1.922  20.454788
1.921  20.386990
1.920  20.493973
1.919  20.408304
1.918  20.531737
1.917  20.425051
1.916  20.560768
1.915  20.441556
1.914  20.655892
1.913  20.475033
1.912  20.742792
1.911  20.573023
1.910  20.789779
1.909  20.680585
1.908  20.761855
1.907  20.708081
1.906  20.832125
1.905  20.766960
1.904  21.021822
1.903  20.804843
1.902  20.999457
1.901  20.916537
1.900  21.124676
1.899  21.053627
1.898  21.067883
1.897  21.179229
1.896  21.271859
1.895  21.249200
1.894  21.335263
1.893  21.335709
1.892  21.452498
1.891  21.413111
1.890  21.424363
1.889  21.455257
1.888  21.530749
1.887  21.502995
1.886  21.583701
1.885  21.501568
1.884  21.602249
1.883  21.439452
1.882  21.568040
1.881  21.479064
1.880  21.529344
1.879  21.458370
1.878  21.607198
1.877  21.482089
1.876  21.624769
1.875  21.599939
1.874  21.610687
1.873  21.509275
1.872  21.657225
1.871  21.550096
1.870  21.679390
1.869  21.617551
1.868  21.718602
1.867  21.740546
1.866  21.839525
1.865  21.839142
1.864  21.961086
1.863  21.940697
1.862  22.066886
1.861  21.939284
1.860  21.968113
1.859  21.995618
1.858  22.006150
1.857  22.003050
1.856  22.054351
1.855  21.963436
1.854  22.090533
1.853  22.062148
1.852  22.103516
1.851  22.052827
1.850  22.130051
1.849  22.103088
1.848  22.129199
1.847  22.032386
1.846  22.089731
1.845  22.146821
1.844  22.163488
1.843  22.146357
1.842  22.205280
1.841  22.165793
1.840  22.211093
1.839  22.142634
1.838  22.153112
1.837  22.106605
1.836  22.072042
1.835  22.108211
1.834  22.175815
1.833  22.192063
1.832  22.265139
1.831  22.202326
1.830  22.248909
1.829  22.218378
1.828  22.287998
1.827  22.233935
1.826  22.290550
1.825  22.197198
1.824  22.235199
1.823  22.272189
1.822  22.293251
1.821  22.294582
1.820  22.330733
1.819  22.238729
1.818  22.179972
1.817  22.159612
1.816  22.288264
1.815  22.283989
1.814  22.314829
1.813  22.341730
1.812  22.333139
1.811  22.244168
1.810  22.305123
1.809  22.325757
1.808  22.319643
1.807  22.281746
1.806  22.327168
1.805  22.325968
1.804  22.307911
1.803  22.280280
1.802  22.289814
1.801  22.287204
1.800  22.289439
1.799  22.252399
1.798  22.322779
1.797  22.369606
1.796  22.307974
1.795  22.282555
1.794  22.346011
1.793  22.342503
1.792  22.362890
1.791  22.331092
1.790  22.337529
1.789  22.315375
1.788  22.286660
1.787  22.281850
1.786  22.284894
1.785  22.326545
1.784  22.308290
1.783  22.322668
1.782  22.337943
1.781  22.312112
1.780  22.297932
1.779  22.313582
1.778  22.304115
1.777  22.327685
1.776  22.348882
1.775  22.332768
1.774  22.308045
1.773  22.331604
1.772  22.304319
1.771  22.309429
1.770  22.357741
1.769  22.341161
1.768  22.287961
1.767  22.318396
1.766  22.287625
1.765  22.333782
1.764  22.300361
1.763  22.313636
1.762  22.339178
1.761  22.329216
1.760  22.238277
1.759  22.216303
1.758  22.278958
1.757  22.335523
1.756  22.281113
1.755  22.296991
1.754  22.295412
1.753  22.323931
1.752  22.320457
1.751  22.342648
1.750  22.256046
1.749  22.332444
1.748  22.279876
1.747  22.334090
1.746  22.270378
1.745  22.364316
1.744  22.333897
1.743  22.400401
1.742  22.370050
1.741  22.347546
1.740  22.341448
1.739  22.385696
1.738  22.389168
1.737  22.382053
1.736  22.282587
1.735  22.390378
1.734  22.386604
1.733  22.413991
1.732  22.343238
1.731  22.345392
1.730  22.327988
1.729  22.463514
1.728  22.396063
1.727  22.420844
1.726  22.319032
1.725  22.356290
1.724  22.335088
1.723  22.388375
1.722  22.388273
1.721  22.436789
1.720  22.385963
1.719  22.374828
1.718  22.344632
1.717  22.440593
1.716  22.347898
1.715  22.445736
1.714  22.339290
1.713  22.449768
1.712  22.449747
1.711  22.427391
1.710  22.393472
1.709  22.428985
1.708  22.447878
1.707  22.511796
1.706  22.416470
1.705  22.460166
1.704  22.437864
1.703  22.474085
1.702  22.403607
1.701  22.488123
1.700  22.387885
1.699  22.464277
1.698  22.404042
1.697  22.512387
1.696  22.363908
1.695  22.368438
1.694  22.386095
1.693  22.446965
1.692  22.320652
1.691  22.519592
1.690  22.399829
1.689  22.562637
1.688  22.381743
1.687  22.484398
1.686  22.477843
1.685  22.418082
1.684  22.443442
1.683  22.481650
1.682  22.438063
1.681  22.564516
1.680  22.399740
1.679  22.529338
1.678  22.445461
1.677  22.512326
1.676  22.455221
1.675  22.572331
1.674  22.395428
1.673  22.523537
1.672  22.474856
1.671  22.521017
1.670  22.429529
1.669  22.473344
1.668  22.302827
1.667  22.563587
1.666  22.484269
1.665  22.478087
1.664  22.415361
1.663  22.526444
1.662  22.392435
1.661  22.449945
1.660  22.514796
1.659  22.433836
1.658  22.488432
1.657  22.507331
1.656  22.418166
1.655  22.572628
1.654  22.441038
1.653  22.531297
1.652  22.473627
1.651  22.547602
1.650  22.459593
1.649  22.530166
1.648  22.440853
1.647  22.584493
1.646  22.421418
1.645  22.516634
1.644  22.461602
1.643  22.547503
1.642  22.551685
1.641  22.427347
1.640  22.594514
1.639  22.573418
1.638  22.489318
1.637  22.650974
1.636  22.492116
1.635  22.600808
1.634  22.495492
1.633  22.575896
1.632  22.468247
1.631  22.529946
1.630  22.461489
1.629  22.556888
1.628  22.504060
1.627  22.568165
1.626  22.575052
1.625  22.565115
1.624  22.550403
1.623  22.479097
1.622  22.490319
1.621  22.545866
1.620  22.424105
1.619  22.618670
1.618  22.493600
1.617  22.600648
1.616  22.565790
1.615  22.613466
1.614  22.482462
1.613  22.611483
1.612  22.491418
1.611  22.652027
1.610  22.542103
1.609  22.662955
1.608  22.508850
1.607  22.607857
1.606  22.542202
1.605  22.623354
1.604  22.561159
1.603  22.651607
1.602  22.611947
1.601  22.580105
1.600  22.597902
1.599  22.597850
1.598  22.543819
1.597  22.708876
1.596  22.578341
1.595  22.677978
1.594  22.582945
1.593  22.678951
1.592  22.591225
1.591  22.688361
1.590  22.599930
1.589  22.615597
1.588  22.606110
1.587  22.592809
1.586  22.596655
1.585  22.623858
1.584  22.637654
1.583  22.645275
1.582  22.582031
1.581  22.660801
1.580  22.645213
1.579  22.672337
1.578  22.659597
1.577  22.697279
1.576  22.621159
1.575  22.659398
1.574  22.614956
1.573  22.712111
1.572  22.642295
1.571  22.704344
1.570  22.613578
1.569  22.698938
1.568  22.608198
1.567  22.651168
1.566  22.635749
1.565  22.634703
1.564  22.615177
1.563  22.708209
1.562  22.704711
1.561  22.704687
1.560  22.642817
1.559  22.701592
1.558  22.693067
1.557  22.669766
1.556  22.665823
1.555  22.727077
1.554  22.616577
1.553  22.684895
1.552  22.699335
1.551  22.728661
1.550  22.701718
1.549  22.763175
1.548  22.660982
1.547  22.726154
1.546  22.688606
1.545  22.690779
1.544  22.705039
1.543  22.726148
1.542  22.699290
1.541  22.713043
1.540  22.680350
1.539  22.726205
1.538  22.690773
1.537  22.742449
1.536  22.686018
1.535  22.751300
1.534  22.694085
1.533  22.685282
1.532  22.679448
1.531  22.702640
1.530  22.698317
1.529  22.754541
1.528  22.741730
1.527  22.745020
1.526  22.724166
1.525  22.744539
1.524  22.722788
1.523  22.738135
1.522  22.730668
1.521  22.764374
1.520  22.722790
1.519  22.795871
1.518  22.749480
1.517  22.733729
1.516  22.738918
1.515  22.728248
1.514  22.747740
1.513  22.808555
1.512  22.833104
1.511  22.766229
1.510  22.708494
1.509  22.754957
1.508  22.733859
1.507  22.778960
1.506  22.767281
1.505  22.705423
1.504  22.731815
1.503  22.762497
1.502  22.774340
1.501  22.776050
1.500  22.773807
1.499  22.800536
1.498  22.776210
1.497  22.758718
1.496  22.768059
1.495  22.785483
1.494  22.804827
1.493  22.770075
1.492  22.787116
1.491  22.835009
1.490  22.797744
1.489  22.732899
1.488  22.781110
1.487  22.781371
1.486  22.785325
1.485  22.765457
1.484  22.774040
1.483  22.762806
1.482  22.734187
1.481  22.809908
1.480  22.806386
1.479  22.746171
1.478  22.803321
1.477  22.755707
1.476  22.766484
1.475  22.776527
1.474  22.836213
1.473  22.795894
1.472  22.788603
1.471  22.752539
1.470  22.823944
1.469  22.821284
1.468  22.870228
1.467  22.836883
1.466  22.785865
1.465  22.828939
1.464  22.881517
1.463  22.791358
1.462  22.843759
1.461  22.813954
1.460  22.883201
1.459  22.895284
1.458  22.934384
1.457  22.876096
1.456  22.969669
1.455  22.906122
1.454  22.869011
1.453  22.894574
1.452  22.881815
1.451  22.819411
1.450  22.944057
1.449  22.906104
1.448  22.930973
1.447  22.897193
1.446  22.919625
1.445  22.920071
1.444  22.970848
1.443  22.864273
1.442  23.023555
1.441  22.919886
1.440  22.967295
1.439  22.952258
1.438  22.980203
1.437  22.996138
1.436  22.974036
1.435  22.924340
1.434  23.023849
1.433  22.957718
1.432  23.057861
1.431  22.976918
1.430  23.019151
1.429  22.970927
1.428  23.057222
1.427  23.016483
1.426  23.085626
1.425  23.030060
1.424  23.074161
1.423  22.962547
1.422  23.052157
1.421  23.050209
1.420  23.138767
1.419  23.038735
1.418  23.078106
1.417  22.962802
1.416  23.132650
1.415  23.135022
1.414  23.168772
1.413  23.138468
1.412  23.191256
1.411  23.260338
1.410  23.308276
1.409  23.253176
1.408  23.284925
1.407  23.169930
1.406  23.336772
1.405  23.283646
1.404  23.346119
1.403  23.367328
1.402  23.458995
1.401  23.405352
1.400  23.383257
1.399  23.289296
1.398  23.443177
1.397  23.459681
1.396  23.555801
1.395  23.458466
1.394  23.583406
1.393  23.491938
1.392  23.582568
1.391  23.566790
1.390  23.691348
1.389  23.593165
1.388  23.760009
1.387  23.671810
1.386  23.760641
1.385  23.673455
1.384  23.793744
1.383  23.596085
1.382  23.703150
1.381  23.641222
1.380  23.741115
1.379  23.749018
1.378  23.732175
1.377  23.786961
1.376  23.864129
1.375  23.863967
1.374  23.758938
1.373  23.927296
1.372  23.875057
1.371  23.792349
1.370  23.876910
1.369  23.800831
1.368  23.872141
1.367  23.900278
1.366  23.943335
1.365  23.915657
1.364  24.007102
1.363  23.889716
1.362  23.936867
1.361  23.884925
1.360  23.903193
1.359  23.946726
1.358  24.056231
1.357  23.997709
1.356  24.027291
1.355  23.901128
1.354  24.045186
1.353  23.950065
1.352  24.087260
1.351  24.022962
1.350  24.060382
1.349  24.001545
1.348  24.072198
1.347  23.995248
1.346  24.057447
1.345  23.948122
1.344  24.135479
1.343  24.060838
1.342  24.139869
1.341  24.069626
1.340  24.172146
1.339  24.097874
1.338  24.212673
1.337  24.089185
1.336  24.219615
1.335  24.082932
1.334  24.282100
1.333  24.158354
1.332  24.236478
1.331  24.137271
1.330  24.239375
1.329  24.188585
1.328  24.330759
1.327  24.192327
1.326  24.304944
1.325  24.229806
1.324  24.312987
1.323  24.222610
1.322  24.314850
1.321  24.266843
1.320  24.397627
1.319  24.356072
1.318  24.395689
1.317  24.393240
1.316  24.429013
1.315  24.356713
1.314  24.361642
1.313  24.315942
1.312  24.451204
1.311  24.302633
1.310  24.386163
1.309  24.401728
1.308  24.528960
1.307  24.448258
1.306  24.472771
1.305  24.431594
1.304  24.461080
1.303  24.482052
1.302  24.574986
1.301  24.454643
1.300  24.557719
1.299  24.576097
1.298  24.573760
1.297  24.539680
1.296  24.589511
1.295  24.578192
1.294  24.606144
1.293  24.592253
1.292  24.669408
1.291  24.622416
1.290  24.704136
1.289  24.590188
1.288  24.764423
1.287  24.676537
1.286  24.724372
1.285  24.697106
1.284  24.706555
1.283  24.699563
1.282  24.728012
1.281  24.718014
1.280  24.854866
1.279  24.783837
1.278  24.791947
1.277  24.751601
1.276  24.871702
1.275  24.795814
1.274  24.845288
1.273  24.883349
1.272  24.848567
1.271  24.827222
1.270  24.856863
1.269  24.865922
1.268  24.972119
1.267  24.902482
1.266  24.958757
1.265  24.897203
1.264  24.910215
1.263  24.863318
1.262  25.011391
1.261  24.982507
1.260  25.018303
1.259  25.009411
1.258  25.021544
1.257  24.966613
1.256  25.055902
1.255  25.018437
1.254  25.039636
1.253  25.098258
1.252  25.105645
1.251  25.040895
1.250  25.096301
1.249  25.117825
1.248  25.165770
1.247  25.147351
1.246  25.216645
1.245  25.193453
1.244  25.191107
1.243  25.188981
1.242  25.205985
1.241  25.205689
1.240  25.189880
1.239  25.172441
1.238  25.256269
1.237  25.227365
1.236  25.217613
1.235  25.256138
1.234  25.356512
1.233  25.337781
1.232  25.348516
1.231  25.366138
1.230  25.361695
1.229  25.332529
1.228  25.401017
1.227  25.437964
1.226  25.410996
1.225  25.392221
1.224  25.469782
1.223  25.529239
1.222  25.496254
1.221  25.442077
1.220  25.482907
1.219  25.525497
1.218  25.527332
1.217  25.517189
1.216  25.546189
1.215  25.589043
1.214  25.612724
1.213  25.593533
1.212  25.585396
1.211  25.597943
1.210  25.589329
1.209  25.601863
1.208  25.640812
1.207  25.656974
1.206  25.622003
1.205  25.660175
1.204  25.645756
1.203  25.647710
1.202  25.680976
1.201  25.679909
1.200  25.746287
1.199  25.801451
1.198  25.757111
1.197  25.792916
1.196  25.822712
1.195  25.857584
1.194  25.819266
1.193  25.847505
1.192  25.856400
1.191  25.831830
1.190  25.817765
1.189  25.882445
1.188  25.831125
1.187  25.922513
1.186  25.950903
1.185  26.005548
1.184  26.002091
1.183  26.030902
1.182  25.985361
1.181  26.025319
1.180  26.041911
1.179  26.044698
1.178  26.049893
1.177  26.066682
1.176  26.064532
1.175  26.129561
1.174  26.131028
1.173  26.080715
1.172  26.124304
1.171  26.219155
1.170  26.137642
1.169  26.188412
1.168  26.230086
1.167  26.232470
1.166  26.251542
1.165  26.280858
1.164  26.208633
1.163  26.252596
1.162  26.304187
1.161  26.350279
1.160  26.297051
1.159  26.379178
1.158  26.357892
1.157  26.377029
1.156  26.350795
1.155  26.439934
1.154  26.393724
1.153  26.507547
1.152  26.442563
1.151  26.471656
1.150  26.494213
1.149  26.567356
1.148  26.469209
1.147  26.535172
1.146  26.541915
1.145  26.585186
1.144  26.541250
1.143  26.605283
1.142  26.604874
1.141  26.663819
1.140  26.653687
1.139  26.738015
1.138  26.705143
1.137  26.703668
1.136  26.775768
1.135  26.834968
1.134  26.717393
1.133  26.753397
1.132  26.709251
1.131  26.829030
1.130  26.765416
1.129  26.874463
1.128  26.870176
1.127  26.986443
1.126  26.838306
1.125  26.975997
1.124  26.882466
1.123  27.007500
1.122  26.962582
1.121  27.002799
1.120  26.936433
1.119  27.066070
1.118  26.941642
1.117  27.159729
1.116  27.017784
1.115  27.115448
1.114  27.055527
1.113  27.189429
1.112  27.084055
1.111  27.166673
1.110  27.204456
1.109  27.191974
1.108  27.187142
1.107  27.277414
1.106  27.305812
1.105  27.336681
1.104  27.296467
1.103  27.363763
1.102  27.288035
1.101  27.328494
1.100  27.342871
1.099  27.488977
1.098  27.385126
1.097  27.492711
1.096  27.404412
1.095  27.462487
1.094  27.490258
1.093  27.465048
1.092  27.492453
1.091  27.527735
1.090  27.532520
1.089  27.633238
1.088  27.591047
1.087  27.726773
1.086  27.568024
1.085  27.648227
1.084  27.655448
1.083  27.774942
1.082  27.625996
1.081  27.798315
1.080  27.774799
1.079  27.792283
1.078  27.692432
1.077  27.872177
1.076  27.773061
1.075  27.925569
1.074  27.851897
1.073  27.948130
1.072  27.852813
1.071  28.032011
1.070  27.782053
1.069  28.070839
1.068  27.992825
1.067  27.997636
1.066  28.033959
1.065  27.997133
1.064  28.062363
1.063  28.159086
1.062  28.097873
1.061  28.154382
1.060  28.152569
1.059  28.187498
1.058  28.171805
1.057  28.263324
1.056  28.187851
1.055  28.345294
1.054  28.164039
1.053  28.361779
1.052  28.262342
1.051  28.320947
1.050  28.339963
1.049  28.417717
1.048  28.463389
1.047  28.479828
1.046  28.500949
1.045  28.510761
1.044  28.455398
1.043  28.499336
1.042  28.463343
1.041  28.592437
1.040  28.550199
1.039  28.645096
1.038  28.589165
1.037  28.655937
1.036  28.615798
1.035  28.687234
1.034  28.615576
1.033  28.767553
1.032  28.704204
1.031  28.742867
1.030  28.731983
1.029  28.771432
1.028  28.763710
1.027  28.846876
1.026  28.755817
1.025  28.859721
1.024  28.833466
1.023  28.950661
1.022  28.927479
1.021  28.928874
1.020  28.929555
1.019  28.936449
1.018  28.907115
1.017  29.042346
1.016  28.980300
1.015  29.075672
1.014  28.965964
1.013  29.004011
1.012  29.059756
1.011  29.126208
1.010  29.084546
1.009  29.123715
1.008  29.112357
1.007  29.125719
1.006  29.158754
1.005  29.260895
1.004  29.167327
1.003  29.193295
1.002  29.146882
1.001  29.299268
1.000  29.211523
0.999  29.278961
0.998  29.232882
0.997  29.342094
0.996  29.330512
0.995  29.289912
0.994  29.275762
0.993  29.361618
0.992  29.335125
0.991  29.378678
0.990  29.306138
0.989  29.300163
0.988  29.286586
0.987  29.324673
0.986  29.369122
0.985  29.393945
0.984  29.335249
0.983  29.385141
0.982  29.388978
0.981  29.420769
0.980  29.409188
0.979  29.422034
0.978  29.466735
0.977  29.506871
0.976  29.423626
0.975  29.450131
0.974  29.461855
0.973  29.476163
0.972  29.437298
0.971  29.465671
0.970  29.431700
0.969  29.474713
0.968  29.456670
0.967  29.522637
0.966  29.500657
0.965  29.459386
0.964  29.436372
0.963  29.498326
0.962  29.469373
0.961  29.483007
0.960  29.457085
0.959  29.543312
0.958  29.478777
0.957  29.428979
0.956  29.414146
0.955  29.431577
0.954  29.429412
0.953  29.485649
0.952  29.493567
0.951  29.530148
0.950  29.449944
0.949  29.410653
0.948  29.467308
0.947  29.472036
0.946  29.438820
0.945  29.448388
0.944  29.388601
0.943  29.338421
0.942  29.397155
0.941  29.451090
0.940  29.452079
0.939  29.423896
0.938  29.359780
0.937  29.370632
0.936  29.391366
0.935  29.386324
0.934  29.352306
0.933  29.341094
0.932  29.337750
0.931  29.344401
0.930  29.359172
0.929  29.402608
0.928  29.374650
0.927  29.328618
0.926  29.331499
0.925  29.341042
0.924  29.318560
0.923  29.281655
0.922  29.326269
0.921  29.307385
0.920  29.277407
0.919  29.308228
0.918  29.281830
0.917  29.202135
0.916  29.266402
0.915  29.307025
0.914  29.297505
0.913  29.304134
0.912  29.259569
0.911  29.192270
0.910  29.224604
0.909  29.215289
0.908  29.211353
0.907  29.155293
0.906  29.221039
0.905  29.182379
0.904  29.117168
0.903  29.172840
0.902  29.223480
0.901  29.158798
0.900  29.172643
0.899  29.138958
0.898  29.094309
0.897  29.102686
0.896  29.156753
0.895  29.125492
0.894  29.118066
0.893  29.126313
0.892  29.080953
0.891  29.041109
0.890  29.070555
0.889  29.023252
0.888  29.109064
0.887  29.053581
0.886  29.059228
0.885  29.014132
0.884  29.078629
0.883  29.075901
0.882  29.010976
0.881  29.017368
0.880  29.000355
0.879  28.934829
0.878  29.000408
0.877  28.988615
0.876  28.991425
0.875  28.998025
0.874  29.020479
0.873  28.981833
0.872  29.016366
0.871  29.034252
0.870  29.082602
0.869  28.943180
0.868  29.036067
0.867  29.043011
0.866  29.090536
0.865  28.993040
0.864  29.089491
0.863  28.977441
0.862  28.974198
0.861  28.912879
0.860  29.029446
0.859  29.006959
0.858  28.961527
0.857  28.962557
0.856  28.978589
0.855  28.992471
0.854  29.028978
0.853  29.041855
0.852  29.021981
0.851  29.034890
0.850  29.051545
0.849  29.050230
0.848  29.065029
0.847  29.052336
0.846  29.036199
0.845  29.050084
0.844  29.071409
0.843  29.091506
0.842  29.089106
0.841  29.073167
0.840  29.083938
0.839  29.089423
0.838  29.110591
0.837  29.104779
0.836  29.113561
0.835  29.141161
0.834  29.114719
0.833  29.143619
0.832  29.145881
0.831  29.160574
0.830  29.156855
0.829  29.171260
0.828  29.134833
0.827  29.136878
0.826  29.166908
0.825  29.162040
0.824  29.145073
0.823  29.160652
0.822  29.184008
0.821  29.161038
0.820  29.185286
0.819  29.163260
0.818  29.171419
0.817  29.163708
0.816  29.177845
0.815  29.178067
0.814  29.166778
0.813  29.183590
0.812  29.159529
0.811  29.180740
0.810  29.194812
0.809  29.185057
0.808  29.164693
0.807  29.158074
0.806  29.168377
0.805  29.171068
0.804  29.169569
0.803  29.161634
0.802  29.163740
0.801  29.177041
0.800  29.141324
0.799  29.148402
0.798  29.143285
0.797  29.109247
0.796  29.116348
0.795  29.086565
0.794  29.095879
0.793  29.069632
0.792  29.065039
0.791  29.082537
0.790  29.061679
0.789  29.065891
0.788  29.026700
0.787  29.057851
0.786  29.028902
0.785  29.013293
0.784  29.015835
0.783  28.998084
0.782  28.996452
0.781  28.981780
0.780  28.969392
0.779  28.937423
0.778  28.932711
0.777  28.922004
0.776  28.889407
0.775  28.887127
0.774  28.868778
0.773  28.836388
0.772  28.813743
0.771  28.815283
0.770  28.795403
0.769  28.756246
0.768  28.752549
0.767  28.711581
0.766  28.710648
0.765  28.708769
0.764  28.673215
0.763  28.644983
0.762  28.618995
0.761  28.610348
0.760  28.572119
0.759  28.560952
0.758  28.508984
0.757  28.497678
0.756  28.460897
0.755  28.442286
0.754  28.408079
0.753  28.389060
0.752  28.359890
0.751  28.328540
0.750  28.293140
0.749  28.261699
0.748  28.225105
0.747  28.198114
0.746  28.170681
0.745  28.137450
0.744  28.089101
0.743  28.048283
0.742  28.019276
0.741  27.999963
0.740  27.938927
0.739  27.894719
0.738  27.866209
0.737  27.842296
0.736  27.822176
0.735  27.778331
0.734  27.718579
0.733  27.675625
0.732  27.642467
0.731  27.611006
0.730  27.556847
0.729  27.525789
0.728  27.476744
0.727  27.449879
0.726  27.400917
0.725  27.346359
0.724  27.317742
0.723  27.272404
0.722  27.215768
0.721  27.178529
0.720  27.129832
0.719  27.077812
0.718  27.045430
0.717  27.000184
0.716  26.967568
0.715  26.915540
0.714  26.862028
0.713  26.816515
0.712  26.771357
0.711  26.730948
0.710  26.683621
0.709  26.629210
0.708  26.581059
0.707  26.547316
0.706  26.500681
0.705  26.451128
0.704  26.409868
0.703  26.365426
0.702  26.316552
0.701  26.281016
0.700  26.237399
0.699  26.190297
0.698  26.145183
0.697  26.106293
0.696  26.060954
0.695  26.011092
0.694  25.964937
0.693  25.929657
0.692  25.877166
0.691  25.830832
0.690  25.797066
0.689  25.764553
0.688  25.721472
0.687  25.684497
0.686  25.641853
0.685  25.598334
0.684  25.553971
0.683  25.508790
0.682  25.465463
0.681  25.424527
0.680  25.379482
0.679  25.341246
0.678  25.306385
0.677  25.262884
0.676  25.225539
0.675  25.193534
0.674  25.153736
0.673  25.113344
0.672  25.070666
0.671  25.031135
0.670  25.000029
0.669  24.957709
0.668  24.920144
0.667  24.885088
0.666  24.845466
0.665  24.808066
0.664  24.772820
0.663  24.738499
0.662  24.702181
0.661  24.666788
0.660  24.638143
0.659  24.598319
0.658  24.556913
0.657  24.526838
0.656  24.493011
0.655  24.458736
0.654  24.428474
0.653  24.392138
0.652  24.364379
0.651  24.328568
0.650  24.293141
0.649  24.263588
0.648  24.230564
0.647  24.198864
0.646  24.170300
0.645  24.135881
0.644  24.096312
0.643  24.064989
0.642  24.036246
0.641  23.998987
0.640  23.967574
0.639  23.942859
0.638  23.914385
0.637  23.877100
0.636  23.840244
0.635  23.811569
0.634  23.782097
0.633  23.748632
0.632  23.715356
0.631  23.682358
0.630  23.647549
0.629  23.617384
0.628  23.590027
0.627  23.556282
0.626  23.523666
0.625  23.493538
0.624  23.455206
0.623  23.422032
0.622  23.391389
0.621  23.356002
0.620  23.319388
0.619  23.286832
0.618  23.255775
0.617  23.218465
0.616  23.183525
0.615  23.150621
0.614  23.110133
0.613  23.068053
0.612  23.031891
0.611  22.989468
0.610  22.950298
0.609  22.906344
0.608  22.865282
0.607  22.819794
0.606  22.772014
0.605  22.729490
0.604  22.677762
0.603  22.628677
0.602  22.582010
0.601  22.526036
0.600  22.468161
0.599  22.421848
0.598  22.370912
0.597  22.313434
0.596  22.254633
0.595  22.195005
0.594  22.128677
0.593  22.056476
0.592  21.986934
0.591  21.917300
0.590  21.835245
0.589  21.757999
0.588  21.676254
0.587  21.592850
0.586  21.512438
0.585  21.428172
0.584  21.333177
0.583  21.242135
0.582  21.148902
0.581  21.049009
0.580  20.952599
0.579  20.851784
0.578  20.746255
0.577  20.636344
0.576  20.527991
0.575  20.415190
0.574  20.303912
0.573  20.195172
0.572  20.082175
0.571  19.967645
0.570  19.854296
0.569  19.739782
0.568  19.627860
0.567  19.509822
0.566  19.392120
0.565  19.279549
0.564  19.167790
0.563  19.060040
0.562  18.948380
0.561  18.807959
0.560  18.691222
0.559  18.585355
0.558  18.483483
0.557  18.382959
0.556  18.280925
0.555  18.185842
0.554  18.092231
0.553  18.000219
0.552  17.914014
0.551  17.828723
0.550  17.748405
0.549  17.668974
0.548  17.595576
0.547  17.525429
0.546  17.454014
0.545  17.413931
0.544  17.361101
0.543  17.308133
0.542  17.245811
0.541  17.189277
0.540  17.142140
0.539  17.090448
0.538  17.043215
0.537  16.997555
0.536  16.953137
0.535  16.915140
0.534  16.873122
0.533  16.831194
0.532  16.803346
0.531  16.769297
0.530  16.741485
0.529  16.710201
0.528  16.680487
0.527  16.650689
0.526  16.624508
0.525  16.600686
0.524  16.574521
0.523  16.551794
0.522  16.524670
0.521  16.504390
0.520  16.486795
0.519  16.465961
0.518  16.451476
0.517  16.425713
0.516  16.405729
0.515  16.390193
0.514  16.369295
0.513  16.349625
0.512  16.334816
0.511  16.317141
0.510  16.299584
0.509  16.279282
0.508  16.257906
0.507  16.237365
0.506  16.216487
0.505  16.202885
0.504  16.182305
0.503  16.156874
0.502  16.140869
0.501  16.118040
0.500  16.092459
0.499  16.073114
0.498  16.056440
0.497  16.029145
0.496  16.010971
0.495  15.992474
0.494  15.967724
0.493  15.945283
0.492  15.923223
0.491  15.901718
0.490  15.872829
0.489  15.858638
0.488  15.837765
0.487  15.818447
0.486  15.795101
0.485  15.782684
0.484  15.763022
0.483  15.747053
0.482  15.740871
0.481  15.735877
0.480  15.734172
0.479  15.727963
0.478  15.726694
0.477  15.721146
0.476  15.714796
0.475  15.701429
0.474  15.693906
0.473  15.682344
0.472  15.670250
0.471  15.660212
0.470  15.653690
0.469  15.641211
0.468  15.627333
0.467  15.617474
0.466  15.604735
0.465  15.591038
0.464  15.579621
0.463  15.563865
0.462  15.555198
0.461  15.542589
0.460  15.528428
0.459  15.515818
0.458  15.498289
0.457  15.483733
0.456  15.469650
0.455  15.458046
0.454  15.434442
0.453  15.418256
0.452  15.403512
0.451  15.386316
0.450  15.362352
0.449  15.348966
0.448  15.322712
0.447  15.305620
0.446  15.282922
0.445  15.264037
0.444  15.233217
0.443  15.209945
0.442  15.200448
0.441  15.177325
0.440  15.158386
0.439  15.133806
0.438  15.122312
0.437  15.095279
0.436  15.069073
0.435  15.048824
0.434  15.029103
0.433  15.012327
0.432  14.982582
0.431  14.964537
0.430  14.938918
0.429  14.921384
0.428  14.901999
0.427  14.884388
0.426  14.866860
0.425  14.848439
0.424  14.827533
0.423  14.816840
0.422  14.796562
0.421  14.780608
0.420  14.768167
0.419  14.746343
0.418  14.732226
0.417  14.718472
0.416  14.708923
0.415  14.692107
0.414  14.678273
0.413  14.669446
0.412  14.657917
0.411  14.641247
0.410  14.627404
0.409  14.613948
0.408  14.600159
0.407  14.585098
0.406  14.576558
0.405  14.561298
0.404  14.550636
0.403  14.537937
0.402  14.527413
0.401  14.519105
0.400  14.504633
