Name: Howlite Ca_2B_5SiO_9(OH)_5
Type: Mineral
Class: Borates
Subclass: 
Particle Size: 125-500um
Sample No.: B-5A
Owner: JPL
Wavelength range: IR
Origin: USA, California, San Gabriel Mountains, Tick Canyon
Collected by Burminco
Description: 





Measurement: Hemispherical reflectance
First Column: X
Second Column: Y
X Units:  Wavelength (micrometers)
Y Units:  Reflectance (percent)
First X Value: 15.3853
Last X Value: 2.00032
Number of X Values: 2256
Additional information: b05aa.txt
 
15.3853	3.13286
15.3397	3.3694
15.2945	3.40978
15.2495	3.41133
15.2048	3.54435
15.1603	3.62118
15.1161	3.56836
15.0722	3.6298
15.0285	3.87986
14.9851	3.88984
14.9419	3.94345
14.8989	4.34001
14.8563	4.54535
14.8138	4.31247
14.7716	4.30042
14.7296	4.39195
14.6879	4.5812
14.6464	4.72405
14.6052	4.53282
14.5641	4.26401
14.5233	3.79029
14.4828	2.97887
14.4424	2.1963
14.4023	1.70342
14.3624	1.69178
14.3227	1.81927
14.2833	1.9909
14.244	2.19179
14.205	2.40597
14.1662	2.46445
14.1276	2.14451
14.0892	1.84933
14.051	1.88888
14.0131	1.9792
13.9753	2.06683
13.9377	2.27535
13.9004	2.28004
13.8632	2.46304
13.8262	2.75204
13.7895	2.69215
13.7529	2.54661
13.7165	2.57677
13.6803	2.79466
13.6443	2.76806
13.6085	2.68889
13.5729	2.7462
13.5374	2.85338
13.5022	2.94084
13.4671	3.18002
13.4322	3.38282
13.3975	3.37144
13.363	3.3683
13.3286	3.1922
13.2944	2.99919
13.2604	2.98199
13.2266	2.9697
13.193	3.07218
13.1595	3.2876
13.1262	3.36551
13.093	3.38009
13.06	3.50553
13.0272	3.61792
12.9946	3.59799
12.9621	3.68763
12.9298	3.83589
12.8976	3.67666
12.8656	3.47996
12.8337	3.51644
12.8021	3.6494
12.7705	3.64741
12.7391	3.66656
12.7079	3.75504
12.6769	3.86288
12.6459	4.0925
12.6152	4.20489
12.5845	4.2266
12.5541	4.38075
12.5238	4.48146
12.4936	4.58075
12.4635	4.60694
12.4337	4.60303
12.4039	4.5973
12.3743	4.72628
12.3448	4.97849
12.3155	5.18421
12.2863	5.2431
12.2573	5.32951
12.2284	5.54448
12.1996	5.70013
12.171	6.07145
12.1425	6.31878
12.1141	6.36072
12.0859	6.52633
12.0578	6.7368
12.0298	6.80873
12.0019	6.69381
11.9742	6.17996
11.9466	5.54005
11.9192	5.29378
11.8918	5.227
11.8646	5.12813
11.8375	5.1591
11.8106	5.2987
11.7837	5.45581
11.757	5.76419
11.7304	6.07914
11.7039	6.27393
11.6776	6.25405
11.6513	6.45413
11.6252	6.70992
11.5992	6.59338
11.5733	6.39353
11.5475	6.39155
11.5219	6.35843
11.4963	6.214
11.4709	6.07916
11.4455	5.94476
11.4203	5.92577
11.3952	5.86372
11.3702	5.66108
11.3454	5.40372
11.3206	5.1507
11.2959	4.98834
11.2714	4.80979
11.2469	4.74428
11.2226	4.85772
11.1983	5.08169
11.1742	5.37489
11.1502	5.66851
11.1263	5.97193
11.1024	6.21783
11.0787	6.39436
11.0551	6.58756
11.0316	6.66732
11.0081	6.66185
10.9848	6.4618
10.9616	6.28785
10.9385	6.23021
10.9154	5.88789
10.8925	5.54158
10.8697	5.33898
10.8469	5.22015
10.8243	5.01232
10.8017	4.96076
10.7793	5.18048
10.7569	5.44391
10.7346	5.90206
10.7125	6.33179
10.6904	6.73551
10.6684	7.22195
10.6465	7.73074
10.6247	8.35795
10.6029	8.89495
10.5813	9.41717
10.5597	9.97678
10.5383	10.4821
10.5169	11.0917
10.4956	11.6337
10.4744	12.0268
10.4533	12.4043
10.4323	12.5736
10.4113	12.6514
10.3904	12.5343
10.3697	12.2319
10.349	11.8684
10.3284	11.4538
10.3078	11.0808
10.2874	10.6344
10.267	10.153
10.2467	9.57722
10.2265	8.9606
10.2064	8.32574
10.1863	7.81637
10.1663	7.63445
10.1464	7.61557
10.1266	7.86766
10.1069	8.5345
10.0872	9.13305
10.0676	9.67238
10.0481	10.0811
10.0287	10.4548
10.0093	10.9733
9.99005	11.4093
9.97084	11.7404
9.95169	11.9971
9.93263	12.1354
9.91364	12.3605
9.89472	12.565
9.87587	12.7689
9.8571	13.07
9.83839	13.2537
9.81976	13.3698
9.80119	13.4578
9.78271	13.4479
9.76428	13.2943
9.74592	12.9988
9.72764	12.7234
9.70943	12.4902
9.69128	12.3001
9.6732	12.1678
9.65518	12.0911
9.63724	12.0631
9.61935	12.26
9.60155	12.489
9.5838	12.5332
9.56611	12.5738
9.5485	12.5334
9.53094	12.4268
9.51345	12.4584
9.49604	12.3343
9.47867	12.0447
9.46137	11.7656
9.44414	11.7057
9.42697	11.8196
9.40986	11.9398
9.39281	12.1401
9.37583	12.3269
9.35891	12.3227
9.34204	12.1452
9.32524	11.9731
9.3085	11.8659
9.29182	11.8403
9.27519	11.7818
9.25863	11.5203
9.24213	11.0413
9.22568	10.5387
9.2093	10.1038
9.19297	9.72817
9.17669	9.37213
9.16048	9.02005
9.14433	8.86557
9.12823	8.73113
9.11218	8.60423
9.0962	8.387
9.08027	8.14432
9.06439	7.85974
9.04858	7.54108
9.03281	7.13573
9.0171	6.81657
9.00145	6.57844
8.98585	6.25606
8.9703	5.92401
8.9548	5.68404
8.93937	5.42957
8.92398	5.15383
8.90865	5.05537
8.89337	5.05362
8.87814	4.99974
8.86296	5.02558
8.84784	5.12251
8.83277	5.14897
8.81774	5.2032
8.80277	5.28225
8.78786	5.35694
8.77298	5.32422
8.75816	5.20797
8.7434	5.13147
8.72868	4.98266
8.714	4.69315
8.69938	4.54463
8.68481	4.4904
8.67029	4.22032
8.65581	3.89826
8.64139	3.55559
8.62701	3.23397
8.61268	2.98074
8.5984	2.77914
8.58416	2.62397
8.56997	2.49653
8.55583	2.22157
8.54174	1.91985
8.52769	1.67448
8.51368	1.52245
8.49973	1.46417
8.48582	1.56109
8.47195	1.3924
8.45813	1.25499
8.44436	1.34592
8.43062	1.29429
8.41693	1.18492
8.4033	1.25917
8.3897	1.32146
8.37614	1.42345
8.36264	1.51231
8.34917	1.46127
8.33574	1.44622
8.32236	1.42018
8.30903	1.31161
8.29573	1.41265
8.28248	1.56726
8.26927	1.55249
8.2561	1.44223
8.24298	1.44773
8.2299	1.50343
8.21685	1.53866
8.20385	1.63435
8.19089	1.7145
8.17797	1.83588
8.16509	1.86011
8.15225	1.88717
8.13946	1.96881
8.1267	1.92595
8.11398	1.7786
8.10131	1.73444
8.08867	1.70851
8.07606	1.64007
8.0635	1.48546
8.05099	1.33579
8.0385	1.2275
8.02606	1.1443
8.01366	1.05961
8.00129	1.00498
7.98896	0.988338
7.97667	0.846579
7.96442	0.668248
7.9522	0.62661
7.94002	0.60646
7.92788	0.58384
7.91578	0.504578
7.90371	0.513626
7.89168	0.536227
7.87969	0.468563
7.86773	0.467247
7.85581	0.570246
7.84392	0.696933
7.83207	0.657455
7.82026	0.667118
7.80849	0.721927
7.79674	0.77965
7.78503	0.895171
7.77337	0.943774
7.76173	0.85879
7.75012	0.846579
7.73856	0.89915
7.72703	1.05486
7.71553	1.12973
7.70406	1.08598
7.69263	1.18401
7.68123	1.2749
7.66987	1.29037
7.65855	1.4294
7.64725	1.50531
7.63598	1.55917
7.62475	1.7396
7.61356	1.98087
7.60239	2.20472
7.59126	2.45453
7.58017	2.91119
7.5691	3.41336
7.55806	3.7827
7.54707	4.12225
7.5361	4.42796
7.52516	4.72869
7.51425	5.02227
7.50338	5.25479
7.49253	5.3766
7.48172	5.51635
7.47094	5.60777
7.46019	5.67445
7.44947	5.71896
7.43879	5.67986
7.42813	5.62382
7.4175	5.40741
7.4069	5.11956
7.39634	4.82441
7.3858	4.52498
7.37529	4.26048
7.36482	3.94611
7.35437	3.46295
7.34396	2.98058
7.33357	2.58159
7.32321	2.23201
7.31288	1.97138
7.30258	1.74682
7.29231	1.53018
7.28207	1.35193
7.27185	1.23463
7.26167	1.22195
7.25152	1.1722
7.24139	1.10082
7.23129	1.00628
7.22122	1.01389
7.21117	1.07905
7.20116	0.979123
7.19117	0.910862
7.18121	0.97153
7.17128	0.956845
7.16137	0.963265
7.1515	1.00089
7.14164	1.02145
7.13182	1.08765
7.12203	1.26334
7.11225	1.40966
7.10251	1.53818
7.0928	1.71397
7.08311	1.94617
7.07344	2.20192
7.06381	2.28671
7.0542	2.2965
7.04461	2.30547
7.03506	2.13237
7.02552	1.82297
7.01601	1.50084
7.00653	1.20053
6.99708	0.937919
6.98765	0.838484
6.97824	0.786882
6.96886	0.790747
6.95951	0.947388
6.95018	0.955328
6.94087	0.814967
6.9316	0.703549
6.92234	0.629871
6.91311	0.552828
6.90391	0.594322
6.89473	0.742669
6.88557	0.869007
6.87644	0.955567
6.86733	0.928156
6.85824	0.85891
6.84918	0.820701
6.84015	0.82617
6.83114	0.792567
6.82215	0.674405
6.81319	0.522871
6.80424	0.452877
6.79532	0.443481
6.78643	0.384378
6.77756	0.273482
6.76871	0.20008
6.75989	0.249938
6.75109	0.345805
6.74231	0.298923
6.73355	0.354972
6.72482	0.391666
6.71611	0.288024
6.70742	0.279005
6.69875	0.30324
6.69011	0.34239
6.68149	0.396705
6.67289	0.368447
6.66431	0.385494
6.65576	0.390897
6.64722	0.354122
6.63871	0.4609
6.63022	0.526501
6.62175	0.486662
6.61331	0.362195
6.60488	0.326428
6.59648	0.356864
6.5881	0.407237
6.57974	0.424793
6.5714	0.354055
6.56308	0.441653
6.55478	0.559232
6.54651	0.575523
6.53825	0.469267
6.53001	0.433703
6.5218	0.540074
6.51361	0.597029
6.50544	0.604759
6.49729	0.630451
6.48915	0.678162
6.48104	0.702284
6.47295	0.616279
6.46488	0.55219
6.45683	0.494797
6.4488	0.4689
6.44079	0.502482
6.4328	0.602294
6.42482	0.626819
6.41687	0.638059
6.40894	0.722292
6.40103	0.68638
6.39314	0.734232
6.38526	0.750943
6.37741	0.773743
6.36957	0.828886
6.36176	0.701216
6.35396	0.683461
6.34618	0.799286
6.33843	0.870099
6.33069	0.843253
6.32297	0.753699
6.31527	0.70707
6.30758	0.797923
6.29992	0.804243
6.29227	0.717989
6.28465	0.819914
6.27704	0.920834
6.26945	0.819786
6.26188	0.765623
6.25432	0.849689
6.24679	0.90968
6.23927	0.875742
6.23177	0.800201
6.22429	0.914154
6.21683	0.940254
6.20938	0.841822
6.20195	0.821193
6.19454	0.917816
6.18715	0.979407
6.17978	0.942703
6.17242	0.915029
6.16508	0.924075
6.15776	0.895217
6.15045	0.907678
6.14317	0.961108
6.1359	0.94805
6.12864	0.909085
6.12141	0.926916
6.11419	1.01936
6.10699	1.02818
6.0998	0.96224
6.09263	0.983895
6.08549	1.06224
6.07835	1.06942
6.07123	0.996922
6.06413	0.940592
6.05705	0.953247
6.04998	1.11961
6.04293	1.14427
6.0359	1.07411
6.02888	1.05654
6.02187	1.08594
6.01489	1.11594
6.00792	1.1073
6.00096	1.15196
5.99403	1.23221
5.98711	1.20897
5.9802	1.16264
5.97331	1.18726
5.96644	1.18429
5.95958	1.16525
5.95274	1.15598
5.94591	1.22948
5.9391	1.33396
5.9323	1.29858
5.92552	1.2694
5.91876	1.21373
5.91201	1.25816
5.90528	1.27808
5.89856	1.29296
5.89186	1.2546
5.88517	1.24562
5.8785	1.23245
5.87184	1.25208
5.8652	1.2893
5.85857	1.27606
5.85196	1.30556
5.84536	1.37125
5.83878	1.46854
5.83221	1.43888
5.82566	1.34801
5.81912	1.28346
5.81259	1.28795
5.80608	1.30517
5.79959	1.37091
5.79311	1.35884
5.78665	1.3485
5.78019	1.35807
5.77376	1.458
5.76734	1.50386
5.76093	1.35693
5.75453	1.28309
5.74815	1.35702
5.74179	1.38121
5.73543	1.37521
5.7291	1.39627
5.72277	1.37279
5.71646	1.41093
5.71017	1.44792
5.70389	1.40086
5.69762	1.3681
5.69136	1.40352
5.68513	1.34569
5.6789	1.41827
5.67268	1.53837
5.66648	1.48365
5.6603	1.42627
5.65413	1.46939
5.64797	1.57071
5.64182	1.556
5.63569	1.46103
5.62957	1.49156
5.62347	1.50818
5.61737	1.50439
5.61129	1.51186
5.60522	1.54736
5.59917	1.57345
5.59313	1.57619
5.5871	1.58521
5.58109	1.58278
5.57509	1.6018
5.5691	1.63659
5.56312	1.65081
5.55716	1.63333
5.55121	1.63237
5.54528	1.67104
5.53935	1.6865
5.53344	1.63151
5.52754	1.62058
5.52166	1.69489
5.51578	1.72333
5.50992	1.72278
5.50407	1.7208
5.49823	1.64766
5.49241	1.57871
5.4866	1.59286
5.4808	1.67756
5.47501	1.63718
5.46923	1.66494
5.46347	1.71861
5.45772	1.6188
5.45198	1.61426
5.44625	1.64823
5.44054	1.62677
5.43484	1.7127
5.42914	1.72004
5.42347	1.70807
5.4178	1.68887
5.41214	1.68207
5.4065	1.67865
5.40087	1.66671
5.39525	1.70252
5.38964	1.7041
5.38404	1.69894
5.37846	1.76355
5.37288	1.82522
5.36732	1.82697
5.36177	1.81398
5.35623	1.81444
5.35071	1.79481
5.34519	1.79643
5.33968	1.76308
5.33419	1.76272
5.32871	1.80762
5.32324	1.78609
5.31778	1.73317
5.31233	1.82043
5.30689	1.87832
5.30147	1.82347
5.29605	1.81455
5.29065	1.83701
5.28525	1.90266
5.27987	1.90805
5.2745	1.87335
5.26914	1.81866
5.26379	1.86375
5.25845	1.96271
5.25312	1.9135
5.24781	1.88758
5.2425	1.90386
5.23721	1.95673
5.23192	1.94433
5.22665	1.84806
5.22138	1.84582
5.21613	1.92584
5.21089	1.92905
5.20566	1.88159
5.20044	1.89514
5.19522	1.93917
5.19002	1.9292
5.18483	1.89855
5.17965	1.90923
5.17448	1.93513
5.16933	1.87414
5.16418	1.86193
5.15904	1.93374
5.15391	2.03515
5.14879	2.07654
5.14368	2.00166
5.13859	1.96919
5.1335	2.02564
5.12842	2.04155
5.12335	2.04379
5.1183	2.14778
5.11325	2.17612
5.10821	2.18638
5.10318	2.16953
5.09817	2.10233
5.09316	2.13226
5.08816	2.16238
5.08317	2.15922
5.07819	2.18751
5.07322	2.23141
5.06826	2.24615
5.06331	2.21365
5.05837	2.13921
5.05344	2.20386
5.04852	2.25273
5.04361	2.26555
5.03871	2.26186
5.03382	2.27366
5.02894	2.2872
5.02406	2.33026
5.0192	2.37822
5.01435	2.36481
5.0095	2.28418
5.00467	2.28718
4.99984	2.29283
4.99502	2.3192
4.99021	2.35606
4.98542	2.32379
4.98063	2.32201
4.97585	2.36026
4.97108	2.36484
4.96632	2.43015
4.96156	2.43606
4.95682	2.32158
4.95209	2.326
4.94736	2.35395
4.94264	2.37432
4.93794	2.47437
4.93324	2.47873
4.92855	2.46132
4.92387	2.40038
4.9192	2.38075
4.91453	2.39845
4.90988	2.38345
4.90524	2.42855
4.9006	2.53946
4.89597	2.46084
4.89135	2.39065
4.88674	2.43922
4.88214	2.45419
4.87755	2.44868
4.87296	2.51299
4.86839	2.51398
4.86382	2.50436
4.85926	2.45287
4.85471	2.41185
4.85017	2.45327
4.84564	2.44007
4.84111	2.40828
4.8366	2.50536
4.83209	2.50904
4.82759	2.52203
4.8231	2.58318
4.81862	2.56208
4.81415	2.55164
4.80968	2.54846
4.80522	2.59952
4.80077	2.68456
4.79633	2.67236
4.7919	2.60342
4.78747	2.61294
4.78306	2.63543
4.77865	2.66263
4.77425	2.65726
4.76986	2.62166
4.76547	2.59336
4.7611	2.50095
4.75673	2.51284
4.75237	2.64789
4.74802	2.68614
4.74367	2.69658
4.73934	2.7425
4.73501	2.7676
4.73069	2.70279
4.72638	2.66203
4.72207	2.72961
4.71777	2.73234
4.71348	2.70847
4.7092	2.76152
4.70493	2.85915
4.70066	2.86768
4.69641	2.82972
4.69216	2.81464
4.68791	2.80754
4.68368	2.83016
4.67945	2.85663
4.67523	2.86359
4.67102	2.8772
4.66682	2.82249
4.66262	2.80973
4.65843	2.85812
4.65425	2.92366
4.65007	2.91153
4.64591	2.87977
4.64175	2.83422
4.6376	2.92033
4.63345	2.94063
4.62932	2.91055
4.62519	2.90658
4.62106	2.93074
4.61695	2.9093
4.61284	2.83384
4.60874	2.86346
4.60465	2.95711
4.60056	3.01207
4.59648	3.04079
4.59241	3.02771
4.58835	3.09129
4.58429	3.18021
4.58024	3.17944
4.5762	3.10057
4.57216	3.12321
4.56814	3.06731
4.56411	3.05251
4.5601	3.13744
4.55609	3.13211
4.55209	3.05046
4.5481	3.00999
4.54411	2.95928
4.54013	2.97101
4.53616	3.02345
4.5322	3.12161
4.52824	3.17552
4.52429	3.13514
4.52034	3.06419
4.51641	3.05995
4.51247	3.09872
4.50855	3.12466
4.50463	3.13999
4.50072	3.11817
4.49682	3.1202
4.49292	3.04346
4.48903	2.98266
4.48515	2.96499
4.48127	2.91401
4.4774	3.01732
4.47354	3.0691
4.46968	3.0074
4.46584	3.0207
4.46199	3.0386
4.45815	3.03472
4.45432	3.01716
4.4505	2.99597
4.44668	3.09475
4.44287	3.21426
4.43907	3.17532
4.43527	3.11754
4.43148	3.07202
4.4277	3.06479
4.42392	3.08484
4.42015	3.07396
4.41638	3.07474
4.41262	3.0304
4.40887	3.04084
4.40513	3.10977
4.40139	3.11074
4.39765	3.13126
4.39393	3.20563
4.39021	3.16724
4.38649	3.09034
4.38278	3.03395
4.37908	3.08671
4.37539	3.18101
4.3717	3.16646
4.36801	3.13753
4.36434	3.1374
4.36067	3.15584
4.357	3.18335
4.35335	3.18248
4.34969	3.16538
4.34605	3.12963
4.34241	3.1402
4.33877	3.21627
4.33514	3.24757
4.33152	3.21488
4.32791	3.17938
4.3243	3.16667
4.32069	3.2689
4.3171	3.24298
4.31351	3.17175
4.30992	3.2222
4.30634	3.29022
4.30277	3.34968
4.2992	3.38242
4.29564	3.43805
4.29208	3.42597
4.28853	3.35181
4.28499	3.3637
4.28145	3.3713
4.27792	3.40475
4.27439	3.48198
4.27087	3.54032
4.26735	3.61496
4.26384	3.60854
4.26034	3.60869
4.25684	3.57079
4.25335	3.48119
4.24986	3.48829
4.24638	3.58731
4.24291	3.64982
4.23944	3.67373
4.23598	3.6698
4.23252	3.64595
4.22906	3.63964
4.22562	3.62247
4.22218	3.61107
4.21874	3.60726
4.21531	3.64797
4.21189	3.64461
4.20847	3.56749
4.20506	3.58432
4.20165	3.57264
4.19825	3.50825
4.19485	3.5082
4.19146	3.57235
4.18807	3.56781
4.18469	3.52427
4.18132	3.50238
4.17795	3.49051
4.17458	3.4123
4.17123	3.44059
4.16787	3.34963
4.16453	3.26427
4.16118	3.35342
4.15785	3.33497
4.15451	3.31302
4.15119	3.33385
4.14787	3.36884
4.14455	3.40933
4.14124	3.359
4.13794	3.29292
4.13464	3.36778
4.13134	3.43786
4.12805	3.4712
4.12477	3.49862
4.12149	3.52095
4.11822	3.42849
4.11495	3.42153
4.11168	3.46673
4.10843	3.52936
4.10517	3.61387
4.10192	3.62295
4.09868	3.67724
4.09545	3.76489
4.09221	3.73759
4.08899	3.73709
4.08576	3.93478
4.08255	4.03578
4.07933	3.9345
4.07613	3.95192
4.07292	3.98255
4.06973	4.08198
4.06654	4.20003
4.06335	4.26605
4.06017	4.32332
4.05699	4.43354
4.05382	4.49427
4.05065	4.53808
4.04749	4.63295
4.04433	4.77261
4.04118	4.88926
4.03803	4.96089
4.03489	5.0205
4.03175	5.09357
4.02862	5.20266
4.02549	5.3283
4.02237	5.42516
4.01925	5.51416
4.01614	5.66614
4.01303	5.76398
4.00993	5.80042
4.00683	5.87271
4.00373	5.91285
4.00064	6.01547
3.99756	6.10266
3.99448	6.22095
3.9914	6.35243
3.98833	6.42763
3.98527	6.45844
3.98221	6.46583
3.97915	6.64488
3.9761	6.87338
3.97305	6.9374
3.97001	6.94487
3.96697	6.98786
3.96394	6.89005
3.96091	6.88257
3.95789	6.98003
3.95487	7.04145
3.95186	7.09291
3.94885	7.21765
3.94584	7.33513
3.94284	7.37819
3.93984	7.4004
3.93685	7.49421
3.93386	7.57475
3.93088	7.53749
3.9279	7.54904
3.92493	7.58872
3.92196	7.61786
3.919	7.6217
3.91604	7.59726
3.91308	7.60993
3.91013	7.6199
3.90718	7.64641
3.90424	7.69773
3.9013	7.7699
3.89837	7.78968
3.89544	7.80787
3.89252	7.82412
3.8896	7.7615
3.88668	7.81033
3.88377	7.86823
3.88086	7.90331
3.87796	7.95089
3.87506	8.03883
3.87217	8.045
3.86928	7.96869
3.86639	7.88601
3.86351	7.91595
3.86064	8.03152
3.85776	8.07043
3.8549	8.08204
3.85203	8.2169
3.84917	8.33519
3.84631	8.34637
3.84346	8.39871
3.84062	8.41756
3.83777	8.40134
3.83494	8.35311
3.8321	8.3373
3.82927	8.33419
3.82644	8.30769
3.82362	8.37999
3.82081	8.50048
3.81799	8.49816
3.81518	8.47844
3.81238	8.47559
3.80958	8.45002
3.80678	8.39261
3.80399	8.32421
3.8012	8.36501
3.79841	8.44941
3.79563	8.37519
3.79286	8.27073
3.79008	8.23976
3.78731	8.23663
3.78455	8.17591
3.78179	8.20856
3.77903	8.36538
3.77628	8.3724
3.77353	8.28533
3.77079	8.18327
3.76805	8.23036
3.76531	8.339
3.76258	8.382
3.75985	8.34428
3.75713	8.3048
3.7544	8.35459
3.75169	8.36601
3.74898	8.35683
3.74627	8.35192
3.74356	8.37503
3.74086	8.29398
3.73816	8.15748
3.73547	8.04843
3.73278	8.03365
3.7301	7.99665
3.72741	7.96627
3.72474	7.93233
3.72206	7.74569
3.71939	7.67798
3.71673	7.75426
3.71406	7.7502
3.71141	7.6782
3.70875	7.61525
3.7061	7.57002
3.70345	7.47597
3.70081	7.42402
3.69817	7.45348
3.69553	7.34179
3.6929	7.21975
3.69027	7.09644
3.68765	6.96444
3.68503	6.90294
3.68241	6.83366
3.6798	6.74072
3.67719	6.72092
3.67458	6.72194
3.67198	6.65737
3.66938	6.51601
3.66678	6.43189
3.66419	6.35915
3.66161	6.28212
3.65902	6.21955
3.65644	6.1486
3.65387	6.0208
3.65129	5.98934
3.64872	5.93003
3.64616	5.891
3.64359	5.96214
3.64103	6.01659
3.63848	6.01112
3.63593	5.92126
3.63338	5.85278
3.63084	5.85591
3.6283	5.82021
3.62576	5.83403
3.62322	5.87099
3.62069	5.75228
3.61817	5.64253
3.61564	5.68259
3.61312	5.64957
3.61061	5.53638
3.6081	5.50558
3.60559	5.52182
3.60308	5.52492
3.60058	5.54038
3.59808	5.64083
3.59558	5.73908
3.59309	5.81018
3.59061	5.85644
3.58812	5.82124
3.58564	5.8823
3.58316	5.93185
3.58069	5.95886
3.57822	5.9888
3.57575	6.07623
3.57328	6.05647
3.57082	6.00214
3.56836	5.98635
3.56591	6.00074
3.56346	5.98092
3.56101	5.901
3.55857	5.84335
3.55613	5.78414
3.55369	5.75696
3.55126	5.72785
3.54883	5.66782
3.5464	5.63011
3.54397	5.6587
3.54155	5.691
3.53914	5.70639
3.53672	5.73144
3.53431	5.7607
3.5319	5.70935
3.5295	5.70921
3.5271	5.66599
3.5247	5.75121
3.52231	5.8087
3.51991	5.73424
3.51753	5.73546
3.51514	5.6992
3.51276	5.6409
3.51038	5.73454
3.50801	5.76815
3.50563	5.78431
3.50327	5.81074
3.5009	5.72728
3.49854	5.72027
3.49618	5.71271
3.49382	5.55368
3.49147	5.49768
3.48912	5.58478
3.48677	5.58574
3.48443	5.40099
3.48209	5.29133
3.47975	5.33853
3.47742	5.3368
3.47509	5.22516
3.47276	5.1729
3.47044	5.11111
3.46812	5.06147
3.4658	4.9634
3.46348	4.87492
3.46117	4.86428
3.45886	4.85746
3.45656	4.74377
3.45425	4.75211
3.45195	4.78884
3.44966	4.70191
3.44736	4.58202
3.44507	4.57736
3.44279	4.66783
3.4405	4.60418
3.43822	4.48681
3.43594	4.50074
3.43367	4.53384
3.43139	4.5029
3.42912	4.47772
3.42686	4.44854
3.42459	4.43121
3.42233	4.32552
3.42007	4.38884
3.41782	4.45842
3.41557	4.37691
3.41332	4.31249
3.41108	4.28347
3.40883	4.2875
3.40659	4.23062
3.40435	4.12695
3.40212	4.1551
3.39989	4.21913
3.39766	4.23538
3.39544	4.13053
3.39322	4.05772
3.391	4.02463
3.38878	3.97457
3.38657	3.96959
3.38436	4.0074
3.38215	3.98035
3.37994	3.93279
3.37774	3.88992
3.37554	3.89828
3.37335	3.8696
3.37115	3.85834
3.36896	3.78499
3.36678	3.77921
3.36459	3.83128
3.36241	3.76014
3.36023	3.65936
3.35805	3.64781
3.35588	3.61321
3.35371	3.66339
3.35154	3.62652
3.34938	3.65023
3.34721	3.66612
3.34505	3.57565
3.3429	3.54417
3.34074	3.50959
3.33859	3.38484
3.33644	3.30344
3.3343	3.38513
3.33215	3.40108
3.33001	3.38802
3.32788	3.37614
3.32574	3.24211
3.32361	3.25117
3.32148	3.28742
3.31936	3.24883
3.31723	3.25186
3.31511	3.3066
3.31299	3.31441
3.31088	3.18102
3.30876	3.1407
3.30665	3.20071
3.30455	3.12896
3.30244	3.10876
3.30034	3.11446
3.29824	3.10302
3.29614	3.10569
3.29405	3.18693
3.29196	3.20117
3.28987	3.10499
3.28778	3.05456
3.2857	3.04268
3.28362	3.03865
3.28154	3.04023
3.27946	3.00505
3.27739	2.97945
3.27532	2.90566
3.27325	2.84394
3.27119	2.95568
3.26913	2.98296
3.26707	2.87587
3.26501	2.86274
3.26295	2.91115
3.2609	2.97611
3.25885	3.00053
3.2568	2.86405
3.25476	2.75481
3.25272	2.78911
3.25068	2.89235
3.24864	2.90157
3.24661	2.78237
3.24458	2.74675
3.24255	2.83848
3.24052	2.81842
3.2385	2.78993
3.23648	2.76728
3.23446	2.85939
3.23244	2.87006
3.23043	2.76222
3.22841	2.69391
3.2264	2.71553
3.2244	2.75456
3.22239	2.64225
3.22039	2.60058
3.21839	2.60694
3.2164	2.63572
3.2144	2.61624
3.21241	2.61038
3.21042	2.67957
3.20844	2.5994
3.20645	2.63904
3.20447	2.72436
3.20249	2.74656
3.20051	2.77822
3.19854	2.62706
3.19657	2.43543
3.1946	2.39322
3.19263	2.53374
3.19067	2.68536
3.1887	2.64126
3.18674	2.68026
3.18479	2.77441
3.18283	2.61908
3.18088	2.45549
3.17893	2.41464
3.17698	2.54501
3.17504	2.57233
3.17309	2.51076
3.17115	2.50363
3.16921	2.45693
3.16728	2.47256
3.16534	2.47224
3.16341	2.42105
3.16148	2.39123
3.15956	2.38404
3.15763	2.31492
3.15571	2.22676
3.15379	2.2302
3.15187	2.35709
3.14996	2.32708
3.14805	2.2336
3.14614	2.21784
3.14423	2.11728
3.14232	2.07973
3.14042	2.18772
3.13852	2.18539
3.13662	2.05392
3.13472	2.00395
3.13283	2.02331
3.13094	2.08761
3.12905	2.04595
3.12716	1.98027
3.12528	1.90335
3.12339	1.87884
3.12151	1.99378
3.11964	2.01455
3.11776	1.94173
3.11589	1.97397
3.11401	1.99021
3.11214	1.93873
3.11028	1.99343
3.10841	1.95001
3.10655	1.73122
3.10469	1.7044
3.10283	1.76871
3.10098	1.72675
3.09912	1.66256
3.09727	1.81127
3.09542	1.89717
3.09358	1.8455
3.09173	1.71352
3.08989	1.69916
3.08805	1.73558
3.08621	1.73023
3.08437	1.72161
3.08254	1.74725
3.08071	1.77064
3.07888	1.85623
3.07705	1.78088
3.07523	1.79881
3.0734	1.90893
3.07158	1.97212
3.06977	1.87226
3.06795	1.80303
3.06613	1.95448
3.06432	2.02586
3.06251	1.94338
3.0607	1.86745
3.0589	1.97087
3.0571	2.02312
3.05529	2.01137
3.05349	2.00837
3.0517	2.01251
3.0499	2.10243
3.04811	2.14069
3.04632	2.04305
3.04453	1.98556
3.04274	1.96884
3.04096	1.92641
3.03918	2.00646
3.0374	2.04736
3.03562	1.99072
3.03384	2.0525
3.03207	2.046
3.03029	2.09399
3.02852	2.2147
3.02676	2.21944
3.02499	2.21374
3.02323	2.19049
3.02146	2.15534
3.0197	2.10109
3.01795	2.06024
3.01619	2.16306
3.01444	2.18227
3.01269	2.13117
3.01094	2.03094
3.00919	2.0367
3.00744	2.15732
3.0057	2.14952
3.00396	2.19343
3.00222	2.29262
3.00048	2.34803
2.99875	2.18179
2.99701	2.10858
2.99528	2.194
2.99355	2.24601
2.99183	2.26062
2.9901	2.17918
2.98838	2.09433
2.98666	2.06087
2.98494	2.13284
2.98322	2.14272
2.9815	2.07296
2.97979	1.99476
2.97808	2.09398
2.97637	2.14453
2.97466	2.17893
2.97295	2.20535
2.97125	2.18049
2.96955	2.1918
2.96785	2.20939
2.96615	2.20094
2.96446	2.09511
2.96276	2.08062
2.96107	2.19303
2.95938	2.05816
2.95769	1.90943
2.95601	1.97374
2.95432	2.15389
2.95264	2.21381
2.95096	2.01477
2.94928	1.80098
2.9476	1.86343
2.94593	1.92253
2.94425	1.89936
2.94258	1.95136
2.94092	1.92488
2.93925	1.91689
2.93758	1.96609
2.93592	1.79309
2.93426	1.61169
2.9326	1.54321
2.93094	1.35931
2.92928	1.36952
2.92763	1.43865
2.92598	1.37714
2.92433	1.31586
2.92268	1.2965
2.92103	1.4235
2.91939	1.59562
2.91775	1.54703
2.9161	1.49147
2.91447	1.5512
2.91283	1.63593
2.91119	1.7243
2.90956	1.73626
2.90793	1.77753
2.9063	1.88659
2.90467	1.9556
2.90304	2.09843
2.90142	2.19265
2.89979	1.96012
2.89817	1.89336
2.89656	1.97847
2.89494	1.92054
2.89332	1.8789
2.89171	1.92568
2.8901	2.01212
2.88849	2.07803
2.88688	2.01024
2.88527	1.84533
2.88367	1.88877
2.88206	2.00372
2.88046	1.99703
2.87886	1.9361
2.87727	1.82244
2.87567	1.81228
2.87408	1.87567
2.87248	1.90157
2.87089	1.94674
2.8693	1.95018
2.86772	2.05753
2.86613	2.156
2.86455	2.14462
2.86297	2.15524
2.86139	2.02305
2.85981	1.90982
2.85823	1.88234
2.85666	1.83229
2.85508	1.67802
2.85351	1.65154
2.85194	1.79589
2.85038	1.78248
2.84881	1.73822
2.84724	1.60401
2.84568	1.53659
2.84412	1.66877
2.84256	1.76226
2.841	1.73181
2.83945	1.63118
2.83789	1.66713
2.83634	1.69458
2.83479	1.77364
2.83324	1.89889
2.83169	2.00892
2.83015	2.10894
2.82861	2.033
2.82706	1.90683
2.82552	1.89855
2.82398	1.93714
2.82245	2.05709
2.82091	2.05911
2.81938	2.14214
2.81784	2.15503
2.81631	2.08884
2.81479	2.17859
2.81326	2.14546
2.81173	2.2055
2.81021	2.27547
2.80869	2.20876
2.80716	2.03561
2.80565	1.67711
2.80413	1.42015
2.80261	1.41134
2.8011	1.47747
2.79959	1.47067
2.79808	1.33177
2.79657	1.17995
2.79506	1.10223
2.79355	1.18651
2.79205	1.33315
2.79055	1.35491
2.78904	1.31072
2.78754	1.3568
2.78605	1.58045
2.78455	1.69269
2.78306	1.61859
2.78156	1.46712
2.78007	1.5333
2.77858	1.64838
2.77709	1.73759
2.77561	1.78968
2.77412	1.74139
2.77264	1.73255
2.77116	1.97675
2.76968	2.10659
2.7682	2.00713
2.76672	1.92377
2.76524	1.833
2.76377	1.83864
2.7623	2.01434
2.76083	2.23704
2.75936	2.21417
2.75789	2.24252
2.75642	2.53143
2.75496	2.50916
2.7535	2.37858
2.75203	2.52602
2.75057	2.54681
2.74912	2.67022
2.74766	2.82742
2.7462	2.88093
2.74475	3.04505
2.7433	3.12418
2.74185	3.06003
2.7404	3.04086
2.73895	3.09671
2.7375	3.14865
2.73606	3.15162
2.73462	3.25821
2.73318	3.24512
2.73174	3.26001
2.7303	3.53484
2.72886	3.69889
2.72742	3.73327
2.72599	3.88361
2.72456	3.94415
2.72313	3.96073
2.7217	4.17982
2.72027	4.39923
2.71884	4.45398
2.71742	4.61164
2.71599	4.77561
2.71457	4.91692
2.71315	5.0144
2.71173	5.20318
2.71032	5.46977
2.7089	5.5118
2.70748	5.60106
2.70607	5.94738
2.70466	6.13246
2.70325	6.26271
2.70184	6.48585
2.70043	6.62527
2.69903	6.75464
2.69762	7.02579
2.69622	7.28594
2.69482	7.54837
2.69342	7.88424
2.69202	8.05155
2.69062	8.34319
2.68923	8.68366
2.68783	8.96256
2.68644	9.22212
2.68505	9.43118
2.68366	9.72328
2.68227	9.97986
2.68089	10.1442
2.6795	10.3661
2.67812	10.7679
2.67673	11.0904
2.67535	11.0343
2.67397	11.0943
2.6726	11.3666
2.67122	11.8092
2.66984	11.9155
2.66847	11.8803
2.6671	12.1755
2.66572	12.2863
2.66435	12.3224
2.66299	12.2792
2.66162	12.3568
2.66025	12.5276
2.65889	12.5782
2.65753	12.7019
2.65616	12.8865
2.65481	12.7
2.65345	12.7572
2.65209	13.12
2.65073	13.2258
2.64938	13.2098
2.64803	13.2775
2.64667	13.4806
2.64532	13.6881
2.64397	13.7031
2.64263	13.7775
2.64128	14.0331
2.63994	14.1611
2.63859	14.2807
2.63725	14.4885
2.63591	14.4638
2.63457	14.4154
2.63323	14.5806
2.6319	14.8992
2.63056	15.2467
2.62923	15.2016
2.62789	15.2531
2.62656	15.3642
2.62523	15.2419
2.6239	15.3196
2.62258	15.4371
2.62125	15.6927
2.61993	15.8546
2.6186	15.8876
2.61728	16.1813
2.61596	16.2788
2.61464	16.2426
2.61332	16.3064
2.61201	16.3785
2.61069	16.4511
2.60938	16.5065
2.60807	16.6336
2.60675	16.8253
2.60544	16.8874
2.60414	16.7433
2.60283	16.7184
2.60152	16.8007
2.60022	16.8286
2.59891	16.7897
2.59761	16.9169
2.59631	17.2394
2.59501	17.6046
2.59371	17.3304
2.59242	16.912
2.59112	16.8006
2.58983	16.8631
2.58853	16.8941
2.58724	16.9275
2.58595	16.9194
2.58466	17.0885
2.58338	17.2172
2.58209	17.0031
2.5808	17.0238
2.57952	17.1776
2.57824	17.1851
2.57695	17.3497
2.57567	17.4001
2.5744	17.5362
2.57312	17.7888
2.57184	17.8191
2.57057	17.9347
2.56929	18.1029
2.56802	18.1874
2.56675	18.2425
2.56548	18.363
2.56421	18.448
2.56294	18.4382
2.56168	18.5391
2.56041	18.4475
2.55915	18.2537
2.55789	18.2596
2.55662	18.2042
2.55536	18.0445
2.5541	18.0577
2.55285	18.0157
2.55159	17.8808
2.55034	17.9326
2.54908	17.9069
2.54783	17.892
2.54658	17.8716
2.54533	18.0052
2.54408	18.1303
2.54283	18.1565
2.54159	18.0789
2.54034	18.068
2.5391	18.1673
2.53785	18.1588
2.53661	18.1867
2.53537	18.2989
2.53413	18.2653
2.53289	18.0205
2.53166	17.9237
2.53042	17.8965
2.52919	17.6711
2.52795	17.5267
2.52672	17.3496
2.52549	17.1155
2.52426	16.9308
2.52303	16.7877
2.52181	16.7246
2.52058	16.8321
2.51936	16.7475
2.51813	16.5139
2.51691	16.5468
2.51569	16.5638
2.51447	16.3679
2.51325	16.1766
2.51203	15.9689
2.51082	15.8339
2.5096	15.7337
2.50839	15.6207
2.50717	15.3175
2.50596	15.0648
2.50475	14.9736
2.50354	14.8262
2.50233	14.6059
2.50113	14.5218
2.49992	14.5676
2.49872	14.3228
2.49751	14.0762
2.49631	14.0249
2.49511	13.7357
2.49391	13.5297
2.49271	13.5083
2.49151	13.3634
2.49031	13.0626
2.48912	12.7519
2.48792	12.5496
2.48673	12.2739
2.48554	11.9132
2.48435	11.6893
2.48316	11.5676
2.48197	11.2463
2.48078	11.0661
2.4796	10.9618
2.47841	10.8248
2.47723	10.5262
2.47604	10.2597
2.47486	9.99898
2.47368	9.71326
2.4725	9.37873
2.47132	9.01154
2.47014	8.84344
2.46897	8.75672
2.46779	8.53054
2.46662	8.27904
2.46545	8.13923
2.46427	8.05829
2.4631	7.96359
2.46193	7.93111
2.46077	7.93896
2.4596	8.02426
2.45843	8.06553
2.45727	7.99427
2.4561	7.91283
2.45494	8.0521
2.45378	8.35628
2.45262	8.67114
2.45146	8.82106
2.4503	8.94073
2.44914	9.06881
2.44799	9.12814
2.44683	9.31931
2.44568	9.70553
2.44452	9.85701
2.44337	9.81834
2.44222	10.0585
2.44107	10.4395
2.43992	10.4886
2.43877	10.4701
2.43763	10.5897
2.43648	10.7379
2.43534	10.9201
2.43419	10.9199
2.43305	10.824
2.43191	10.8923
2.43077	11.0315
2.42963	11.1544
2.42849	11.3501
2.42736	11.5014
2.42622	11.5631
2.42509	11.8924
2.42395	12.2419
2.42282	12.3823
2.42169	12.6179
2.42056	12.8938
2.41943	13.2055
2.4183	13.4514
2.41717	13.5978
2.41605	13.922
2.41492	14.4141
2.4138	14.8261
2.41267	15.2233
2.41155	15.5417
2.41043	16.0132
2.40931	16.5035
2.40819	16.9568
2.40707	17.2573
2.40595	17.5861
2.40484	17.9657
2.40372	18.3152
2.40261	18.7347
2.4015	19.0716
2.40039	19.4149
2.39928	19.7851
2.39817	20.1456
2.39706	20.3669
2.39595	20.6952
2.39484	21.0448
2.39374	21.275
2.39263	21.5282
2.39153	21.8622
2.39043	22.295
2.38932	22.6901
2.38822	23.0652
2.38712	23.3414
2.38603	23.5582
2.38493	23.8534
2.38383	24.1879
2.38274	24.5175
2.38164	24.7876
2.38055	24.8421
2.37946	25.0112
2.37836	25.3609
2.37727	25.6401
2.37618	25.7464
2.3751	25.8564
2.37401	25.9562
2.37292	26.126
2.37184	26.2883
2.37075	26.4739
2.36967	26.6755
2.36859	26.6991
2.3675	26.7323
2.36642	26.8216
2.36534	26.8683
2.36427	26.951
2.36319	26.9772
2.36211	26.8569
2.36104	26.7255
2.35996	26.7961
2.35889	26.9411
2.35781	26.8817
2.35674	26.7914
2.35567	26.7987
2.3546	26.9879
2.35353	27.0752
2.35247	27.1681
2.3514	27.2644
2.35033	27.5782
2.34927	28.0632
2.3482	28.4476
2.34714	28.6313
2.34608	28.8359
2.34502	29.0471
2.34396	29.2756
2.3429	29.405
2.34184	29.3967
2.34078	29.54
2.33973	29.6155
2.33867	29.6299
2.33762	29.6635
2.33656	29.6814
2.33551	29.6467
2.33446	29.4051
2.33341	29.17
2.33236	28.9375
2.33131	28.6306
2.33026	28.203
2.32922	27.8692
2.32817	27.589
2.32712	27.433
2.32608	27.3117
2.32504	27.0341
2.324	26.7567
2.32295	26.5261
2.32191	26.5323
2.32087	26.61
2.31984	26.5362
2.3188	26.5019
2.31776	26.371
2.31673	26.2254
2.31569	26.212
2.31466	26.1935
2.31362	26.1476
2.31259	26.0149
2.31156	25.6207
2.31053	25.4227
2.3095	25.3965
2.30847	25.1715
2.30745	24.9517
2.30642	24.8057
2.3054	24.646
2.30437	24.5763
2.30335	24.5611
2.30232	24.538
2.3013	24.6085
2.30028	24.5914
2.29926	24.5156
2.29824	24.6151
2.29722	24.6369
2.29621	24.6748
2.29519	24.7199
2.29417	24.7429
2.29316	24.8586
2.29215	24.9646
2.29113	25.0572
2.29012	25.0684
2.28911	25.2414
2.2881	25.3853
2.28709	25.3296
2.28608	25.404
2.28507	25.5809
2.28407	25.5717
2.28306	25.4265
2.28206	25.3852
2.28105	25.4871
2.28005	25.491
2.27905	25.4744
2.27805	25.3906
2.27705	25.3643
2.27605	25.2311
2.27505	25.1079
2.27405	25.0253
2.27305	24.9375
2.27206	24.7257
2.27106	24.5125
2.27007	24.4217
2.26907	24.2408
2.26808	24.0065
2.26709	23.74
2.2661	23.4978
2.26511	23.2432
2.26412	22.995
2.26313	22.7254
2.26214	22.3675
2.26116	22.1843
2.26017	22.052
2.25919	21.7815
2.2582	21.5182
2.25722	21.1557
2.25624	20.8743
2.25526	20.7094
2.25428	20.6698
2.2533	20.5404
2.25232	20.3984
2.25134	20.1771
2.25036	19.9135
2.24939	19.6923
2.24841	19.5666
2.24744	19.5821
2.24646	19.6315
2.24549	19.6084
2.24452	19.5317
2.24355	19.4061
2.24257	19.5453
2.24161	19.7454
2.24064	19.7277
2.23967	19.701
2.2387	19.7338
2.23774	19.7219
2.23677	19.8153
2.23581	19.8782
2.23484	19.9809
2.23388	20.1959
2.23292	20.4339
2.23196	20.5675
2.231	20.6089
2.23004	20.6956
2.22908	20.8494
2.22812	21.0342
2.22716	21.2934
2.22621	21.472
2.22525	21.501
2.2243	21.515
2.22334	21.6288
2.22239	21.821
2.22144	21.9658
2.22049	21.9612
2.21953	22.0462
2.21859	22.2312
2.21764	22.241
2.21669	22.3787
2.21574	22.5303
2.21479	22.5637
2.21385	22.5617
2.2129	22.4422
2.21196	22.4375
2.21102	22.6062
2.21007	22.6702
2.20913	22.6897
2.20819	22.8396
2.20725	22.8723
2.20631	22.9015
2.20537	23.0352
2.20444	23.0803
2.2035	23.0192
2.20256	23.0003
2.20163	23.1216
2.20069	23.1129
2.19976	22.966
2.19883	22.8449
2.19789	22.8147
2.19696	22.6677
2.19603	22.5283
2.1951	22.4072
2.19417	22.1716
2.19325	22.0264
2.19232	21.8693
2.19139	21.6295
2.19047	21.4557
2.18954	21.0068
2.18862	20.8428
2.18769	20.9135
2.18677	20.7582
2.18585	20.5981
2.18493	20.3158
2.18401	19.9806
2.18309	19.8105
2.18217	19.5759
2.18125	19.466
2.18033	19.3727
2.17942	18.9977
2.1785	18.6214
2.17759	18.6084
2.17667	18.5148
2.17576	18.1669
2.17485	17.8535
2.17393	17.4831
2.17302	17.3314
2.17211	17.1549
2.1712	16.8307
2.17029	16.6428
2.16939	16.6446
2.16848	16.4766
2.16757	16.127
2.16667	15.7581
2.16576	15.5439
2.16486	15.433
2.16395	15.3957
2.16305	15.5967
2.16215	15.542
2.16125	15.5211
2.16035	15.5441
2.15945	15.439
2.15855	15.5567
2.15765	15.8526
2.15675	16.0243
2.15586	16.2201
2.15496	16.4154
2.15406	16.6666
2.15317	16.8427
2.15228	16.9258
2.15138	17.2033
2.15049	17.3649
2.1496	17.3691
2.14871	17.5366
2.14782	17.8346
2.14693	18.0555
2.14604	17.9786
2.14515	17.8412
2.14427	17.927
2.14338	17.896
2.14249	17.7088
2.14161	17.7299
2.14072	17.6933
2.13984	17.3113
2.13896	17.1059
2.13808	16.8935
2.13719	16.611
2.13631	16.2596
2.13543	15.9014
2.13455	15.7307
2.13368	15.5929
2.1328	15.358
2.13192	15.1076
2.13105	15.0796
2.13017	15.1473
2.1293	15.014
2.12842	14.8256
2.12755	14.9902
2.12668	15.202
2.1258	15.3376
2.12493	15.5605
2.12406	16.0523
2.12319	16.4291
2.12232	16.7327
2.12145	17.0408
2.12059	17.2335
2.11972	17.5263
2.11885	18.1038
2.11799	18.502
2.11712	18.9831
2.11626	19.4834
2.1154	19.8678
2.11453	20.2051
2.11367	20.5187
2.11281	20.8326
2.11195	21.1866
2.11109	21.3617
2.11023	21.61
2.10937	21.9524
2.10851	22.067
2.10766	22.2401
2.1068	22.344
2.10594	22.4297
2.10509	22.4676
2.10423	22.7763
2.10338	23.1261
2.10253	23.2174
2.10168	23.385
2.10082	23.5058
2.09997	23.8661
2.09912	24.2204
2.09827	24.1432
2.09742	24.4198
2.09658	24.9411
2.09573	25.3562
2.09488	25.7091
2.09404	26.0999
2.09319	26.6167
2.09235	27.2106
2.0915	27.3872
2.09066	27.6911
2.08982	28.1728
2.08897	28.6506
2.08813	29.3824
2.08729	30.0731
2.08645	30.5248
2.08561	30.8384
2.08477	30.9279
2.08394	31.4932
2.0831	32.1796
2.08226	32.5933
2.08143	33.2293
2.08059	33.8696
2.07976	34.1726
2.07892	34.9481
2.07809	35.918
2.07726	36.7169
2.07643	37.5439
2.07559	38.2941
2.07476	38.7989
2.07393	39.467
2.0731	40.009
2.07228	40.6591
2.07145	41.2213
2.07062	41.7465
2.06979	42.2771
2.06897	43.0084
2.06814	43.736
2.06732	44.1097
2.06649	44.3809
2.06567	44.7511
2.06485	45.3203
2.06403	45.7513
2.0632	46.0273
2.06238	46.2677
2.06156	46.5358
2.06074	46.6389
2.05993	46.888
2.05911	47.3188
2.05829	47.4483
2.05747	47.4679
2.05666	47.925
2.05584	48.5126
2.05503	48.9183
2.05421	48.7884
2.0534	48.9237
2.05259	49.2076
2.05177	49.1002
2.05096	49.0389
2.05015	49.2479
2.04934	49.5374
2.04853	49.8742
2.04772	50.0263
2.04691	49.94
2.04611	50.0008
2.0453	49.8677
2.04449	49.6612
2.04369	49.7044
2.04288	49.7925
2.04208	49.798
2.04127	49.6732
2.04047	49.4532
2.03967	49.2554
2.03886	49.2136
2.03806	49.0773
2.03726	48.74
2.03646	48.5348
2.03566	48.2377
2.03486	47.9598
2.03407	47.7476
2.03327	47.6854
2.03247	47.4373
2.03167	46.9903
2.03088	46.978
2.03008	47.0946
2.02929	47.2856
2.0285	47.2125
2.0277	47.0034
2.02691	47.4535
2.02612	48.2204
2.02533	48.6368
2.02453	48.7539
2.02374	49.0122
2.02295	49.4297
2.02217	50.1453
2.02138	50.7565
2.02059	51.0648
2.0198	51.3474
2.01902	51.4939
2.01823	51.5774
2.01744	51.7678
2.01666	51.7357
2.01588	51.8522
2.01509	51.8189
2.01431	51.7588
2.01353	51.5739
2.01275	51.6694
2.01196	51.4283
2.01118	51.1486
2.0104	51.1599
2.00963	51.1442
2.00885	51.2802
2.00807	51.56
2.00729	51.6624
2.00651	51.9224
2.00574	52.0978
2.00496	52.1376
2.00419	52.3728
2.00341	52.7563
2.00264	52.9777
2.00187	53.1441
2.00109	53.0971
2.00032	52.9982
