Name: Ulexite NaCaB_5O_6(OH)_6.5H_2O
Type: Mineral
Class: Borates
Subclass: 
Particle Size: 45-125um
Sample No.: B-3A
Owner: JPL
Wavelength range: IR
Origin: USA, California, Kern County, Boron
Collected by JPL
Description: 





Measurement: Hemispherical reflectance
First Column: X
Second Column: Y
X Units:  Wavelength (micrometers)
Y Units:  Reflectance (percent)
First X Value: 15.3853
Last X Value: 2.00032
Number of X Values: 2256
Additional information: b03aa.txt
 
15.3853	3.468
15.3397	3.45212
15.2945	3.21517
15.2495	3.18051
15.2048	3.11918
15.1603	2.72331
15.1161	2.29027
15.0722	2.31536
15.0285	2.2363
14.9851	2.31562
14.9419	2.50777
14.8989	2.60103
14.8563	2.59976
14.8138	2.73086
14.7716	2.70279
14.7296	2.48915
14.6879	2.40215
14.6464	2.43595
14.6052	2.70534
14.5641	2.65403
14.5233	2.45712
14.4828	2.54195
14.4424	2.76015
14.4023	2.94367
14.3624	2.99771
14.3227	2.96591
14.2833	2.93996
14.244	3.06162
14.205	3.03621
14.1662	3.0955
14.1276	3.19354
14.0892	3.25536
14.051	3.38236
14.0131	3.57423
13.9753	3.3619
13.9377	3.05446
13.9004	2.94376
13.8632	2.74908
13.8262	2.53106
13.7895	2.40913
13.7529	2.32508
13.7165	2.22243
13.6803	2.2364
13.6443	2.46351
13.6085	2.57063
13.5729	2.54317
13.5374	2.47378
13.5022	2.52716
13.4671	2.59789
13.4322	2.60419
13.3975	2.52998
13.363	2.5275
13.3286	2.60523
13.2944	2.42056
13.2604	2.10903
13.2266	1.78219
13.193	1.76439
13.1595	1.85824
13.1262	1.83912
13.093	1.79056
13.06	1.78827
13.0272	1.8595
12.9946	2.02542
12.9621	2.05606
12.9298	2.02563
12.8976	2.00303
12.8656	2.21468
12.8337	2.37634
12.8021	2.33996
12.7705	2.29371
12.7391	2.35444
12.7079	2.45705
12.6769	2.38949
12.6459	2.36861
12.6152	2.49221
12.5845	2.60224
12.5541	2.62046
12.5238	2.68873
12.4936	2.81264
12.4635	3.01368
12.4337	2.99624
12.4039	2.991
12.3743	3.09177
12.3448	3.28302
12.3155	3.49094
12.2863	3.61385
12.2573	3.69177
12.2284	3.97335
12.1996	4.03806
12.171	3.99813
12.1425	4.06033
12.1141	4.22674
12.0859	4.2825
12.0578	4.14462
12.0298	4.10847
12.0019	4.18463
11.9742	4.13633
11.9466	4.21261
11.9192	4.3551
11.8918	4.47778
11.8646	4.61874
11.8375	4.69843
11.8106	4.8954
11.7837	5.31077
11.757	5.6546
11.7304	5.82998
11.7039	6.21993
11.6776	6.67916
11.6513	6.95939
11.6252	7.08662
11.5992	7.08987
11.5733	6.92609
11.5475	6.70779
11.5219	6.37863
11.4963	5.94598
11.4709	5.4283
11.4455	4.82578
11.4203	4.40408
11.3952	4.07725
11.3702	3.85724
11.3454	3.5324
11.3206	3.11984
11.2959	2.73322
11.2714	2.31893
11.2469	2.01738
11.2226	1.83163
11.1983	1.77176
11.1742	1.8075
11.1502	1.79284
11.1263	1.81658
11.1024	1.83783
11.0787	1.92123
11.0551	2.0541
11.0316	2.12727
11.0081	2.07554
10.9848	2.19188
10.9616	2.42739
10.9385	2.46589
10.9154	2.5473
10.8925	2.69397
10.8697	2.66371
10.8469	2.5876
10.8243	2.62715
10.8017	2.68875
10.7793	2.66478
10.7569	2.66511
10.7346	2.70338
10.7125	2.57987
10.6904	2.61268
10.6684	2.82161
10.6465	2.90845
10.6247	2.99598
10.6029	3.07884
10.5813	3.12415
10.5597	3.24887
10.5383	3.42706
10.5169	3.6446
10.4956	3.81216
10.4744	3.78867
10.4533	3.75336
10.4323	3.77441
10.4113	3.83228
10.3904	3.97585
10.3697	4.10163
10.349	4.21101
10.3284	4.43227
10.3078	4.6684
10.2874	4.8463
10.267	5.06542
10.2467	5.17056
10.2265	5.02522
10.2064	4.94128
10.1863	5.08231
10.1663	5.08018
10.1464	5.06256
10.1266	5.17394
10.1069	5.28367
10.0872	5.3848
10.0676	5.60345
10.0481	5.71801
10.0287	5.92092
10.0093	6.04389
9.99005	6.09336
9.97084	6.08938
9.95169	6.11905
9.93263	6.0867
9.91364	5.9428
9.89472	5.6618
9.87587	5.31191
9.8571	5.01059
9.83839	4.62425
9.81976	4.30279
9.80119	4.0045
9.78271	3.64083
9.76428	3.49542
9.74592	3.23215
9.72764	3.00974
9.70943	2.98305
9.69128	3.07044
9.6732	3.21151
9.65518	3.33658
9.63724	3.47919
9.61935	3.61295
9.60155	3.91506
9.5838	4.26035
9.56611	4.60862
9.5485	4.84132
9.53094	4.96884
9.51345	5.12905
9.49604	5.2555
9.47867	5.31682
9.46137	5.42197
9.44414	5.49869
9.42697	5.53699
9.40986	5.53598
9.39281	5.60446
9.37583	5.67875
9.35891	5.66822
9.34204	5.56934
9.32524	5.48123
9.3085	5.41797
9.29182	5.34859
9.27519	5.28199
9.25863	5.28454
9.24213	5.16847
9.22568	4.9812
9.2093	4.82068
9.19297	4.55393
9.17669	4.5061
9.16048	4.55885
9.14433	4.50364
9.12823	4.33633
9.11218	4.31521
9.0962	4.36121
9.08027	4.50822
9.06439	4.44785
9.04858	4.26769
9.03281	4.15434
9.0171	4.08019
9.00145	4.10604
8.98585	4.14901
8.9703	4.00451
8.9548	3.75917
8.93937	3.66396
8.92398	3.55291
8.90865	3.40434
8.89337	3.25457
8.87814	3.05716
8.86296	2.77565
8.84784	2.586
8.83277	2.51003
8.81774	2.46826
8.80277	2.38907
8.78786	2.25537
8.77298	2.18292
8.75816	2.13338
8.7434	2.02991
8.72868	1.87557
8.714	1.65172
8.69938	1.47349
8.68481	1.45787
8.67029	1.52465
8.65581	1.54064
8.64139	1.46258
8.62701	1.30685
8.61268	1.15898
8.5984	1.09352
8.58416	1.05937
8.56997	1.08172
8.55583	1.08498
8.54174	1.04354
8.52769	1.1876
8.51368	1.25697
8.49973	1.16202
8.48582	1.26304
8.47195	1.33713
8.45813	1.44628
8.44436	1.51073
8.43062	1.50701
8.41693	1.61891
8.4033	1.73187
8.3897	1.75866
8.37614	1.75691
8.36264	1.765
8.34917	1.75747
8.33574	1.64279
8.32236	1.67312
8.30903	1.76144
8.29573	1.85149
8.28248	2.03628
8.26927	2.02253
8.2561	2.04593
8.24298	2.28541
8.2299	2.28197
8.21685	2.21799
8.20385	2.33285
8.19089	2.3185
8.17797	2.00275
8.16509	1.62574
8.15225	1.35757
8.13946	1.25169
8.1267	1.20379
8.11398	1.13897
8.10131	1.00961
8.08867	0.961638
8.07606	0.961453
8.0635	0.894961
8.05099	0.794032
8.0385	0.74194
8.02606	0.767155
8.01366	0.812089
8.00129	0.777267
7.98896	0.822044
7.97667	0.816516
7.96442	0.82355
7.9522	0.916944
7.94002	0.93977
7.92788	0.926285
7.91578	0.869348
7.90371	0.948842
7.89168	1.08695
7.87969	1.18685
7.86773	1.16542
7.85581	1.20179
7.84392	1.29639
7.83207	1.27664
7.82026	1.29205
7.80849	1.40201
7.79674	1.47261
7.78503	1.43696
7.77337	1.46055
7.76173	1.56775
7.75012	1.6177
7.73856	1.59798
7.72703	1.63402
7.71553	1.73556
7.70406	1.79206
7.69263	1.92106
7.68123	2.15442
7.66987	2.29064
7.65855	2.277
7.64725	2.35836
7.63598	2.62958
7.62475	2.92431
7.61356	3.0984
7.60239	3.29011
7.59126	3.37929
7.58017	3.50278
7.5691	3.55355
7.55806	3.51338
7.54707	3.55583
7.5361	3.48658
7.52516	3.37761
7.51425	3.2445
7.50338	3.09824
7.49253	2.97427
7.48172	2.86625
7.47094	2.68649
7.46019	2.45809
7.44947	2.33378
7.43879	2.26472
7.42813	2.2986
7.4175	2.38073
7.4069	2.39781
7.39634	2.38311
7.3858	2.36976
7.37529	2.39164
7.36482	2.46337
7.35437	2.46092
7.34396	2.37468
7.33357	2.15731
7.32321	2.03581
7.31288	2.01084
7.30258	1.82035
7.29231	1.5736
7.28207	1.45123
7.27185	1.44243
7.26167	1.42345
7.25152	1.39468
7.24139	1.50398
7.23129	1.65748
7.22122	1.85704
7.21117	1.94886
7.20116	1.97109
7.19117	2.02593
7.18121	2.08315
7.17128	2.17662
7.16137	2.13905
7.1515	2.05058
7.14164	2.00351
7.13182	2.04032
7.12203	2.10221
7.11225	2.17688
7.10251	2.21442
7.0928	2.27821
7.08311	2.39832
7.07344	2.4868
7.06381	2.56563
7.0542	2.68415
7.04461	2.82439
7.03506	2.84084
7.02552	2.83335
7.01601	2.96169
7.00653	3.0922
6.99708	3.1763
6.98765	3.06544
6.97824	2.96455
6.96886	2.83934
6.95951	2.6588
6.95018	2.41132
6.94087	2.11848
6.9316	1.90961
6.92234	1.66476
6.91311	1.29297
6.90391	0.994041
6.89473	0.934546
6.88557	0.831755
6.87644	0.649967
6.86733	0.645505
6.85824	0.658465
6.84918	0.573161
6.84015	0.50705
6.83114	0.531736
6.82215	0.462634
6.81319	0.442092
6.80424	0.531054
6.79532	0.513848
6.78643	0.475003
6.77756	0.494145
6.76871	0.575747
6.75989	0.612072
6.75109	0.553657
6.74231	0.464019
6.73355	0.428911
6.72482	0.427082
6.71611	0.284319
6.70742	0.257803
6.69875	0.339063
6.69011	0.313742
6.68149	0.254303
6.67289	0.375993
6.66431	0.46361
6.65576	0.493591
6.64722	0.503254
6.63871	0.460379
6.63022	0.416034
6.62175	0.316194
6.61331	0.30246
6.60488	0.31931
6.59648	0.350663
6.5881	0.452638
6.57974	0.486118
6.5714	0.504246
6.56308	0.496832
6.55478	0.507909
6.54651	0.55399
6.53825	0.577258
6.53001	0.593181
6.5218	0.587179
6.51361	0.520732
6.50544	0.48288
6.49729	0.482713
6.48915	0.570493
6.48104	0.517608
6.47295	0.459657
6.46488	0.532206
6.45683	0.630875
6.4488	0.62952
6.44079	0.56608
6.4328	0.570794
6.42482	0.605358
6.41687	0.677714
6.40894	0.735451
6.40103	0.743676
6.39314	0.647109
6.38526	0.588454
6.37741	0.604675
6.36957	0.585347
6.36176	0.567613
6.35396	0.603692
6.34618	0.57268
6.33843	0.574372
6.33069	0.627657
6.32297	0.666498
6.31527	0.652814
6.30758	0.674459
6.29992	0.781241
6.29227	0.759759
6.28465	0.669691
6.27704	0.719324
6.26945	0.855427
6.26188	0.813383
6.25432	0.798596
6.24679	0.776916
6.23927	0.720947
6.23177	0.707495
6.22429	0.691963
6.21683	0.758175
6.20938	0.794194
6.20195	0.804007
6.19454	0.814375
6.18715	0.802981
6.17978	0.789381
6.17242	0.767391
6.16508	0.744211
6.15776	0.783764
6.15045	0.785466
6.14317	0.795378
6.1359	0.770706
6.12864	0.685982
6.12141	0.711232
6.11419	0.739378
6.10699	0.797741
6.0998	0.727689
6.09263	0.715158
6.08549	0.731007
6.07835	0.709966
6.07123	0.759603
6.06413	0.811557
6.05705	0.775073
6.04998	0.704807
6.04293	0.725782
6.0359	0.709507
6.02888	0.631024
6.02187	0.566503
6.01489	0.65439
6.00792	0.758123
6.00096	0.785397
5.99403	0.753613
5.98711	0.669714
5.9802	0.634885
5.97331	0.725856
5.96644	0.786663
5.95958	0.706352
5.95274	0.608144
5.94591	0.6
5.9391	0.667042
5.9323	0.75623
5.92552	0.745585
5.91876	0.731766
5.91201	0.770679
5.90528	0.819156
5.89856	0.837636
5.89186	0.833189
5.88517	0.846311
5.8785	0.745653
5.87184	0.656085
5.8652	0.739523
5.85857	0.860331
5.85196	0.812409
5.84536	0.711563
5.83878	0.684697
5.83221	0.672194
5.82566	0.701959
5.81912	0.753812
5.81259	0.808474
5.80608	0.893603
5.79959	0.943223
5.79311	0.999678
5.78665	0.993951
5.78019	0.98861
5.77376	0.952311
5.76734	0.83347
5.76093	0.815492
5.75453	0.907184
5.74815	0.98264
5.74179	0.98609
5.73543	1.01031
5.7291	1.01097
5.72277	1.04373
5.71646	1.08011
5.71017	1.05922
5.70389	1.06119
5.69762	1.12985
5.69136	1.11312
5.68513	1.06479
5.6789	1.15648
5.67268	1.23419
5.66648	1.19512
5.6603	1.18323
5.65413	1.23622
5.64797	1.26791
5.64182	1.21863
5.63569	1.15701
5.62957	1.18299
5.62347	1.21765
5.61737	1.23838
5.61129	1.23257
5.60522	1.30716
5.59917	1.35718
5.59313	1.31493
5.5871	1.3782
5.58109	1.38045
5.57509	1.32949
5.5691	1.28533
5.56312	1.24598
5.55716	1.23288
5.55121	1.24852
5.54528	1.22899
5.53935	1.25154
5.53344	1.30504
5.52754	1.28806
5.52166	1.31106
5.51578	1.34705
5.50992	1.37459
5.50407	1.38208
5.49823	1.36762
5.49241	1.34639
5.4866	1.41638
5.4808	1.49119
5.47501	1.49086
5.46923	1.42501
5.46347	1.35639
5.45772	1.3317
5.45198	1.35457
5.44625	1.40687
5.44054	1.47412
5.43484	1.37763
5.42914	1.34549
5.42347	1.40901
5.4178	1.37974
5.41214	1.38333
5.4065	1.32729
5.40087	1.37114
5.39525	1.39674
5.38964	1.43026
5.38404	1.45078
5.37846	1.3901
5.37288	1.35087
5.36732	1.37893
5.36177	1.39454
5.35623	1.4024
5.35071	1.43475
5.34519	1.49065
5.33968	1.4813
5.33419	1.38939
5.32871	1.44509
5.32324	1.46252
5.31778	1.42647
5.31233	1.34299
5.30689	1.26902
5.30147	1.31844
5.29605	1.37795
5.29065	1.46408
5.28525	1.44445
5.27987	1.4295
5.2745	1.47006
5.26914	1.45737
5.26379	1.41478
5.25845	1.3985
5.25312	1.42472
5.24781	1.37809
5.2425	1.37618
5.23721	1.41858
5.23192	1.42957
5.22665	1.42493
5.22138	1.45543
5.21613	1.46665
5.21089	1.47776
5.20566	1.52845
5.20044	1.51162
5.19522	1.47311
5.19002	1.52748
5.18483	1.55992
5.17965	1.53443
5.17448	1.53015
5.16933	1.55996
5.16418	1.49503
5.15904	1.46685
5.15391	1.54176
5.14879	1.54823
5.14368	1.54463
5.13859	1.56531
5.1335	1.53647
5.12842	1.50971
5.12335	1.53035
5.1183	1.54753
5.11325	1.54908
5.10821	1.55048
5.10318	1.56387
5.09817	1.60584
5.09316	1.62642
5.08816	1.64952
5.08317	1.64094
5.07819	1.59831
5.07322	1.60071
5.06826	1.62471
5.06331	1.55594
5.05837	1.46826
5.05344	1.56084
5.04852	1.61745
5.04361	1.56584
5.03871	1.62278
5.03382	1.5989
5.02894	1.61864
5.02406	1.68456
5.0192	1.57851
5.01435	1.51848
5.0095	1.47987
5.00467	1.51323
4.99984	1.58899
4.99502	1.54419
4.99021	1.53494
4.98542	1.5236
4.98063	1.49781
4.97585	1.51721
4.97108	1.56363
4.96632	1.56825
4.96156	1.49136
4.95682	1.51168
4.95209	1.56493
4.94736	1.54137
4.94264	1.60133
4.93794	1.5515
4.93324	1.48885
4.92855	1.51953
4.92387	1.48346
4.9192	1.48776
4.91453	1.52599
4.90988	1.52025
4.90524	1.45666
4.9006	1.45526
4.89597	1.5355
4.89135	1.55516
4.88674	1.51545
4.88214	1.55966
4.87755	1.55089
4.87296	1.4878
4.86839	1.49026
4.86382	1.57623
4.85926	1.63135
4.85471	1.56398
4.85017	1.61175
4.84564	1.67383
4.84111	1.63357
4.8366	1.62952
4.83209	1.57254
4.82759	1.41284
4.8231	1.37324
4.81862	1.39705
4.81415	1.38364
4.80968	1.44216
4.80522	1.44543
4.80077	1.40917
4.79633	1.49013
4.7919	1.55283
4.78747	1.4557
4.78306	1.47335
4.77865	1.49137
4.77425	1.44641
4.76986	1.35967
4.76547	1.38446
4.7611	1.39767
4.75673	1.31076
4.75237	1.36043
4.74802	1.41276
4.74367	1.41098
4.73934	1.36955
4.73501	1.36434
4.73069	1.40792
4.72638	1.42348
4.72207	1.46815
4.71777	1.45373
4.71348	1.36735
4.7092	1.35959
4.70493	1.32909
4.70066	1.34125
4.69641	1.38533
4.69216	1.48482
4.68791	1.49239
4.68368	1.41847
4.67945	1.41469
4.67523	1.43424
4.67102	1.39872
4.66682	1.35443
4.66262	1.42151
4.65843	1.42711
4.65425	1.42944
4.65007	1.46044
4.64591	1.43836
4.64175	1.4205
4.6376	1.37838
4.63345	1.3569
4.62932	1.32219
4.62519	1.31781
4.62106	1.41529
4.61695	1.41048
4.61284	1.36733
4.60874	1.40916
4.60465	1.43751
4.60056	1.44962
4.59648	1.458
4.59241	1.44085
4.58835	1.42275
4.58429	1.37885
4.58024	1.31714
4.5762	1.39194
4.57216	1.43716
4.56814	1.41377
4.56411	1.33769
4.5601	1.30344
4.55609	1.34097
4.55209	1.33977
4.5481	1.34235
4.54411	1.32952
4.54013	1.36562
4.53616	1.42078
4.5322	1.4454
4.52824	1.43443
4.52429	1.34779
4.52034	1.31093
4.51641	1.3796
4.51247	1.39001
4.50855	1.38886
4.50463	1.39467
4.50072	1.41769
4.49682	1.43833
4.49292	1.44444
4.48903	1.4287
4.48515	1.41378
4.48127	1.43717
4.4774	1.50303
4.47354	1.47976
4.46968	1.42079
4.46584	1.43176
4.46199	1.45314
4.45815	1.45531
4.45432	1.38711
4.4505	1.37685
4.44668	1.41766
4.44287	1.46409
4.43907	1.44682
4.43527	1.42875
4.43148	1.50301
4.4277	1.58399
4.42392	1.53414
4.42015	1.4226
4.41638	1.40742
4.41262	1.43573
4.40887	1.41742
4.40513	1.39103
4.40139	1.40967
4.39765	1.43467
4.39393	1.36876
4.39021	1.35247
4.38649	1.41615
4.38278	1.48138
4.37908	1.53019
4.37539	1.57522
4.3717	1.56742
4.36801	1.58863
4.36434	1.53938
4.36067	1.52944
4.357	1.55341
4.35335	1.51018
4.34969	1.54962
4.34605	1.55029
4.34241	1.47917
4.33877	1.43782
4.33514	1.43994
4.33152	1.47895
4.32791	1.59501
4.3243	1.63899
4.32069	1.56184
4.3171	1.48628
4.31351	1.48216
4.30992	1.4942
4.30634	1.56092
4.30277	1.59231
4.2992	1.52334
4.29564	1.55353
4.29208	1.64288
4.28853	1.54245
4.28499	1.4571
4.28145	1.48002
4.27792	1.61511
4.27439	1.66013
4.27087	1.5656
4.26735	1.42739
4.26384	1.47373
4.26034	1.56705
4.25684	1.58993
4.25335	1.53985
4.24986	1.58542
4.24638	1.54274
4.24291	1.4561
4.23944	1.46017
4.23598	1.48349
4.23252	1.45574
4.22906	1.3754
4.22562	1.36235
4.22218	1.41368
4.21874	1.41462
4.21531	1.41967
4.21189	1.38482
4.20847	1.35798
4.20506	1.3972
4.20165	1.40992
4.19825	1.3685
4.19485	1.43185
4.19146	1.47288
4.18807	1.41871
4.18469	1.33375
4.18132	1.38782
4.17795	1.45531
4.17458	1.39168
4.17123	1.32015
4.16787	1.37359
4.16453	1.38022
4.16118	1.44153
4.15785	1.47056
4.15451	1.44617
4.15119	1.43309
4.14787	1.45275
4.14455	1.51334
4.14124	1.60002
4.13794	1.49568
4.13464	1.43041
4.13134	1.48688
4.12805	1.56477
4.12477	1.5731
4.12149	1.52815
4.11822	1.48036
4.11495	1.49536
4.11168	1.61641
4.10843	1.6736
4.10517	1.64062
4.10192	1.58304
4.09868	1.58859
4.09545	1.57216
4.09221	1.52706
4.08899	1.56902
4.08576	1.61333
4.08255	1.65512
4.07933	1.65207
4.07613	1.64601
4.07292	1.62319
4.06973	1.5495
4.06654	1.53936
4.06335	1.55112
4.06017	1.54909
4.05699	1.65693
4.05382	1.69774
4.05065	1.59092
4.04749	1.56988
4.04433	1.56806
4.04118	1.61615
4.03803	1.59896
4.03489	1.4868
4.03175	1.47708
4.02862	1.49838
4.02549	1.4826
4.02237	1.46857
4.01925	1.45312
4.01614	1.52585
4.01303	1.57033
4.00993	1.58695
4.00683	1.5589
4.00373	1.5043
4.00064	1.48703
3.99756	1.46714
3.99448	1.49487
3.9914	1.5535
3.98833	1.58463
3.98527	1.55327
3.98221	1.511
3.97915	1.51591
3.9761	1.56895
3.97305	1.46369
3.97001	1.42447
3.96697	1.48173
3.96394	1.48526
3.96091	1.44645
3.95789	1.50633
3.95487	1.55705
3.95186	1.51452
3.94885	1.46008
3.94584	1.58576
3.94284	1.61936
3.93984	1.58311
3.93685	1.62516
3.93386	1.54308
3.93088	1.48715
3.9279	1.61044
3.92493	1.59137
3.92196	1.51464
3.919	1.53442
3.91604	1.56774
3.91308	1.56121
3.91013	1.51167
3.90718	1.55303
3.90424	1.66017
3.9013	1.69003
3.89837	1.63276
3.89544	1.61697
3.89252	1.6224
3.8896	1.66958
3.88668	1.69138
3.88377	1.67656
3.88086	1.72075
3.87796	1.62018
3.87506	1.54434
3.87217	1.57877
3.86928	1.70833
3.86639	1.72926
3.86351	1.67011
3.86064	1.64033
3.85776	1.69122
3.8549	1.7034
3.85203	1.7424
3.84917	1.74994
3.84631	1.67947
3.84346	1.63103
3.84062	1.6203
3.83777	1.72004
3.83494	1.70065
3.8321	1.64934
3.82927	1.71026
3.82644	1.7667
3.82362	1.70023
3.82081	1.68056
3.81799	1.7225
3.81518	1.77261
3.81238	1.77586
3.80958	1.69203
3.80678	1.59768
3.80399	1.60047
3.8012	1.62496
3.79841	1.62924
3.79563	1.58077
3.79286	1.6237
3.79008	1.68485
3.78731	1.65612
3.78455	1.61955
3.78179	1.60706
3.77903	1.55844
3.77628	1.63944
3.77353	1.72148
3.77079	1.68951
3.76805	1.6258
3.76531	1.59771
3.76258	1.62914
3.75985	1.73357
3.75713	1.75544
3.7544	1.78938
3.75169	1.73106
3.74898	1.66012
3.74627	1.65212
3.74356	1.64804
3.74086	1.68126
3.73816	1.71868
3.73547	1.70064
3.73278	1.6365
3.7301	1.5965
3.72741	1.58388
3.72474	1.69506
3.72206	1.79989
3.71939	1.76677
3.71673	1.69769
3.71406	1.76476
3.71141	1.73878
3.70875	1.68291
3.7061	1.69277
3.70345	1.7113
3.70081	1.73416
3.69817	1.73666
3.69553	1.74854
3.6929	1.77201
3.69027	1.74389
3.68765	1.75683
3.68503	1.76833
3.68241	1.72941
3.6798	1.697
3.67719	1.71343
3.67458	1.75943
3.67198	1.7018
3.66938	1.70837
3.66678	1.84893
3.66419	1.83052
3.66161	1.69388
3.65902	1.70937
3.65644	1.74263
3.65387	1.67219
3.65129	1.74347
3.64872	1.76441
3.64616	1.68034
3.64359	1.68162
3.64103	1.73807
3.63848	1.71192
3.63593	1.6952
3.63338	1.69594
3.63084	1.71903
3.6283	1.71531
3.62576	1.72893
3.62322	1.75502
3.62069	1.73456
3.61817	1.66328
3.61564	1.66062
3.61312	1.67655
3.61061	1.6588
3.6081	1.69838
3.60559	1.6991
3.60308	1.63215
3.60058	1.70759
3.59808	1.75449
3.59558	1.6915
3.59309	1.70599
3.59061	1.77439
3.58812	1.68812
3.58564	1.63141
3.58316	1.68474
3.58069	1.60122
3.57822	1.62323
3.57575	1.61959
3.57328	1.57097
3.57082	1.68412
3.56836	1.68372
3.56591	1.63065
3.56346	1.6062
3.56101	1.56199
3.55857	1.57078
3.55613	1.6007
3.55369	1.68991
3.55126	1.7231
3.54883	1.76641
3.5464	1.78326
3.54397	1.72874
3.54155	1.58129
3.53914	1.55792
3.53672	1.61164
3.53431	1.59703
3.5319	1.57495
3.5295	1.60557
3.5271	1.54001
3.5247	1.60235
3.52231	1.65495
3.51991	1.61687
3.51753	1.63347
3.51514	1.63405
3.51276	1.62239
3.51038	1.53063
3.50801	1.46566
3.50563	1.54283
3.50327	1.63156
3.5009	1.67849
3.49854	1.61358
3.49618	1.53643
3.49382	1.54141
3.49147	1.58322
3.48912	1.61501
3.48677	1.61705
3.48443	1.61886
3.48209	1.5456
3.47975	1.44375
3.47742	1.443
3.47509	1.58061
3.47276	1.6444
3.47044	1.53703
3.46812	1.48136
3.4658	1.44367
3.46348	1.43651
3.46117	1.51594
3.45886	1.5895
3.45656	1.53939
3.45425	1.44925
3.45195	1.4509
3.44966	1.49168
3.44736	1.58465
3.44507	1.62269
3.44279	1.59705
3.4405	1.63149
3.43822	1.70104
3.43594	1.60047
3.43367	1.61135
3.43139	1.62424
3.42912	1.58309
3.42686	1.56055
3.42459	1.50869
3.42233	1.53174
3.42007	1.56111
3.41782	1.56241
3.41557	1.48376
3.41332	1.4148
3.41108	1.58116
3.40883	1.67687
3.40659	1.58379
3.40435	1.5443
3.40212	1.52291
3.39989	1.40906
3.39766	1.37054
3.39544	1.49021
3.39322	1.67068
3.391	1.71698
3.38878	1.59275
3.38657	1.61639
3.38436	1.69599
3.38215	1.59182
3.37994	1.57065
3.37774	1.6601
3.37554	1.65244
3.37335	1.62317
3.37115	1.62635
3.36896	1.59309
3.36678	1.54441
3.36459	1.46326
3.36241	1.54919
3.36023	1.66388
3.35805	1.64619
3.35588	1.62493
3.35371	1.56506
3.35154	1.5627
3.34938	1.54838
3.34721	1.59676
3.34505	1.65122
3.3429	1.63724
3.34074	1.69365
3.33859	1.73687
3.33644	1.68003
3.3343	1.6604
3.33215	1.68798
3.33001	1.66706
3.32788	1.59286
3.32574	1.5625
3.32361	1.68649
3.32148	1.71777
3.31936	1.63098
3.31723	1.58892
3.31511	1.56296
3.31299	1.54338
3.31088	1.61568
3.30876	1.67105
3.30665	1.70466
3.30455	1.67129
3.30244	1.61231
3.30034	1.64504
3.29824	1.68157
3.29614	1.65563
3.29405	1.66394
3.29196	1.73606
3.28987	1.69581
3.28778	1.61787
3.2857	1.62375
3.28362	1.70938
3.28154	1.76453
3.27946	1.6833
3.27739	1.63888
3.27532	1.66052
3.27325	1.76838
3.27119	1.76427
3.26913	1.71693
3.26707	1.75842
3.26501	1.72354
3.26295	1.69281
3.2609	1.79041
3.25885	1.77469
3.2568	1.67779
3.25476	1.76372
3.25272	1.74755
3.25068	1.68964
3.24864	1.72573
3.24661	1.78483
3.24458	1.84158
3.24255	1.83719
3.24052	1.80754
3.2385	1.77855
3.23648	1.85183
3.23446	1.95393
3.23244	1.95555
3.23043	1.90304
3.22841	1.88492
3.2264	1.91499
3.2244	1.9068
3.22239	1.94699
3.22039	1.93569
3.21839	1.78371
3.2164	1.76667
3.2144	1.85534
3.21241	1.9447
3.21042	1.94115
3.20844	1.84998
3.20645	1.81986
3.20447	1.85562
3.20249	1.94668
3.20051	1.95127
3.19854	1.87196
3.19657	1.90035
3.1946	1.80806
3.19263	1.70355
3.19067	1.77712
3.1887	1.77994
3.18674	1.72626
3.18479	1.74021
3.18283	1.69292
3.18088	1.643
3.17893	1.63363
3.17698	1.73378
3.17504	1.7678
3.17309	1.63876
3.17115	1.64638
3.16921	1.70489
3.16728	1.69463
3.16534	1.58868
3.16341	1.52301
3.16148	1.54803
3.15956	1.68491
3.15763	1.68095
3.15571	1.63405
3.15379	1.69562
3.15187	1.70256
3.14996	1.61332
3.14805	1.52125
3.14614	1.46586
3.14423	1.50971
3.14232	1.58531
3.14042	1.66452
3.13852	1.70356
3.13662	1.78023
3.13472	1.81082
3.13283	1.72428
3.13094	1.59833
3.12905	1.70483
3.12716	1.79364
3.12528	1.70801
3.12339	1.69714
3.12151	1.66392
3.11964	1.62076
3.11776	1.64951
3.11589	1.70176
3.11401	1.68809
3.11214	1.65475
3.11028	1.58717
3.10841	1.47912
3.10655	1.59673
3.10469	1.7511
3.10283	1.65089
3.10098	1.45324
3.09912	1.40731
3.09727	1.62464
3.09542	1.57647
3.09358	1.45015
3.09173	1.47517
3.08989	1.45492
3.08805	1.53797
3.08621	1.64108
3.08437	1.609
3.08254	1.49005
3.08071	1.48526
3.07888	1.54999
3.07705	1.49441
3.07523	1.50193
3.0734	1.55483
3.07158	1.53299
3.06977	1.45886
3.06795	1.49059
3.06613	1.50412
3.06432	1.40877
3.06251	1.50694
3.0607	1.59172
3.0589	1.55726
3.0571	1.52396
3.05529	1.53158
3.05349	1.51006
3.0517	1.47175
3.0499	1.51144
3.04811	1.5502
3.04632	1.56214
3.04453	1.56634
3.04274	1.54963
3.04096	1.55073
3.03918	1.5234
3.0374	1.4832
3.03562	1.43935
3.03384	1.39549
3.03207	1.41406
3.03029	1.45405
3.02852	1.47748
3.02676	1.45076
3.02499	1.44815
3.02323	1.4001
3.02146	1.34497
3.0197	1.41222
3.01795	1.40052
3.01619	1.41728
3.01444	1.42313
3.01269	1.48351
3.01094	1.49032
3.00919	1.32534
3.00744	1.25999
3.0057	1.30261
3.00396	1.27821
3.00222	1.26691
3.00048	1.34798
2.99875	1.35194
2.99701	1.42093
2.99528	1.5275
2.99355	1.51136
2.99183	1.38202
2.9901	1.4009
2.98838	1.42368
2.98666	1.40792
2.98494	1.42834
2.98322	1.40345
2.9815	1.48352
2.97979	1.5432
2.97808	1.55151
2.97637	1.45561
2.97466	1.38642
2.97295	1.419
2.97125	1.39419
2.96955	1.32229
2.96785	1.31103
2.96615	1.39619
2.96446	1.42184
2.96276	1.35442
2.96107	1.39232
2.95938	1.48043
2.95769	1.39583
2.95601	1.36765
2.95432	1.36571
2.95264	1.34621
2.95096	1.34924
2.94928	1.26537
2.9476	1.22186
2.94593	1.4031
2.94425	1.51742
2.94258	1.54662
2.94092	1.47948
2.93925	1.53056
2.93758	1.48136
2.93592	1.43818
2.93426	1.44448
2.9326	1.42134
2.93094	1.54722
2.92928	1.58935
2.92763	1.50523
2.92598	1.43535
2.92433	1.36191
2.92268	1.43379
2.92103	1.5493
2.91939	1.43773
2.91775	1.36627
2.9161	1.24006
2.91447	1.10445
2.91283	1.09608
2.91119	1.05556
2.90956	1.15132
2.90793	1.23599
2.9063	1.25087
2.90467	1.31802
2.90304	1.37592
2.90142	1.21759
2.89979	1.0874
2.89817	1.05186
2.89656	1.02611
2.89494	1.07326
2.89332	1.13748
2.89171	1.01937
2.8901	0.917798
2.88849	1.07379
2.88688	1.06438
2.88527	1.04192
2.88367	1.04148
2.88206	1.03243
2.88046	1.03233
2.87886	0.894794
2.87727	0.867378
2.87567	0.902977
2.87408	0.987539
2.87248	1.03848
2.87089	0.944926
2.8693	1.02446
2.86772	1.07485
2.86613	1.08047
2.86455	1.11653
2.86297	1.07628
2.86139	1.00086
2.85981	0.919113
2.85823	0.936236
2.85666	1.0272
2.85508	1.02288
2.85351	0.936419
2.85194	0.955294
2.85038	1.04259
2.84881	0.877372
2.84724	0.749228
2.84568	0.905357
2.84412	0.979957
2.84256	0.870425
2.841	0.832417
2.83945	0.861631
2.83789	0.899987
2.83634	0.982924
2.83479	1.06955
2.83324	0.997927
2.83169	0.913419
2.83015	0.86082
2.82861	0.697759
2.82706	0.589947
2.82552	0.679902
2.82398	0.766255
2.82245	0.627126
2.82091	0.494618
2.81938	0.627812
2.81784	0.788815
2.81631	0.83862
2.81479	0.71416
2.81326	0.743734
2.81173	0.743019
2.81021	0.624727
2.80869	0.765974
2.80716	0.94136
2.80565	0.894164
2.80413	0.947804
2.80261	1.00455
2.8011	0.814835
2.79959	0.719725
2.79808	0.853172
2.79657	0.895691
2.79506	0.909043
2.79355	0.906707
2.79205	0.992854
2.79055	1.08493
2.78904	1.03528
2.78754	1.05257
2.78605	1.2
2.78455	1.37413
2.78306	1.44725
2.78156	1.55766
2.78007	1.65869
2.77858	1.49699
2.77709	1.28307
2.77561	1.05343
2.77412	0.907345
2.77264	0.658546
2.77116	0.495785
2.76968	0.414118
2.7682	0.278886
2.76672	0.39852
2.76524	0.467494
2.76377	0.462899
2.7623	0.584371
2.76083	0.844812
2.75936	0.910913
2.75789	0.843885
2.75642	0.690644
2.75496	0.689609
2.7535	0.664211
2.75203	0.621588
2.75057	0.82412
2.74912	0.620415
2.74766	0.421008
2.7462	0.566489
2.74475	0.716277
2.7433	0.759639
2.74185	0.817383
2.7404	0.812425
2.73895	0.862742
2.7375	0.999026
2.73606	1.07265
2.73462	0.894267
2.73318	0.80572
2.73174	0.922041
2.7303	0.883107
2.72886	0.928051
2.72742	1.04759
2.72599	1.21775
2.72456	1.2977
2.72313	1.20556
2.7217	1.28605
2.72027	1.45382
2.71884	1.38839
2.71742	1.45347
2.71599	1.49838
2.71457	1.51656
2.71315	1.54467
2.71173	1.61079
2.71032	1.6803
2.7089	1.73133
2.70748	1.85435
2.70607	2.10157
2.70466	2.13455
2.70325	2.12108
2.70184	2.22565
2.70043	2.36076
2.69903	2.48589
2.69762	2.56767
2.69622	2.63362
2.69482	2.74751
2.69342	2.85917
2.69202	3.04427
2.69062	3.06267
2.68923	3.05101
2.68783	3.20597
2.68644	3.38586
2.68505	3.63229
2.68366	3.7795
2.68227	3.95996
2.68089	4.07446
2.6795	4.02159
2.67812	4.09646
2.67673	4.28515
2.67535	4.45118
2.67397	4.56464
2.6726	4.70654
2.67122	4.91782
2.66984	5.00721
2.66847	5.07384
2.6671	5.25568
2.66572	5.28202
2.66435	5.26879
2.66299	5.41775
2.66162	5.6314
2.66025	5.73541
2.65889	5.77396
2.65753	5.91959
2.65616	5.96851
2.65481	6.06406
2.65345	6.21608
2.65209	6.31957
2.65073	6.40647
2.64938	6.42463
2.64803	6.47053
2.64667	6.68764
2.64532	6.76392
2.64397	6.8644
2.64263	7.0064
2.64128	6.96486
2.63994	7.03547
2.63859	7.21062
2.63725	7.36596
2.63591	7.32446
2.63457	7.41905
2.63323	7.72587
2.6319	7.87586
2.63056	7.98919
2.62923	8.07076
2.62789	8.04822
2.62656	8.10848
2.62523	8.26537
2.6239	8.44629
2.62258	8.45199
2.62125	8.58349
2.61993	8.81968
2.6186	8.8317
2.61728	8.96969
2.61596	8.99275
2.61464	8.89514
2.61332	8.98327
2.61201	8.95668
2.61069	8.93707
2.60938	8.95503
2.60807	9.01894
2.60675	9.04315
2.60544	9.08006
2.60414	9.11341
2.60283	9.20108
2.60152	9.18106
2.60022	9.1184
2.59891	9.16035
2.59761	9.22804
2.59631	9.19752
2.59501	9.30491
2.59371	9.28063
2.59242	9.1183
2.59112	9.03036
2.58983	9.0769
2.58853	9.11493
2.58724	9.14854
2.58595	9.26348
2.58466	9.3984
2.58338	9.53396
2.58209	9.52305
2.5808	9.513
2.57952	9.55991
2.57824	9.60579
2.57695	9.646
2.57567	9.77573
2.5744	9.81099
2.57312	9.65417
2.57184	9.60788
2.57057	9.72766
2.56929	9.79234
2.56802	9.85914
2.56675	9.80887
2.56548	9.88011
2.56421	10.0194
2.56294	9.84492
2.56168	9.68878
2.56041	9.76654
2.55915	9.71874
2.55789	9.5418
2.55662	9.47058
2.55536	9.38706
2.5541	9.33259
2.55285	9.33104
2.55159	9.33032
2.55034	9.28337
2.54908	9.2374
2.54783	9.08392
2.54658	9.05007
2.54533	9.0886
2.54408	9.02579
2.54283	9.10517
2.54159	9.1177
2.54034	9.02194
2.5391	8.94645
2.53785	8.79565
2.53661	8.7123
2.53537	8.77046
2.53413	8.84209
2.53289	8.75653
2.53166	8.56292
2.53042	8.50488
2.52919	8.47924
2.52795	8.5175
2.52672	8.45678
2.52549	8.5508
2.52426	8.68382
2.52303	8.65473
2.52181	8.59704
2.52058	8.58588
2.51936	8.64552
2.51813	8.59764
2.51691	8.56635
2.51569	8.47438
2.51447	8.31679
2.51325	8.31374
2.51203	8.155
2.51082	8.16706
2.5096	8.27702
2.50839	8.22366
2.50717	8.02301
2.50596	7.88858
2.50475	8.12389
2.50354	8.19031
2.50233	8.05846
2.50113	7.94694
2.49992	7.81582
2.49872	7.84439
2.49751	7.8154
2.49631	7.83586
2.49511	7.85613
2.49391	7.7967
2.49271	7.74941
2.49151	7.74888
2.49031	7.79535
2.48912	7.82622
2.48792	7.73129
2.48673	7.64287
2.48554	7.63695
2.48435	7.61385
2.48316	7.53236
2.48197	7.5604
2.48078	7.50405
2.4796	7.54561
2.47841	7.60981
2.47723	7.6377
2.47604	7.68062
2.47486	7.72524
2.47368	7.77433
2.4725	7.73611
2.47132	7.69122
2.47014	7.90755
2.46897	7.94259
2.46779	7.86236
2.46662	8.02596
2.46545	8.11605
2.46427	8.09325
2.4631	8.16004
2.46193	8.20633
2.46077	8.17291
2.4596	8.308
2.45843	8.45444
2.45727	8.65427
2.4561	8.7993
2.45494	8.86465
2.45378	8.90567
2.45262	9.07847
2.45146	9.25322
2.4503	9.37507
2.44914	9.50079
2.44799	9.46027
2.44683	9.4945
2.44568	9.70632
2.44452	10.0189
2.44337	10.2354
2.44222	10.344
2.44107	10.3628
2.43992	10.3671
2.43877	10.5387
2.43763	10.6216
2.43648	10.7014
2.43534	10.7144
2.43419	10.6568
2.43305	10.8003
2.43191	10.9852
2.43077	10.9905
2.42963	11.0222
2.42849	11.1598
2.42736	11.2624
2.42622	11.3982
2.42509	11.4621
2.42395	11.4133
2.42282	11.3992
2.42169	11.4547
2.42056	11.6624
2.41943	11.7958
2.4183	11.8565
2.41717	11.8045
2.41605	11.9949
2.41492	12.2435
2.4138	12.287
2.41267	12.35
2.41155	12.3807
2.41043	12.4893
2.40931	12.5931
2.40819	12.6713
2.40707	12.8631
2.40595	12.9602
2.40484	12.9678
2.40372	13.0262
2.40261	13.0956
2.4015	13.3736
2.40039	13.5949
2.39928	13.6422
2.39817	13.7602
2.39706	13.9328
2.39595	14.0626
2.39484	14.1761
2.39374	14.3707
2.39263	14.4282
2.39153	14.5578
2.39043	14.7811
2.38932	14.8877
2.38822	15.1439
2.38712	15.3265
2.38603	15.3605
2.38493	15.5257
2.38383	15.6335
2.38274	15.7622
2.38164	16.0945
2.38055	16.2663
2.37946	16.2937
2.37836	16.2755
2.37727	16.4123
2.37618	16.6761
2.3751	16.8703
2.37401	16.9952
2.37292	17.0878
2.37184	17.2124
2.37075	17.4382
2.36967	17.6443
2.36859	17.8832
2.3675	18.0738
2.36642	18.0523
2.36534	18.049
2.36427	18.1967
2.36319	18.4826
2.36211	18.5998
2.36104	18.6288
2.35996	18.8098
2.35889	19.0269
2.35781	19.0604
2.35674	19.1786
2.35567	19.3987
2.3546	19.5918
2.35353	19.7829
2.35247	19.9831
2.3514	20.0543
2.35033	20.1622
2.34927	20.4031
2.3482	20.4933
2.34714	20.5203
2.34608	20.5901
2.34502	20.67
2.34396	20.8335
2.3429	21.0426
2.34184	21.0456
2.34078	21.0952
2.33973	21.3361
2.33867	21.324
2.33762	21.2991
2.33656	21.3389
2.33551	21.3449
2.33446	21.5476
2.33341	21.6844
2.33236	21.6937
2.33131	21.6864
2.33026	21.669
2.32922	21.81
2.32817	21.8724
2.32712	21.8267
2.32608	21.8656
2.32504	22.0111
2.324	22.0687
2.32295	21.9325
2.32191	21.9119
2.32087	22.0244
2.31984	22.145
2.3188	22.1371
2.31776	22.0929
2.31673	22.2062
2.31569	22.2055
2.31466	22.2813
2.31362	22.4674
2.31259	22.5991
2.31156	22.7524
2.31053	22.9321
2.3095	22.9856
2.30847	23.0536
2.30745	22.995
2.30642	23.1244
2.3054	23.2117
2.30437	23.171
2.30335	23.1991
2.30232	23.2675
2.3013	23.3176
2.30028	23.2656
2.29926	23.2126
2.29824	23.2636
2.29722	23.3821
2.29621	23.5286
2.29519	23.4199
2.29417	23.3058
2.29316	23.3944
2.29215	23.5767
2.29113	23.6331
2.29012	23.5512
2.28911	23.5768
2.2881	23.5577
2.28709	23.4784
2.28608	23.4061
2.28507	23.3585
2.28407	23.2156
2.28306	23.0985
2.28206	23.3076
2.28105	23.4277
2.28005	23.2374
2.27905	23.1896
2.27805	23.0839
2.27705	22.963
2.27605	22.9459
2.27505	22.8961
2.27405	22.9968
2.27305	23.0454
2.27206	22.8897
2.27106	22.6172
2.27007	22.55
2.26907	22.536
2.26808	22.4107
2.26709	22.3762
2.2661	22.4049
2.26511	22.2864
2.26412	22.0571
2.26313	21.8146
2.26214	21.6489
2.26116	21.6098
2.26017	21.3892
2.25919	21.1655
2.2582	20.9161
2.25722	20.7817
2.25624	20.6966
2.25526	20.5975
2.25428	20.3977
2.2533	20.1022
2.25232	19.9699
2.25134	19.7578
2.25036	19.4849
2.24939	19.4507
2.24841	19.3677
2.24744	19.1942
2.24646	18.9857
2.24549	18.9138
2.24452	18.9416
2.24355	19.1011
2.24257	19.1217
2.24161	19.0091
2.24064	18.939
2.23967	18.9299
2.2387	18.8327
2.23774	18.8673
2.23677	19.046
2.23581	19.2411
2.23484	19.303
2.23388	19.1085
2.23292	19.0058
2.23196	19.129
2.231	18.9876
2.23004	19.0287
2.22908	19.2122
2.22812	19.1827
2.22716	19.0834
2.22621	19.0873
2.22525	19.0812
2.2243	18.9116
2.22334	18.8479
2.22239	18.8626
2.22144	18.9145
2.22049	18.9495
2.21953	18.8878
2.21859	18.6906
2.21764	18.4231
2.21669	18.226
2.21574	18.1135
2.21479	18.0528
2.21385	17.9459
2.2129	17.8365
2.21196	17.824
2.21102	17.9144
2.21007	17.8368
2.20913	17.6266
2.20819	17.5373
2.20725	17.5647
2.20631	17.5572
2.20537	17.2818
2.20444	16.8872
2.2035	16.7875
2.20256	16.8944
2.20163	16.734
2.20069	16.6784
2.19976	16.5426
2.19883	16.3283
2.19789	16.2694
2.19696	16.2398
2.19603	15.8971
2.1951	15.7826
2.19417	15.6307
2.19325	15.3037
2.19232	15.2105
2.19139	15.1406
2.19047	14.9181
2.18954	14.7897
2.18862	14.6148
2.18769	14.4381
2.18677	14.1642
2.18585	13.7166
2.18493	13.5539
2.18401	13.5248
2.18309	13.4808
2.18217	13.5188
2.18125	13.37
2.18033	13.2162
2.17942	13.1822
2.1785	13.0607
2.17759	12.9673
2.17667	12.8248
2.17576	12.5668
2.17485	12.4995
2.17393	12.4645
2.17302	12.5597
2.17211	12.5433
2.1712	12.681
2.17029	12.8785
2.16939	12.7789
2.16848	12.5476
2.16757	12.7451
2.16667	12.8433
2.16576	12.7524
2.16486	12.8332
2.16395	12.9251
2.16305	12.8199
2.16215	12.9732
2.16125	12.9862
2.16035	12.884
2.15945	13.1607
2.15855	13.4608
2.15765	13.4511
2.15675	13.5619
2.15586	13.7151
2.15496	13.806
2.15406	13.8132
2.15317	13.8554
2.15228	14.0425
2.15138	14.082
2.15049	14.2145
2.1496	14.3981
2.14871	14.3616
2.14782	14.3121
2.14693	14.4855
2.14604	14.7142
2.14515	14.7646
2.14427	14.7648
2.14338	14.7793
2.14249	14.6221
2.14161	14.4316
2.14072	14.3251
2.13984	14.4538
2.13896	14.6676
2.13808	14.6217
2.13719	14.5319
2.13631	14.4105
2.13543	14.2307
2.13455	14.1399
2.13368	14.1589
2.1328	14.0256
2.13192	13.7651
2.13105	13.5573
2.13017	13.5868
2.1293	13.5322
2.12842	13.3144
2.12755	13.3285
2.12668	13.2789
2.1258	12.9795
2.12493	13.007
2.12406	13.1314
2.12319	13.1719
2.12232	13.1426
2.12145	13.1908
2.12059	13.223
2.11972	13.2997
2.11885	13.4455
2.11799	13.6367
2.11712	13.6267
2.11626	13.5621
2.1154	13.7086
2.11453	13.8561
2.11367	13.9631
2.11281	13.9766
2.11195	14.2346
2.11109	14.4292
2.11023	14.5171
2.10937	14.672
2.10851	14.6775
2.10766	14.6525
2.1068	14.8808
2.10594	15.0321
2.10509	15.3704
2.10423	15.5527
2.10338	15.4799
2.10253	15.2497
2.10168	15.227
2.10082	15.408
2.09997	15.509
2.09912	15.5854
2.09827	15.607
2.09742	15.8145
2.09658	15.9636
2.09573	15.7716
2.09488	15.8656
2.09404	16.1768
2.09319	16.2421
2.09235	16.0849
2.0915	16.1979
2.09066	16.1605
2.08982	16.0667
2.08897	16.3335
2.08813	16.5565
2.08729	16.5344
2.08645	16.5718
2.08561	16.4901
2.08477	16.5914
2.08394	16.6356
2.0831	16.8431
2.08226	17.1641
2.08143	16.8123
2.08059	16.5645
2.07976	16.307
2.07892	16.1872
2.07809	16.0842
2.07726	16.495
2.07643	17.1114
2.07559	16.9203
2.07476	16.417
2.07393	16.336
2.0731	16.8822
2.07228	17.3126
2.07145	16.7856
2.07062	16.4411
2.06979	16.7335
2.06897	17.0548
2.06814	17.341
2.06732	17.31
2.06649	17.2643
2.06567	17.1801
2.06485	17.1403
2.06403	17.19
2.0632	17.243
2.06238	17.3783
2.06156	17.645
2.06074	17.5729
2.05993	17.2812
2.05911	17.2662
2.05829	17.4302
2.05747	17.4796
2.05666	17.5146
2.05584	17.7337
2.05503	17.8502
2.05421	17.87
2.0534	17.648
2.05259	17.3022
2.05177	17.6189
2.05096	17.7756
2.05015	17.4395
2.04934	17.2812
2.04853	17.3235
2.04772	17.5923
2.04691	17.5278
2.04611	17.5496
2.0453	17.7674
2.04449	17.8132
2.04369	17.6556
2.04288	17.6842
2.04208	17.8653
2.04127	17.8198
2.04047	17.6043
2.03967	17.6358
2.03886	17.572
2.03806	17.4086
2.03726	17.14
2.03646	17.1884
2.03566	17.3906
2.03486	17.5346
2.03407	17.6822
2.03327	17.6843
2.03247	17.5095
2.03167	17.6003
2.03088	17.8877
2.03008	17.736
2.02929	17.5912
2.0285	17.5575
2.0277	17.5836
2.02691	17.7519
2.02612	17.549
2.02533	17.4237
2.02453	17.3573
2.02374	17.3068
2.02295	17.4429
2.02217	17.3387
2.02138	17.2467
2.02059	17.1324
2.0198	17.0199
2.01902	17.1084
2.01823	17.2684
2.01744	17.1274
2.01666	16.8801
2.01588	16.7551
2.01509	16.7236
2.01431	16.93
2.01353	16.8545
2.01275	16.514
2.01196	16.593
2.01118	16.68
2.0104	16.5012
2.00963	16.427
2.00885	16.3452
2.00807	16.102
2.00729	16.1066
2.00651	16.148
2.00574	15.8404
2.00496	15.7793
2.00419	15.8376
2.00341	15.7625
2.00264	15.5724
2.00187	15.4428
2.00109	15.1758
2.00032	14.925
