Name: Amblygonite (Li,Na)Al(PO_4)(F,OH)
Type: Mineral
Class: Phosphates
Subclass: 
Particle Size: 125-500um
Sample No.: P-3A
Owner: JPL
Wavelength range: IR
Origin: USA, California, San Diego County, Pala
Collected by Burminco
Description: 





Measurement: Hemispherical reflectance
First Column: X
Second Column: Y
X Units:  Wavelength (micrometers)
Y Units:  Reflectance (percent)
First X Value: 15.3853
Last X Value: 2.00032
Number of X Values: 2256
Additional information: p03aa.txt
 
15.3853	7.79401
15.3397	7.4786
15.2945	7.37331
15.2495	7.27583
15.2048	7.25019
15.1603	7.24496
15.1161	7.19879
15.0722	7.17472
15.0285	7.35131
14.9851	7.65792
14.9419	7.606
14.8989	7.3881
14.8563	6.94696
14.8138	6.41445
14.7716	6.00191
14.7296	5.46038
14.6879	4.73149
14.6464	4.07058
14.6052	3.66782
14.5641	3.17676
14.5233	2.66703
14.4828	2.09789
14.4424	1.8593
14.4023	1.64213
14.3624	1.34472
14.3227	1.23541
14.2833	1.11583
14.244	0.971693
14.205	0.78168
14.1662	0.767288
14.1276	0.687585
14.0892	0.531908
14.051	0.582418
14.0131	0.749975
13.9753	0.844149
13.9377	0.804378
13.9004	0.692758
13.8632	0.664023
13.8262	0.977816
13.7895	1.21238
13.7529	1.05465
13.7165	0.777722
13.6803	0.882112
13.6443	0.954587
13.6085	0.899462
13.5729	0.943443
13.5374	0.921635
13.5022	0.953996
13.4671	1.09498
13.4322	1.43679
13.3975	1.35054
13.363	1.21319
13.3286	1.23846
13.2944	1.17596
13.2604	1.19016
13.2266	1.35488
13.193	1.72146
13.1595	1.83121
13.1262	1.77078
13.093	1.88248
13.06	2.12137
13.0272	2.0969
12.9946	2.03479
12.9621	2.07957
12.9298	1.99887
12.8976	2.04308
12.8656	2.3246
12.8337	2.56442
12.8021	2.59647
12.7705	2.5511
12.7391	2.53537
12.7079	2.58346
12.6769	2.83862
12.6459	3.02849
12.6152	3.06225
12.5845	3.0882
12.5541	3.20004
12.5238	3.35202
12.4936	3.46791
12.4635	3.52166
12.4337	3.73362
12.4039	4.02789
12.3743	4.13612
12.3448	4.17132
12.3155	4.26723
12.2863	4.36555
12.2573	4.40773
12.2284	4.52429
12.1996	4.75422
12.171	4.96811
12.1425	5.16804
12.1141	5.30643
12.0859	5.31013
12.0578	5.20297
12.0298	5.08941
12.0019	4.82434
11.9742	4.57422
11.9466	4.23886
11.9192	3.88195
11.8918	3.5242
11.8646	3.21351
11.8375	2.88991
11.8106	2.49622
11.7837	2.06597
11.757	1.7795
11.7304	1.74861
11.7039	1.90555
11.6776	1.88897
11.6513	1.91921
11.6252	2.05917
11.5992	2.13922
11.5733	2.1289
11.5475	2.06764
11.5219	2.16941
11.4963	2.17331
11.4709	2.21651
11.4455	2.29918
11.4203	2.35245
11.3952	2.46188
11.3702	2.47592
11.3454	2.44574
11.3206	2.6627
11.2959	2.73098
11.2714	2.67519
11.2469	2.79577
11.2226	2.91746
11.1983	2.97431
11.1742	2.98763
11.1502	2.92728
11.1263	2.998
11.1024	3.1371
11.0787	3.15991
11.0551	3.11882
11.0316	3.16846
11.0081	3.25798
10.9848	3.32532
10.9616	3.43942
10.9385	3.50938
10.9154	3.37128
10.8925	3.45346
10.8697	3.72255
10.8469	3.76304
10.8243	3.77703
10.8017	3.85321
10.7793	3.96748
10.7569	3.95037
10.7346	3.83949
10.7125	3.83075
10.6904	3.95388
10.6684	4.05271
10.6465	4.2199
10.6247	4.32051
10.6029	4.25276
10.5813	4.2438
10.5597	4.46018
10.5383	4.63349
10.5169	4.65128
10.4956	4.66619
10.4744	4.79425
10.4533	4.84073
10.4323	4.7592
10.4113	4.83184
10.3904	4.90427
10.3697	5.02244
10.349	5.22386
10.3284	5.42334
10.3078	5.57083
10.2874	5.682
10.267	5.78221
10.2467	5.85811
10.2265	6.09189
10.2064	6.41927
10.1863	6.52117
10.1663	6.53984
10.1464	6.71184
10.1266	7.09292
10.1069	7.39292
10.0872	7.58153
10.0676	7.86898
10.0481	8.18224
10.0287	8.55902
10.0093	8.89492
9.99005	9.0998
9.97084	9.40297
9.95169	9.6913
9.93263	10.115
9.91364	10.7079
9.89472	11.2561
9.87587	11.6824
9.8571	12.2081
9.83839	12.6175
9.81976	12.8164
9.80119	13.0463
9.78271	13.3528
9.76428	13.5241
9.74592	13.4486
9.72764	13.1421
9.70943	12.4872
9.69128	11.7649
9.6732	10.9238
9.65518	10.0548
9.63724	9.3463
9.61935	8.94335
9.60155	8.79747
9.5838	8.93828
9.56611	9.29873
9.5485	9.72524
9.53094	10.1468
9.51345	10.7476
9.49604	11.5485
9.47867	12.3482
9.46137	13.1239
9.44414	14.1198
9.42697	15.3027
9.40986	16.4006
9.39281	17.478
9.37583	18.7761
9.35891	19.9749
9.34204	21.0372
9.32524	22.0754
9.3085	23.0738
9.29182	24.2238
9.27519	25.4326
9.25863	26.4915
9.24213	27.4603
9.22568	28.5516
9.2093	29.6355
9.19297	30.5163
9.17669	31.3975
9.16048	32.252
9.14433	33.0567
9.12823	33.7456
9.11218	34.3424
9.0962	34.7478
9.08027	34.9873
9.06439	35.1437
9.04858	35.2661
9.03281	35.3124
9.0171	35.0905
9.00145	34.8009
8.98585	34.572
8.9703	34.2595
8.9548	33.9462
8.93937	33.8296
8.92398	33.7305
8.90865	33.4184
8.89337	33.3113
8.87814	33.2097
8.86296	33.0174
8.84784	32.7696
8.83277	32.4635
8.81774	31.9502
8.80277	31.3106
8.78786	30.5166
8.77298	29.5433
8.75816	28.2859
8.7434	27.0153
8.72868	25.8135
8.714	24.7594
8.69938	23.9827
8.68481	23.3581
8.67029	22.8983
8.65581	22.5423
8.64139	22.2279
8.62701	22.0701
8.61268	22.0285
8.5984	21.984
8.58416	22.0414
8.56997	21.9919
8.55583	21.8317
8.54174	21.7309
8.52769	21.7218
8.51368	21.623
8.49973	21.4146
8.48582	21.058
8.47195	20.6804
8.45813	20.2538
8.44436	19.5235
8.43062	18.8495
8.41693	18.2191
8.4033	17.4434
8.3897	16.4854
8.37614	15.658
8.36264	14.9018
8.34917	14.1724
8.33574	13.6018
8.32236	13.2705
8.30903	12.9208
8.29573	12.6244
8.28248	12.4489
8.26927	12.4643
8.2561	12.3621
8.24298	12.2401
8.2299	12.0291
8.21685	11.7709
8.20385	11.4283
8.19089	10.9468
8.17797	10.2784
8.16509	9.47677
8.15225	8.54415
8.13946	7.56335
8.1267	6.55342
8.11398	5.53555
8.10131	4.64441
8.08867	3.89456
8.07606	3.28946
8.0635	2.81027
8.05099	2.38682
8.0385	1.9919
8.02606	1.7924
8.01366	1.58835
8.00129	1.35581
7.98896	1.1684
7.97667	0.976774
7.96442	0.806205
7.9522	0.647471
7.94002	0.53431
7.92788	0.545914
7.91578	0.541305
7.90371	0.543937
7.89168	0.434625
7.87969	0.330624
7.86773	0.313593
7.85581	0.287677
7.84392	0.309229
7.83207	0.30236
7.82026	0.246533
7.80849	0.20801
7.79674	0.200392
7.78503	0.279724
7.77337	0.28289
7.76173	0.176157
7.75012	0.152743
7.73856	0.232569
7.72703	0.288563
7.71553	0.29312
7.70406	0.272069
7.69263	0.253834
7.68123	0.229821
7.66987	0.257526
7.65855	0.292439
7.64725	0.257583
7.63598	0.295032
7.62475	0.350639
7.61356	0.299834
7.60239	0.234854
7.59126	0.161627
7.58017	0.186529
7.5691	0.333195
7.55806	0.295534
7.54707	0.162613
7.5361	0.243291
7.52516	0.497861
7.51425	0.571071
7.50338	0.395291
7.49253	0.319186
7.48172	0.375335
7.47094	0.426734
7.46019	0.436455
7.44947	0.385114
7.43879	0.457258
7.42813	0.510937
7.4175	0.459019
7.4069	0.482912
7.39634	0.462912
7.3858	0.418636
7.37529	0.447119
7.36482	0.484868
7.35437	0.478376
7.34396	0.58536
7.33357	0.614867
7.32321	0.566547
7.31288	0.562011
7.30258	0.64475
7.29231	0.677471
7.28207	0.686604
7.27185	0.703982
7.26167	0.629992
7.25152	0.665129
7.24139	0.782004
7.23129	0.8195
7.22122	0.841214
7.21117	0.777576
7.20116	0.763259
7.19117	0.808488
7.18121	0.824536
7.17128	0.867511
7.16137	0.885512
7.1515	0.910085
7.14164	0.825708
7.13182	0.820844
7.12203	0.912793
7.11225	0.945895
7.10251	0.863238
7.0928	0.814348
7.08311	0.853376
7.07344	0.91308
7.06381	1.02175
7.0542	1.06466
7.04461	1.04112
7.03506	0.995529
7.02552	0.938827
7.01601	0.980732
7.00653	0.981123
6.99708	0.920513
6.98765	0.898384
6.97824	0.926227
6.96886	1.00402
6.95951	1.10006
6.95018	1.11382
6.94087	1.05991
6.9316	0.973464
6.92234	1.03152
6.91311	1.11097
6.90391	1.05021
6.89473	1.01999
6.88557	1.15785
6.87644	1.24852
6.86733	1.22536
6.85824	1.18582
6.84918	1.17033
6.84015	1.25262
6.83114	1.31379
6.82215	1.22418
6.81319	1.25152
6.80424	1.24529
6.79532	1.3179
6.78643	1.34868
6.77756	1.28553
6.76871	1.30341
6.75989	1.33601
6.75109	1.32362
6.74231	1.30821
6.73355	1.39017
6.72482	1.47559
6.71611	1.53253
6.70742	1.50468
6.69875	1.43375
6.69011	1.41739
6.68149	1.47464
6.67289	1.53973
6.66431	1.44676
6.65576	1.45496
6.64722	1.59923
6.63871	1.72712
6.63022	1.65982
6.62175	1.58442
6.61331	1.64174
6.60488	1.62656
6.59648	1.53906
6.5881	1.6174
6.57974	1.76638
6.5714	1.73926
6.56308	1.64784
6.55478	1.72233
6.54651	1.76856
6.53825	1.70129
6.53001	1.67698
6.5218	1.69094
6.51361	1.75115
6.50544	1.78964
6.49729	1.8598
6.48915	1.99775
6.48104	1.98463
6.47295	1.92513
6.46488	1.86859
6.45683	1.86089
6.4488	1.83632
6.44079	1.86541
6.4328	1.94515
6.42482	1.96612
6.41687	2.06918
6.40894	2.07301
6.40103	1.97671
6.39314	1.93554
6.38526	1.94067
6.37741	1.96574
6.36957	1.94603
6.36176	1.87147
6.35396	1.90766
6.34618	2.01289
6.33843	1.89531
6.33069	1.84688
6.32297	1.82474
6.31527	1.8574
6.30758	1.88646
6.29992	1.899
6.29227	1.88527
6.28465	1.82874
6.27704	1.85125
6.26945	1.82897
6.26188	1.81107
6.25432	1.86313
6.24679	1.84463
6.23927	1.80923
6.23177	1.87702
6.22429	1.91715
6.21683	1.81208
6.20938	1.79768
6.20195	1.90065
6.19454	1.92107
6.18715	1.94717
6.17978	2.01222
6.17242	1.94981
6.16508	1.96935
6.15776	2.01341
6.15045	1.96694
6.14317	2.00138
6.1359	2.0762
6.12864	2.01409
6.12141	1.99743
6.11419	2.11203
6.10699	2.13644
6.0998	2.08409
6.09263	2.05509
6.08549	2.02087
6.07835	2.10114
6.07123	2.25079
6.06413	2.32061
6.05705	2.38409
6.04998	2.49398
6.04293	2.43093
6.0359	2.30756
6.02888	2.27063
6.02187	2.32009
6.01489	2.42544
6.00792	2.47803
6.00096	2.50985
5.99403	2.53467
5.98711	2.62818
5.9802	2.7268
5.97331	2.76849
5.96644	2.79559
5.95958	2.77531
5.95274	2.77481
5.94591	2.81423
5.9391	2.86977
5.9323	2.89956
5.92552	2.86142
5.91876	2.83861
5.91201	2.85009
5.90528	2.90794
5.89856	3.13651
5.89186	3.23975
5.88517	3.22577
5.8785	3.28502
5.87184	3.16952
5.8652	3.09459
5.85857	3.07686
5.85196	3.09774
5.84536	3.14718
5.83878	3.25389
5.83221	3.29528
5.82566	3.40812
5.81912	3.47153
5.81259	3.35099
5.80608	3.30357
5.79959	3.40028
5.79311	3.4667
5.78665	3.57477
5.78019	3.67013
5.77376	3.71423
5.76734	3.7887
5.76093	3.75694
5.75453	3.83164
5.74815	3.98055
5.74179	3.95993
5.73543	3.90164
5.7291	3.97612
5.72277	4.06591
5.71646	4.15578
5.71017	4.22449
5.70389	4.20338
5.69762	4.28763
5.69136	4.38373
5.68513	4.45205
5.6789	4.56649
5.67268	4.65599
5.66648	4.65073
5.6603	4.73415
5.65413	4.83777
5.64797	4.9029
5.64182	5.01621
5.63569	5.01084
5.62957	5.03392
5.62347	5.07127
5.61737	5.11142
5.61129	5.18639
5.60522	5.27764
5.59917	5.32836
5.59313	5.3498
5.5871	5.45389
5.58109	5.53902
5.57509	5.62294
5.5691	5.57985
5.56312	5.55685
5.55716	5.71038
5.55121	5.86399
5.54528	5.88721
5.53935	5.84545
5.53344	5.85284
5.52754	5.91368
5.52166	5.97482
5.51578	6.0452
5.50992	6.07694
5.50407	6.07192
5.49823	6.0266
5.49241	6.06873
5.4866	6.14526
5.4808	6.19099
5.47501	6.21963
5.46923	6.23596
5.46347	6.22932
5.45772	6.14669
5.45198	6.12018
5.44625	6.17124
5.44054	6.16099
5.43484	6.18718
5.42914	6.23643
5.42347	6.29365
5.4178	6.25882
5.41214	6.16049
5.4065	6.0565
5.40087	6.06162
5.39525	6.05237
5.38964	5.93279
5.38404	5.85067
5.37846	5.88367
5.37288	5.90019
5.36732	5.82968
5.36177	5.8674
5.35623	5.97845
5.35071	6.03675
5.34519	5.99984
5.33968	5.97945
5.33419	6.02676
5.32871	6.0788
5.32324	6.14261
5.31778	6.18149
5.31233	6.13696
5.30689	6.07018
5.30147	6.11827
5.29605	6.25168
5.29065	6.35699
5.28525	6.37139
5.27987	6.42636
5.2745	6.48972
5.26914	6.58321
5.26379	6.64864
5.25845	6.72528
5.25312	6.78407
5.24781	6.78872
5.2425	6.80857
5.23721	6.88997
5.23192	7.01203
5.22665	7.05785
5.22138	7.07826
5.21613	7.14014
5.21089	7.17354
5.20566	7.24688
5.20044	7.33741
5.19522	7.29599
5.19002	7.24833
5.18483	7.28675
5.17965	7.29511
5.17448	7.31662
5.16933	7.3174
5.16418	7.34085
5.15904	7.42782
5.15391	7.46779
5.14879	7.54651
5.14368	7.52498
5.13859	7.55566
5.1335	7.67776
5.12842	7.63967
5.12335	7.57097
5.1183	7.53033
5.11325	7.47041
5.10821	7.47502
5.10318	7.46507
5.09817	7.42058
5.09316	7.37116
5.08816	7.22784
5.08317	7.18658
5.07819	7.05373
5.07322	6.90072
5.06826	6.83472
5.06331	6.74953
5.05837	6.61349
5.05344	6.46861
5.04852	6.32457
5.04361	6.08253
5.03871	5.82421
5.03382	5.66176
5.02894	5.49388
5.02406	5.27536
5.0192	5.15186
5.01435	5.03949
5.0095	4.8362
5.00467	4.71343
4.99984	4.63937
4.99502	4.52087
4.99021	4.35287
4.98542	4.1716
4.98063	4.03709
4.97585	3.91811
4.97108	3.94221
4.96632	3.95644
4.96156	3.86052
4.95682	3.78383
4.95209	3.81274
4.94736	3.80635
4.94264	3.70653
4.93794	3.66475
4.93324	3.66569
4.92855	3.71928
4.92387	3.70098
4.9192	3.60165
4.91453	3.57483
4.90988	3.59106
4.90524	3.57853
4.9006	3.55847
4.89597	3.49589
4.89135	3.49061
4.88674	3.37783
4.88214	3.30822
4.87755	3.31817
4.87296	3.24743
4.86839	3.1378
4.86382	3.11898
4.85926	3.12882
4.85471	3.16373
4.85017	3.16357
4.84564	3.14892
4.84111	3.09732
4.8366	3.05815
4.83209	3.04918
4.82759	3.08338
4.8231	3.1457
4.81862	3.14263
4.81415	3.14249
4.80968	3.11615
4.80522	3.0459
4.80077	3.09495
4.79633	3.07897
4.7919	3.10462
4.78747	3.26742
4.78306	3.20094
4.77865	2.96185
4.77425	2.90372
4.76986	2.97362
4.76547	2.94527
4.7611	2.92019
4.75673	2.96957
4.75237	3.06868
4.74802	3.04192
4.74367	2.94441
4.73934	2.92735
4.73501	2.90963
4.73069	2.9327
4.72638	2.9183
4.72207	2.9022
4.71777	2.89499
4.71348	2.91352
4.7092	2.92881
4.70493	2.91744
4.70066	2.87535
4.69641	2.91587
4.69216	3.07898
4.68791	3.16681
4.68368	3.09379
4.67945	2.9859
4.67523	2.99169
4.67102	3.05022
4.66682	3.09726
4.66262	3.08314
4.65843	3.09805
4.65425	3.1401
4.65007	3.19286
4.64591	3.20741
4.64175	3.22367
4.6376	3.24992
4.63345	3.25622
4.62932	3.22092
4.62519	3.27762
4.62106	3.35
4.61695	3.29284
4.61284	3.25671
4.60874	3.32266
4.60465	3.38561
4.60056	3.36826
4.59648	3.42869
4.59241	3.48832
4.58835	3.4057
4.58429	3.39433
4.58024	3.50717
4.5762	3.45615
4.57216	3.42195
4.56814	3.44344
4.56411	3.52131
4.5601	3.56652
4.55609	3.51405
4.55209	3.47829
4.5481	3.43267
4.54411	3.4825
4.54013	3.49504
4.53616	3.48741
4.5322	3.56122
4.52824	3.56857
4.52429	3.55102
4.52034	3.57145
4.51641	3.58927
4.51247	3.59104
4.50855	3.59948
4.50463	3.6548
4.50072	3.68459
4.49682	3.68834
4.49292	3.7461
4.48903	3.80463
4.48515	3.72823
4.48127	3.68439
4.4774	3.76004
4.47354	3.76358
4.46968	3.71471
4.46584	3.75284
4.46199	3.8752
4.45815	4.01696
4.45432	3.9427
4.4505	3.75225
4.44668	3.79537
4.44287	3.87718
4.43907	3.86596
4.43527	3.85915
4.43148	3.8493
4.4277	3.82194
4.42392	3.83609
4.42015	3.85998
4.41638	3.92173
4.41262	3.98952
4.40887	3.95541
4.40513	3.85305
4.40139	3.84631
4.39765	3.88627
4.39393	3.91775
4.39021	3.92038
4.38649	3.93385
4.38278	3.93686
4.37908	3.97206
4.37539	4.05968
4.3717	4.09862
4.36801	4.15662
4.36434	4.26401
4.36067	4.32449
4.357	4.34067
4.35335	4.3688
4.34969	4.42071
4.34605	4.52851
4.34241	4.6401
4.33877	4.71327
4.33514	4.72357
4.33152	4.75061
4.32791	4.73028
4.3243	4.81257
4.32069	4.93014
4.3171	4.94682
4.31351	5.02638
4.30992	5.09405
4.30634	5.08409
4.30277	5.08709
4.2992	5.08157
4.29564	5.0814
4.29208	5.1374
4.28853	5.17369
4.28499	5.07923
4.28145	5.04474
4.27792	5.0566
4.27439	5.05245
4.27087	5.20154
4.26735	5.2289
4.26384	5.08591
4.26034	4.98778
4.25684	5.00777
4.25335	5.12053
4.24986	5.19832
4.24638	5.29517
4.24291	5.34315
4.23944	5.28052
4.23598	5.27813
4.23252	5.34341
4.22906	5.32223
4.22562	5.24379
4.22218	5.2539
4.21874	5.31005
4.21531	5.26196
4.21189	5.21697
4.20847	5.27658
4.20506	5.27338
4.20165	5.30396
4.19825	5.40731
4.19485	5.28115
4.19146	5.15902
4.18807	5.13447
4.18469	5.15969
4.18132	5.16668
4.17795	5.16473
4.17458	5.22934
4.17123	5.22947
4.16787	5.18408
4.16453	5.27237
4.16118	5.40673
4.15785	5.41283
4.15451	5.46724
4.15119	5.55144
4.14787	5.59551
4.14455	5.73669
4.14124	5.89111
4.13794	6.10016
4.13464	6.28201
4.13134	6.40176
4.12805	6.58208
4.12477	6.73332
4.12149	6.92237
4.11822	7.1642
4.11495	7.30664
4.11168	7.5103
4.10843	7.7283
4.10517	7.88874
4.10192	8.13124
4.09868	8.38072
4.09545	8.57855
4.09221	8.76564
4.08899	8.97539
4.08576	9.16956
4.08255	9.29423
4.07933	9.42449
4.07613	9.59751
4.07292	9.73328
4.06973	9.86437
4.06654	9.97861
4.06335	10.0994
4.06017	10.2041
4.05699	10.298
4.05382	10.3408
4.05065	10.3367
4.04749	10.398
4.04433	10.4936
4.04118	10.6615
4.03803	10.7947
4.03489	10.7606
4.03175	10.729
4.02862	10.7982
4.02549	10.8052
4.02237	10.905
4.01925	11.0242
4.01614	11.0049
4.01303	11.013
4.00993	11.0007
4.00683	10.9579
4.00373	10.9598
4.00064	10.9041
3.99756	10.9895
3.99448	11.1486
3.9914	11.1187
3.98833	11.0984
3.98527	11.1533
3.98221	11.2429
3.97915	11.257
3.9761	11.2089
3.97305	11.199
3.97001	11.1243
3.96697	11.0604
3.96394	11.2439
3.96091	11.4624
3.95789	11.4593
3.95487	11.4114
3.95186	11.4334
3.94885	11.4939
3.94584	11.539
3.94284	11.5596
3.93984	11.554
3.93685	11.5724
3.93386	11.6306
3.93088	11.6074
3.9279	11.6211
3.92493	11.6511
3.92196	11.6552
3.919	11.6639
3.91604	11.6559
3.91308	11.7171
3.91013	11.8675
3.90718	11.9866
3.90424	11.9561
3.9013	11.9077
3.89837	11.8894
3.89544	11.8684
3.89252	11.8832
3.8896	11.8135
3.88668	11.8247
3.88377	11.9473
3.88086	11.9408
3.87796	11.9708
3.87506	12.0595
3.87217	12.1061
3.86928	12.1032
3.86639	12.0573
3.86351	12.0885
3.86064	12.1099
3.85776	12.1031
3.8549	12.205
3.85203	12.2595
3.84917	12.2533
3.84631	12.2158
3.84346	12.1523
3.84062	12.2562
3.83777	12.3869
3.83494	12.4241
3.8321	12.527
3.82927	12.5615
3.82644	12.5499
3.82362	12.6346
3.82081	12.7017
3.81799	12.7167
3.81518	12.7368
3.81238	12.7224
3.80958	12.7009
3.80678	12.8059
3.80399	12.9596
3.8012	12.9418
3.79841	12.8452
3.79563	12.8813
3.79286	12.9288
3.79008	12.9478
3.78731	12.9971
3.78455	13.0743
3.78179	13.0906
3.77903	13.1246
3.77628	13.1258
3.77353	13.1224
3.77079	13.0786
3.76805	13.0075
3.76531	13.0433
3.76258	13.0898
3.75985	13.0408
3.75713	13.0219
3.7544	13.1288
3.75169	13.219
3.74898	13.1808
3.74627	13.1733
3.74356	13.1687
3.74086	13.1709
3.73816	13.1883
3.73547	13.1744
3.73278	13.0947
3.7301	13.1101
3.72741	13.1323
3.72474	13.1349
3.72206	13.1457
3.71939	13.1862
3.71673	13.191
3.71406	13.1523
3.71141	13.079
3.70875	13.0542
3.7061	13.125
3.70345	13.1272
3.70081	13.0425
3.69817	13.0466
3.69553	13.1142
3.6929	13.2384
3.69027	13.1857
3.68765	13.064
3.68503	13.0241
3.68241	13.0502
3.6798	13.0561
3.67719	13.0485
3.67458	13.0715
3.67198	13.0305
3.66938	13.0003
3.66678	13.019
3.66419	13.033
3.66161	13.0176
3.65902	12.9633
3.65644	12.8482
3.65387	12.8152
3.65129	12.8879
3.64872	12.848
3.64616	12.8009
3.64359	12.778
3.64103	12.7804
3.63848	12.7849
3.63593	12.8028
3.63338	12.7772
3.63084	12.6871
3.6283	12.5578
3.62576	12.5086
3.62322	12.5022
3.62069	12.5536
3.61817	12.6086
3.61564	12.5243
3.61312	12.414
3.61061	12.3875
3.6081	12.3065
3.60559	12.2117
3.60308	12.2454
3.60058	12.2627
3.59808	12.2136
3.59558	12.126
3.59309	12.1341
3.59061	12.2042
3.58812	12.1315
3.58564	12.0697
3.58316	11.9963
3.58069	11.8892
3.57822	11.8356
3.57575	11.8286
3.57328	11.8233
3.57082	11.8121
3.56836	11.8043
3.56591	11.7818
3.56346	11.6797
3.56101	11.5581
3.55857	11.5034
3.55613	11.4766
3.55369	11.4748
3.55126	11.4527
3.54883	11.3319
3.5464	11.2198
3.54397	11.1888
3.54155	11.2177
3.53914	11.2254
3.53672	11.2099
3.53431	11.1733
3.5319	11.0851
3.5295	11.0482
3.5271	10.9946
3.5247	10.8826
3.52231	10.7551
3.51991	10.737
3.51753	10.7572
3.51514	10.7796
3.51276	10.7865
3.51038	10.7459
3.50801	10.6248
3.50563	10.587
3.50327	10.5888
3.5009	10.4667
3.49854	10.3727
3.49618	10.349
3.49382	10.4168
3.49147	10.3779
3.48912	10.2434
3.48677	10.1266
3.48443	10.0694
3.48209	10.1419
3.47975	10.1786
3.47742	10.1103
3.47509	10.0543
3.47276	10.1002
3.47044	10.087
3.46812	10.0315
3.4658	10.0438
3.46348	10.0961
3.46117	10.0057
3.45886	9.84529
3.45656	9.74964
3.45425	9.67474
3.45195	9.69701
3.44966	9.72704
3.44736	9.69922
3.44507	9.6751
3.44279	9.6527
3.4405	9.58822
3.43822	9.52242
3.43594	9.56379
3.43367	9.5076
3.43139	9.41045
3.42912	9.46008
3.42686	9.5531
3.42459	9.47735
3.42233	9.31007
3.42007	9.2474
3.41782	9.39207
3.41557	9.39989
3.41332	9.30525
3.41108	9.26592
3.40883	9.20492
3.40659	9.10334
3.40435	9.11509
3.40212	9.192
3.39989	9.08152
3.39766	8.93364
3.39544	9.01633
3.39322	9.00731
3.391	8.86273
3.38878	8.7464
3.38657	8.62808
3.38436	8.67387
3.38215	8.69424
3.37994	8.68883
3.37774	8.67129
3.37554	8.56553
3.37335	8.48236
3.37115	8.39898
3.36896	8.2776
3.36678	8.28836
3.36459	8.29059
3.36241	8.24493
3.36023	8.13734
3.35805	8.08628
3.35588	8.01984
3.35371	7.97914
3.35154	7.94657
3.34938	7.92705
3.34721	7.85279
3.34505	7.77137
3.3429	7.77008
3.34074	7.67907
3.33859	7.53496
3.33644	7.39923
3.3343	7.38057
3.33215	7.33716
3.33001	7.29506
3.32788	7.32206
3.32574	7.2381
3.32361	7.07557
3.32148	6.92842
3.31936	6.91641
3.31723	6.89571
3.31511	6.88334
3.31299	6.84711
3.31088	6.7855
3.30876	6.70974
3.30665	6.62342
3.30455	6.51869
3.30244	6.49772
3.30034	6.57476
3.29824	6.59794
3.29614	6.45274
3.29405	6.25073
3.29196	6.15847
3.28987	6.19774
3.28778	6.23721
3.2857	6.19575
3.28362	6.09169
3.28154	5.99789
3.27946	5.93706
3.27739	5.92988
3.27532	5.95702
3.27325	5.91131
3.27119	5.78191
3.26913	5.70477
3.26707	5.76981
3.26501	5.80325
3.26295	5.84766
3.2609	5.99228
3.25885	5.94406
3.2568	5.73585
3.25476	5.63123
3.25272	5.62214
3.25068	5.64302
3.24864	5.65744
3.24661	5.64838
3.24458	5.60041
3.24255	5.49816
3.24052	5.4236
3.2385	5.46307
3.23648	5.54125
3.23446	5.57004
3.23244	5.54712
3.23043	5.55928
3.22841	5.55208
3.2264	5.55543
3.2244	5.4584
3.22239	5.31821
3.22039	5.18925
3.21839	5.24133
3.2164	5.40765
3.2144	5.49153
3.21241	5.37389
3.21042	5.31989
3.20844	5.26596
3.20645	5.23086
3.20447	5.30944
3.20249	5.43794
3.20051	5.3893
3.19854	5.28653
3.19657	5.19884
3.1946	5.13537
3.19263	5.18665
3.19067	5.15371
3.1887	5.03825
3.18674	5.01963
3.18479	5.1147
3.18283	5.17608
3.18088	5.18784
3.17893	5.13427
3.17698	5.06869
3.17504	5.05857
3.17309	4.9251
3.17115	4.90702
3.16921	4.89779
3.16728	4.77678
3.16534	4.85468
3.16341	4.86481
3.16148	4.81105
3.15956	4.86138
3.15763	4.76453
3.15571	4.62332
3.15379	4.63027
3.15187	4.65919
3.14996	4.61456
3.14805	4.51045
3.14614	4.5214
3.14423	4.52609
3.14232	4.62055
3.14042	4.62817
3.13852	4.53323
3.13662	4.47336
3.13472	4.51885
3.13283	4.62699
3.13094	4.54284
3.12905	4.40341
3.12716	4.37228
3.12528	4.45956
3.12339	4.48722
3.12151	4.43754
3.11964	4.55594
3.11776	4.56573
3.11589	4.41458
3.11401	4.36291
3.11214	4.40492
3.11028	4.37319
3.10841	4.32193
3.10655	4.14488
3.10469	4.13943
3.10283	4.23949
3.10098	4.24618
3.09912	4.23167
3.09727	4.20257
3.09542	4.30289
3.09358	4.29952
3.09173	4.17544
3.08989	4.20461
3.08805	4.35477
3.08621	4.36489
3.08437	4.29903
3.08254	4.35325
3.08071	4.27762
3.07888	4.24157
3.07705	4.29256
3.07523	4.21771
3.0734	4.26887
3.07158	4.34482
3.06977	4.20954
3.06795	4.19571
3.06613	4.25882
3.06432	4.21948
3.06251	4.27046
3.0607	4.46336
3.0589	4.53142
3.0571	4.4221
3.05529	4.34458
3.05349	4.33553
3.0517	4.26461
3.0499	4.27775
3.04811	4.36639
3.04632	4.23814
3.04453	4.05844
3.04274	4.11647
3.04096	4.28015
3.03918	4.37531
3.0374	4.32686
3.03562	4.21239
3.03384	4.20514
3.03207	4.34361
3.03029	4.36679
3.02852	4.26287
3.02676	4.19695
3.02499	4.20232
3.02323	4.19344
3.02146	4.12055
3.0197	4.08076
3.01795	4.04763
3.01619	4.15275
3.01444	4.22275
3.01269	4.22898
3.01094	4.31368
3.00919	4.37006
3.00744	4.15556
3.0057	4.0648
3.00396	3.99768
3.00222	3.8669
3.00048	4.00698
2.99875	4.32604
2.99701	4.32786
2.99528	4.17105
2.99355	4.16543
2.99183	4.1069
2.9901	4.12141
2.98838	4.21333
2.98666	4.1843
2.98494	4.11486
2.98322	4.11845
2.9815	4.21881
2.97979	4.23878
2.97808	4.16699
2.97637	4.27891
2.97466	4.24075
2.97295	4.06432
2.97125	4.17124
2.96955	4.16474
2.96785	4.0038
2.96615	3.87282
2.96446	3.87047
2.96276	3.94582
2.96107	3.86459
2.95938	3.65594
2.95769	3.61657
2.95601	3.77055
2.95432	3.6577
2.95264	3.60834
2.95096	3.73806
2.94928	3.72116
2.9476	3.59642
2.94593	3.4255
2.94425	3.40726
2.94258	3.38045
2.94092	3.2818
2.93925	3.25916
2.93758	3.14382
2.93592	3.08524
2.93426	3.18722
2.9326	3.26628
2.93094	3.23054
2.92928	3.27424
2.92763	3.3778
2.92598	3.28218
2.92433	3.2367
2.92268	3.23969
2.92103	3.38281
2.91939	3.40384
2.91775	3.43421
2.9161	3.62345
2.91447	3.70285
2.91283	3.67485
2.91119	3.6276
2.90956	3.61941
2.90793	3.61381
2.9063	3.63016
2.90467	3.76644
2.90304	3.78958
2.90142	3.83665
2.89979	4.00064
2.89817	3.90941
2.89656	3.70918
2.89494	3.60956
2.89332	3.7733
2.89171	3.91862
2.8901	3.92239
2.88849	4.00549
2.88688	4.03806
2.88527	3.93746
2.88367	3.99666
2.88206	3.90549
2.88046	3.82354
2.87886	3.86653
2.87727	3.87686
2.87567	3.89028
2.87408	3.87421
2.87248	3.92751
2.87089	3.93728
2.8693	3.9114
2.86772	3.96858
2.86613	3.9794
2.86455	3.96484
2.86297	3.91297
2.86139	3.9086
2.85981	3.98052
2.85823	3.96717
2.85666	4.01633
2.85508	4.0075
2.85351	4.00828
2.85194	4.06219
2.85038	3.93512
2.84881	3.77711
2.84724	3.95905
2.84568	3.97784
2.84412	3.92155
2.84256	4.0654
2.841	4.25778
2.83945	4.42631
2.83789	4.41245
2.83634	4.26345
2.83479	4.11748
2.83324	4.26349
2.83169	4.36893
2.83015	4.4573
2.82861	4.51255
2.82706	4.40061
2.82552	4.4171
2.82398	4.58014
2.82245	4.62661
2.82091	4.57389
2.81938	4.63375
2.81784	4.82694
2.81631	4.84774
2.81479	4.88367
2.81326	4.95584
2.81173	4.92513
2.81021	4.92537
2.80869	5.06479
2.80716	5.27672
2.80565	5.44933
2.80413	5.46549
2.80261	5.4263
2.8011	5.38318
2.79959	5.48297
2.79808	5.52056
2.79657	5.5677
2.79506	5.63202
2.79355	5.62381
2.79205	5.65024
2.79055	5.72723
2.78904	5.91619
2.78754	5.93362
2.78605	6.08623
2.78455	6.20854
2.78306	6.04531
2.78156	6.02291
2.78007	5.98064
2.77858	5.98481
2.77709	6.19641
2.77561	6.38728
2.77412	6.55979
2.77264	6.60495
2.77116	6.60776
2.76968	6.49273
2.7682	6.37721
2.76672	6.44086
2.76524	6.38539
2.76377	6.56188
2.7623	6.94215
2.76083	6.94964
2.75936	6.97579
2.75789	7.18652
2.75642	7.45682
2.75496	7.75323
2.7535	7.82746
2.75203	7.76902
2.75057	7.87002
2.74912	8.11946
2.74766	8.12063
2.7462	8.13006
2.74475	8.37728
2.7433	8.61048
2.74185	8.7192
2.7404	8.88994
2.73895	9.11737
2.7375	9.10548
2.73606	9.09523
2.73462	9.16947
2.73318	9.28023
2.73174	9.30396
2.7303	9.39488
2.72886	9.63307
2.72742	9.79962
2.72599	9.94534
2.72456	10.2764
2.72313	10.3519
2.7217	10.5034
2.72027	10.8347
2.71884	10.6954
2.71742	10.6807
2.71599	10.6871
2.71457	10.7092
2.71315	10.8405
2.71173	11.1298
2.71032	11.2628
2.7089	11.217
2.70748	11.1481
2.70607	11.1813
2.70466	11.3212
2.70325	11.5289
2.70184	11.8787
2.70043	12.2536
2.69903	12.6257
2.69762	12.9837
2.69622	13.3859
2.69482	13.9259
2.69342	14.2547
2.69202	14.2691
2.69062	14.4638
2.68923	14.8156
2.68783	15.1192
2.68644	15.4606
2.68505	15.6771
2.68366	15.7909
2.68227	15.7095
2.68089	15.8311
2.6795	16.2997
2.67812	16.6118
2.67673	16.9413
2.67535	16.6646
2.67397	16.4401
2.6726	16.7718
2.67122	17.4938
2.66984	17.4809
2.66847	16.9843
2.6671	17.3076
2.66572	17.4169
2.66435	17.1192
2.66299	16.7786
2.66162	16.8027
2.66025	16.8427
2.65889	16.9063
2.65753	16.8347
2.65616	16.883
2.65481	16.816
2.65345	16.8623
2.65209	16.8524
2.65073	16.7631
2.64938	16.7312
2.64803	16.7835
2.64667	16.7721
2.64532	16.5477
2.64397	16.4433
2.64263	16.4445
2.64128	16.3106
2.63994	16.2995
2.63859	16.3182
2.63725	16.3902
2.63591	16.4543
2.63457	16.4777
2.63323	16.3681
2.6319	16.2496
2.63056	16.3559
2.62923	16.2071
2.62789	16.1391
2.62656	16.3116
2.62523	16.0837
2.6239	15.8421
2.62258	15.7784
2.62125	16.0432
2.61993	16.1221
2.6186	16.0702
2.61728	16.405
2.61596	16.4079
2.61464	16.2106
2.61332	16.1899
2.61201	16.0948
2.61069	16.115
2.60938	16.2214
2.60807	16.2109
2.60675	16.4384
2.60544	16.8374
2.60414	16.7609
2.60283	16.5446
2.60152	16.6194
2.60022	16.6177
2.59891	16.5749
2.59761	16.8726
2.59631	17.4555
2.59501	18.0147
2.59371	17.626
2.59242	17.1374
2.59112	16.9736
2.58983	17.1388
2.58853	17.4199
2.58724	17.6709
2.58595	17.6608
2.58466	18.0139
2.58338	18.1094
2.58209	17.8743
2.5808	17.8732
2.57952	17.6782
2.57824	17.8211
2.57695	17.9551
2.57567	17.9174
2.5744	18.2007
2.57312	18.4644
2.57184	18.2473
2.57057	18.3749
2.56929	18.5852
2.56802	18.4114
2.56675	18.3197
2.56548	18.5258
2.56421	18.8856
2.56294	18.9206
2.56168	18.9704
2.56041	18.8416
2.55915	18.6108
2.55789	18.5189
2.55662	18.6001
2.55536	18.6225
2.5541	18.8166
2.55285	19.1282
2.55159	19.3005
2.55034	19.3135
2.54908	19.3267
2.54783	19.419
2.54658	19.4827
2.54533	19.6616
2.54408	20.0276
2.54283	20.1743
2.54159	20.0398
2.54034	20.0711
2.5391	20.1285
2.53785	20.2933
2.53661	20.5103
2.53537	20.6017
2.53413	20.7135
2.53289	20.9759
2.53166	21.058
2.53042	21.0249
2.52919	21.2384
2.52795	21.5035
2.52672	21.5055
2.52549	21.5716
2.52426	21.7926
2.52303	21.8329
2.52181	21.8582
2.52058	21.9463
2.51936	22.1199
2.51813	22.3509
2.51691	22.5435
2.51569	22.5178
2.51447	22.5683
2.51325	22.7583
2.51203	22.9474
2.51082	22.9479
2.5096	22.9719
2.50839	23.1694
2.50717	23.4342
2.50596	23.4981
2.50475	23.5966
2.50354	23.7902
2.50233	23.969
2.50113	23.9701
2.49992	23.8953
2.49872	24.0209
2.49751	24.3115
2.49631	24.4957
2.49511	24.5299
2.49391	24.6032
2.49271	24.9075
2.49151	25.1332
2.49031	25.2329
2.48912	25.4662
2.48792	25.6861
2.48673	25.788
2.48554	25.9249
2.48435	26.2233
2.48316	26.5014
2.48197	26.7358
2.48078	27.132
2.4796	27.3889
2.47841	27.6242
2.47723	27.864
2.47604	28.1189
2.47486	28.4057
2.47368	28.7116
2.4725	28.9798
2.47132	29.2186
2.47014	29.5149
2.46897	29.977
2.46779	30.4345
2.46662	30.7258
2.46545	30.9889
2.46427	31.3522
2.4631	31.8662
2.46193	32.2537
2.46077	32.3249
2.4596	32.4413
2.45843	32.7391
2.45727	33.2521
2.4561	33.7494
2.45494	34.1716
2.45378	34.5657
2.45262	34.8419
2.45146	35.1028
2.4503	35.4059
2.44914	35.7308
2.44799	36.1336
2.44683	36.3752
2.44568	36.454
2.44452	36.6521
2.44337	36.977
2.44222	37.3362
2.44107	37.5804
2.43992	37.7303
2.43877	37.888
2.43763	37.9023
2.43648	38.0902
2.43534	38.3438
2.43419	38.4677
2.43305	38.5852
2.43191	38.5464
2.43077	38.5658
2.42963	38.6344
2.42849	38.6805
2.42736	38.6699
2.42622	38.6851
2.42509	38.7642
2.42395	38.8584
2.42282	38.7855
2.42169	38.6186
2.42056	38.4378
2.41943	38.3517
2.4183	38.3314
2.41717	38.3206
2.41605	38.1858
2.41492	37.9888
2.4138	37.7152
2.41267	37.4131
2.41155	37.2775
2.41043	37.117
2.40931	36.7857
2.40819	36.4317
2.40707	36.0473
2.40595	35.5612
2.40484	34.9492
2.40372	34.3961
2.40261	33.8354
2.4015	33.2679
2.40039	32.5341
2.39928	31.543
2.39817	30.5839
2.39706	29.5573
2.39595	28.486
2.39484	27.5058
2.39374	26.4017
2.39263	25.0659
2.39153	23.7855
2.39043	22.7323
2.38932	21.7973
2.38822	20.8143
2.38712	19.8635
2.38603	18.9111
2.38493	17.9436
2.38383	17.1495
2.38274	16.5586
2.38164	16.1738
2.38055	15.8591
2.37946	15.5199
2.37836	15.2918
2.37727	15.1214
2.37618	15.2937
2.3751	15.4365
2.37401	15.4
2.37292	15.5857
2.37184	15.9938
2.37075	16.3857
2.36967	17.0101
2.36859	17.773
2.3675	18.4479
2.36642	19.0718
2.36534	19.8876
2.36427	20.8339
2.36319	21.9114
2.36211	23.0773
2.36104	24.5005
2.35996	26.0144
2.35889	27.5927
2.35781	29.1992
2.35674	30.7951
2.35567	32.475
2.3546	34.1858
2.35353	35.8912
2.35247	37.4674
2.3514	38.7234
2.35033	39.797
2.34927	40.7759
2.3482	41.6966
2.34714	42.5253
2.34608	43.303
2.34502	43.9978
2.34396	44.4549
2.3429	44.9396
2.34184	45.3444
2.34078	45.6815
2.33973	46.0697
2.33867	46.384
2.33762	46.6618
2.33656	46.834
2.33551	46.9671
2.33446	47.0797
2.33341	47.2645
2.33236	47.5446
2.33131	47.7003
2.33026	47.7205
2.32922	47.8035
2.32817	47.7419
2.32712	47.6606
2.32608	47.6535
2.32504	47.7158
2.324	47.7548
2.32295	47.7005
2.32191	47.5961
2.32087	47.4824
2.31984	47.4513
2.3188	47.5501
2.31776	47.5734
2.31673	47.4285
2.31569	47.2489
2.31466	47.1155
2.31362	46.9368
2.31259	46.9264
2.31156	46.7466
2.31053	46.4404
2.3095	46.3232
2.30847	46.2726
2.30745	46.0157
2.30642	45.7623
2.3054	45.5105
2.30437	45.261
2.30335	45.1762
2.30232	45.0597
2.3013	44.6972
2.30028	44.4723
2.29926	44.4745
2.29824	44.3549
2.29722	44.1187
2.29621	43.8614
2.29519	43.527
2.29417	43.2445
2.29316	43.1312
2.29215	42.9126
2.29113	42.567
2.29012	42.5474
2.28911	42.3739
2.2881	42.0263
2.28709	41.863
2.28608	41.6656
2.28507	41.4558
2.28407	41.231
2.28306	40.944
2.28206	40.775
2.28105	40.7022
2.28005	40.5644
2.27905	40.356
2.27805	40.2196
2.27705	40.0976
2.27605	39.9556
2.27505	39.7563
2.27405	39.533
2.27305	39.4841
2.27206	39.4689
2.27106	39.348
2.27007	39.2736
2.26907	39.1374
2.26808	38.9316
2.26709	38.7735
2.2661	38.6043
2.26511	38.4608
2.26412	38.296
2.26313	38.1431
2.26214	38.1292
2.26116	38.1541
2.26017	37.94
2.25919	37.6942
2.2582	37.4904
2.25722	37.3965
2.25624	37.2143
2.25526	37.053
2.25428	36.8343
2.2533	36.5998
2.25232	36.3823
2.25134	36.1797
2.25036	35.8949
2.24939	35.5839
2.24841	35.4422
2.24744	35.1942
2.24646	34.8259
2.24549	34.4863
2.24452	34.2514
2.24355	33.9339
2.24257	33.6865
2.24161	33.4596
2.24064	33.2807
2.23967	32.9772
2.2387	32.6285
2.23774	32.4375
2.23677	32.2353
2.23581	31.9272
2.23484	31.6243
2.23388	31.2469
2.23292	30.7831
2.23196	30.5724
2.231	30.5661
2.23004	30.3561
2.22908	30.0707
2.22812	29.6227
2.22716	29.1476
2.22621	28.9248
2.22525	28.7442
2.2243	28.4376
2.22334	28.1316
2.22239	27.9613
2.22144	27.5962
2.22049	27.1224
2.21953	26.7765
2.21859	26.4108
2.21764	26.0276
2.21669	25.8055
2.21574	25.5975
2.21479	25.1662
2.21385	24.6705
2.2129	24.1372
2.21196	23.7189
2.21102	23.2566
2.21007	22.7496
2.20913	22.3337
2.20819	21.8611
2.20725	21.4261
2.20631	21.2609
2.20537	20.8941
2.20444	20.3385
2.2035	20.019
2.20256	19.6469
2.20163	19.2048
2.20069	18.9209
2.19976	18.5548
2.19883	18.2506
2.19789	17.9693
2.19696	17.6472
2.19603	17.2094
2.1951	16.7849
2.19417	16.4365
2.19325	16.0434
2.19232	15.6687
2.19139	15.4737
2.19047	15.3174
2.18954	15.0451
2.18862	14.7469
2.18769	14.6504
2.18677	14.3836
2.18585	14.1192
2.18493	13.9037
2.18401	13.6275
2.18309	13.5209
2.18217	13.3384
2.18125	13.0798
2.18033	12.8606
2.17942	12.7495
2.1785	12.7654
2.17759	12.6686
2.17667	12.5476
2.17576	12.6731
2.17485	12.7548
2.17393	12.845
2.17302	12.971
2.17211	13.3531
2.1712	13.8755
2.17029	14.2873
2.16939	14.8234
2.16848	15.5334
2.16757	16.2604
2.16667	17.0999
2.16576	18.1542
2.16486	19.6393
2.16395	21.1092
2.16305	22.3503
2.16215	23.6508
2.16125	25.0923
2.16035	26.6012
2.15945	28.1204
2.15855	29.557
2.15765	30.9404
2.15675	32.3627
2.15586	33.5981
2.15496	34.7592
2.15406	35.9484
2.15317	36.9657
2.15228	37.8296
2.15138	38.8059
2.15049	39.6334
2.1496	40.4849
2.14871	41.1244
2.14782	41.5483
2.14693	42.0717
2.14604	42.7915
2.14515	43.3469
2.14427	43.587
2.14338	43.7666
2.14249	44.1554
2.14161	44.5317
2.14072	44.8443
2.13984	45.1248
2.13896	45.4565
2.13808	45.6345
2.13719	45.6177
2.13631	45.7392
2.13543	46.0198
2.13455	46.1242
2.13368	46.2186
2.1328	46.4128
2.13192	46.4527
2.13105	46.4971
2.13017	46.5674
2.1293	46.6429
2.12842	46.9676
2.12755	47.1845
2.12668	47.2059
2.1258	47.3894
2.12493	47.6728
2.12406	47.9306
2.12319	48.0045
2.12232	47.9133
2.12145	48.1188
2.12059	48.3974
2.11972	48.4407
2.11885	48.5508
2.11799	48.7484
2.11712	49.0989
2.11626	49.3071
2.1154	49.2256
2.11453	49.5114
2.11367	49.7818
2.11281	49.8393
2.11195	49.9159
2.11109	50.1899
2.11023	50.3144
2.10937	50.3966
2.10851	50.7993
2.10766	50.8649
2.1068	50.7945
2.10594	51.0023
2.10509	51.3411
2.10423	51.6355
2.10338	51.9296
2.10253	52.0335
2.10168	51.983
2.10082	52.1674
2.09997	52.1794
2.09912	52.1835
2.09827	52.3181
2.09742	52.8227
2.09658	53.3065
2.09573	53.0928
2.09488	52.6932
2.09404	52.9221
2.09319	53.2642
2.09235	53.2543
2.0915	53.131
2.09066	53.1537
2.08982	53.2697
2.08897	53.4365
2.08813	53.2925
2.08729	52.8778
2.08645	52.8112
2.08561	53.1584
2.08477	53.0866
2.08394	52.7393
2.0831	52.5991
2.08226	52.5473
2.08143	52.7685
2.08059	52.6265
2.07976	52.5116
2.07892	52.6842
2.07809	52.7237
2.07726	52.2538
2.07643	51.989
2.07559	51.9341
2.07476	52.0669
2.07393	52.1065
2.0731	52.0108
2.07228	51.8654
2.07145	51.6253
2.07062	51.563
2.06979	51.796
2.06897	52.0575
2.06814	52.0128
2.06732	52.1223
2.06649	52.1699
2.06567	51.8476
2.06485	51.7051
2.06403	51.5544
2.0632	51.627
2.06238	51.6262
2.06156	51.8901
2.06074	52.044
2.05993	51.791
2.05911	51.7247
2.05829	51.7949
2.05747	51.7704
2.05666	51.8618
2.05584	51.9901
2.05503	52.0448
2.05421	52.1509
2.0534	52.2283
2.05259	52.4051
2.05177	52.5045
2.05096	52.5842
2.05015	52.5403
2.04934	52.5747
2.04853	52.903
2.04772	53.0643
2.04691	53.0682
2.04611	53.1283
2.0453	53.2833
2.04449	53.368
2.04369	53.4299
2.04288	53.5894
2.04208	53.7328
2.04127	53.7697
2.04047	53.9661
2.03967	54.1984
2.03886	54.3478
2.03806	54.5825
2.03726	54.7357
2.03646	54.7587
2.03566	54.9747
2.03486	55.1194
2.03407	55.2876
2.03327	55.4046
2.03247	55.5374
2.03167	55.5674
2.03088	55.3732
2.03008	55.2978
2.02929	55.5635
2.0285	55.7065
2.0277	55.7135
2.02691	55.7209
2.02612	55.6479
2.02533	55.5893
2.02453	55.5152
2.02374	55.494
2.02295	55.5079
2.02217	55.5454
2.02138	55.5469
2.02059	55.3169
2.0198	54.996
2.01902	54.78
2.01823	54.7049
2.01744	54.5486
2.01666	54.4326
2.01588	54.084
2.01509	53.7122
2.01431	53.4424
2.01353	53.2195
2.01275	52.9064
2.01196	52.5002
2.01118	52.0858
2.0104	51.4069
2.00963	50.8887
2.00885	50.2194
2.00807	49.3591
2.00729	48.5455
2.00651	47.8428
2.00574	47.1505
2.00496	46.2442
2.00419	45.3182
2.00341	44.4261
2.00264	43.6515
2.00187	42.795
2.00109	41.9983
2.00032	41.1932
