Name: Montebrasite LiAlPO_4(OH)
Type: Mineral
Class: Phosphates
Subclass: 
Particle Size: 125-500um
Sample No.: P-2A
Owner: JPL
Wavelength range: IR
Origin: USA, Couth Dakota, Custer County, Custer
Collected by Burminco
Description: 





Measurement: Hemispherical reflectance
First Column: X
Second Column: Y
X Units:  Wavelength (micrometers)
Y Units:  Reflectance (percent)
First X Value: 15.3853
Last X Value: 2.00032
Number of X Values: 2256
Additional information: p02aa.txt
 
15.3853	8.62984
15.3397	8.31232
15.2945	8.28869
15.2495	8.41218
15.2048	8.49975
15.1603	8.71292
15.1161	8.76134
15.0722	8.78511
15.0285	8.90051
14.9851	9.15157
14.9419	8.73103
14.8989	7.93409
14.8563	7.52725
14.8138	6.87502
14.7716	5.8871
14.7296	4.96919
14.6879	4.15684
14.6464	3.45216
14.6052	2.83882
14.5641	2.28288
14.5233	1.88759
14.4828	1.58291
14.4424	1.44325
14.4023	1.25979
14.3624	1.12042
14.3227	1.03079
14.2833	0.860939
14.244	0.748523
14.205	0.709176
14.1662	0.738767
14.1276	0.740848
14.0892	0.716536
14.051	0.784175
14.0131	0.849499
13.9753	0.849647
13.9377	0.769797
13.9004	0.834188
13.8632	0.997186
13.8262	1.04628
13.7895	0.917284
13.7529	0.822934
13.7165	1.01802
13.6803	1.07711
13.6443	1.04054
13.6085	1.08927
13.5729	1.07093
13.5374	1.12456
13.5022	1.30471
13.4671	1.4271
13.4322	1.45629
13.3975	1.54088
13.363	1.71134
13.3286	1.75022
13.2944	1.65374
13.2604	1.62689
13.2266	1.76743
13.193	1.74752
13.1595	1.73795
13.1262	1.69927
13.093	1.82437
13.06	2.07352
13.0272	1.99739
12.9946	1.93582
12.9621	2.24478
12.9298	2.41205
12.8976	2.4686
12.8656	2.74676
12.8337	2.91053
12.8021	2.9119
12.7705	3.00522
12.7391	3.21124
12.7079	3.38606
12.6769	3.47179
12.6459	3.66696
12.6152	3.93572
12.5845	4.19499
12.5541	4.32919
12.5238	4.41788
12.4936	4.7225
12.4635	5.03326
12.4337	5.15068
12.4039	5.30818
12.3743	5.55902
12.3448	5.92058
12.3155	6.19927
12.2863	6.46155
12.2573	6.64528
12.2284	6.72202
12.1996	6.81547
12.171	7.03632
12.1425	7.10395
12.1141	7.09268
12.0859	7.12514
12.0578	7.03346
12.0298	6.95906
12.0019	6.65735
11.9742	6.12549
11.9466	5.38372
11.9192	4.58424
11.8918	3.87168
11.8646	3.10983
11.8375	2.48991
11.8106	2.1206
11.7837	1.9163
11.757	1.89315
11.7304	1.79094
11.7039	1.67968
11.6776	1.7958
11.6513	1.83658
11.6252	1.78432
11.5992	1.81981
11.5733	1.82609
11.5475	1.94224
11.5219	2.06748
11.4963	2.15556
11.4709	2.20749
11.4455	2.17762
11.4203	2.19144
11.3952	2.0859
11.3702	2.13189
11.3454	2.39003
11.3206	2.48489
11.2959	2.43919
11.2714	2.62899
11.2469	2.86538
11.2226	2.81039
11.1983	2.69552
11.1742	2.67775
11.1502	2.77808
11.1263	2.93501
11.1024	3.11623
11.0787	3.13406
11.0551	3.06143
11.0316	3.06573
11.0081	3.14963
10.9848	3.08464
10.9616	3.07832
10.9385	3.26084
10.9154	3.38412
10.8925	3.29983
10.8697	3.34021
10.8469	3.44833
10.8243	3.4085
10.8017	3.45741
10.7793	3.53798
10.7569	3.53847
10.7346	3.68252
10.7125	3.88232
10.6904	3.9181
10.6684	3.89474
10.6465	4.05009
10.6247	4.23786
10.6029	4.32564
10.5813	4.27093
10.5597	4.32038
10.5383	4.42597
10.5169	4.44131
10.4956	4.4513
10.4744	4.4556
10.4533	4.56172
10.4323	4.72352
10.4113	4.97091
10.3904	5.09671
10.3697	5.13721
10.349	5.21745
10.3284	5.22467
10.3078	5.28392
10.2874	5.3919
10.267	5.49628
10.2467	5.67336
10.2265	5.91398
10.2064	6.12869
10.1863	6.31341
10.1663	6.40708
10.1464	6.53015
10.1266	6.71498
10.1069	7.00245
10.0872	7.29661
10.0676	7.45708
10.0481	7.81673
10.0287	8.31137
10.0093	8.57807
9.99005	8.77076
9.97084	9.03756
9.95169	9.46021
9.93263	9.95629
9.91364	10.566
9.89472	11.2191
9.87587	11.7586
9.8571	12.1265
9.83839	12.536
9.81976	12.8988
9.80119	13.2184
9.78271	13.4973
9.76428	13.4924
9.74592	13.0678
9.72764	12.3161
9.70943	11.4635
9.69128	10.441
9.6732	9.33735
9.65518	8.28573
9.63724	7.84475
9.61935	7.94091
9.60155	8.0613
9.5838	8.27309
9.56611	8.8334
9.5485	9.405
9.53094	10.0907
9.51345	10.9022
9.49604	11.5716
9.47867	12.4977
9.46137	13.6365
9.44414	14.7673
9.42697	16.1415
9.40986	17.5806
9.39281	19.0654
9.37583	20.4326
9.35891	21.6165
9.34204	22.8379
9.32524	24.1149
9.3085	25.3605
9.29182	26.5628
9.27519	27.8463
9.25863	29.1806
9.24213	30.4195
9.22568	31.6152
9.2093	32.7463
9.19297	33.9078
9.17669	35.0029
9.16048	35.9817
9.14433	36.7397
9.12823	37.1371
9.11218	37.5455
9.0962	37.8595
9.08027	38.0155
9.06439	38.0794
9.04858	38.0663
9.03281	37.8589
9.0171	37.6896
9.00145	37.3869
8.98585	36.9084
8.9703	36.5273
8.9548	36.1188
8.93937	35.6728
8.92398	35.2754
8.90865	34.9873
8.89337	34.7041
8.87814	34.4338
8.86296	34.1878
8.84784	33.7504
8.83277	33.1545
8.81774	32.1747
8.80277	30.8181
8.78786	29.1725
8.77298	27.4597
8.75816	25.9032
8.7434	24.6241
8.72868	23.8389
8.714	23.3658
8.69938	23.1144
8.68481	23.1827
8.67029	23.3034
8.65581	23.3099
8.64139	23.3812
8.62701	23.7304
8.61268	24.1782
8.5984	24.4797
8.58416	24.6143
8.56997	24.6432
8.55583	24.7588
8.54174	24.9017
8.52769	24.7181
8.51368	24.5429
8.49973	24.1658
8.48582	23.4776
8.47195	22.8533
8.45813	22.1781
8.44436	21.1035
8.43062	19.9181
8.41693	18.7685
8.4033	17.6856
8.3897	16.7615
8.37614	16.009
8.36264	15.256
8.34917	14.6415
8.33574	14.3732
8.32236	14.1526
8.30903	13.7935
8.29573	13.6362
8.28248	13.5721
8.26927	13.5944
8.2561	13.5097
8.24298	13.2132
8.2299	12.899
8.21685	12.7233
8.20385	12.4757
8.19089	12.0535
8.17797	11.291
8.16509	10.2444
8.15225	9.04681
8.13946	7.8943
8.1267	6.88836
8.11398	5.90901
8.10131	5.02655
8.08867	4.24745
8.07606	3.51158
8.0635	2.9393
8.05099	2.48999
8.0385	1.97144
8.02606	1.6021
8.01366	1.38912
8.00129	1.10449
7.98896	0.855807
7.97667	0.795027
7.96442	0.746825
7.9522	0.627884
7.94002	0.530042
7.92788	0.439863
7.91578	0.320522
7.90371	0.242187
7.89168	0.382004
7.87969	0.450993
7.86773	0.364632
7.85581	0.283364
7.84392	0.244007
7.83207	0.177184
7.82026	0.0934763
7.80849	0.166748
7.79674	0.162066
7.78503	0.110625
7.77337	0.127279
7.76173	0.191656
7.75012	0.210383
7.73856	0.241938
7.72703	0.251042
7.71553	0.222206
7.70406	0.172859
7.69263	0.11637
7.68123	0.110334
7.66987	0.23419
7.65855	0.287516
7.64725	0.162559
7.63598	0.177777
7.62475	0.267986
7.61356	0.258194
7.60239	0.205926
7.59126	0.191852
7.58017	0.234034
7.5691	0.266423
7.55806	0.299825
7.54707	0.343054
7.5361	0.365635
7.52516	0.365697
7.51425	0.357635
7.50338	0.328006
7.49253	0.29935
7.48172	0.301458
7.47094	0.352256
7.46019	0.373332
7.44947	0.359567
7.43879	0.378954
7.42813	0.409263
7.4175	0.479027
7.4069	0.540805
7.39634	0.496362
7.3858	0.47986
7.37529	0.481717
7.36482	0.538954
7.35437	0.64932
7.34396	0.616862
7.33357	0.529146
7.32321	0.474705
7.31288	0.533814
7.30258	0.633022
7.29231	0.744433
7.28207	0.820994
7.27185	0.71405
7.26167	0.610518
7.25152	0.632798
7.24139	0.634884
7.23129	0.651852
7.22122	0.761049
7.21117	0.815935
7.20116	0.834777
7.19117	0.781604
7.18121	0.807408
7.17128	0.847331
7.16137	0.727574
7.1515	0.643064
7.14164	0.694696
7.13182	0.72752
7.12203	0.803108
7.11225	0.879531
7.10251	0.896495
7.0928	0.921967
7.08311	0.89498
7.07344	0.824993
7.06381	0.912065
7.0542	0.952729
7.04461	0.9293
7.03506	0.898313
7.02552	0.916279
7.01601	0.861041
7.00653	0.82609
6.99708	0.910153
6.98765	0.944549
6.97824	0.880772
6.96886	0.901471
6.95951	0.993843
6.95018	1.04442
6.94087	1.02431
6.9316	1.04564
6.92234	1.07252
6.91311	1.117
6.90391	1.09157
6.89473	1.00174
6.88557	1.07374
6.87644	1.15555
6.86733	1.23018
6.85824	1.18714
6.84918	1.15512
6.84015	1.14104
6.83114	1.11495
6.82215	1.14253
6.81319	1.13822
6.80424	1.14583
6.79532	1.29729
6.78643	1.43644
6.77756	1.35336
6.76871	1.3127
6.75989	1.29137
6.75109	1.32861
6.74231	1.40918
6.73355	1.36677
6.72482	1.385
6.71611	1.42827
6.70742	1.46199
6.69875	1.38571
6.69011	1.40048
6.68149	1.52189
6.67289	1.43733
6.66431	1.40846
6.65576	1.47058
6.64722	1.59965
6.63871	1.74833
6.63022	1.74787
6.62175	1.62392
6.61331	1.55183
6.60488	1.62621
6.59648	1.67849
6.5881	1.69201
6.57974	1.76201
6.5714	1.83633
6.56308	1.83103
6.55478	1.76529
6.54651	1.71953
6.53825	1.69644
6.53001	1.70273
6.5218	1.84475
6.51361	1.81423
6.50544	1.82434
6.49729	1.94294
6.48915	1.95019
6.48104	1.92491
6.47295	1.913
6.46488	1.87885
6.45683	1.87376
6.4488	1.84473
6.44079	1.8252
6.4328	1.89324
6.42482	1.99497
6.41687	2.21128
6.40894	2.18643
6.40103	2.00141
6.39314	1.93214
6.38526	1.95196
6.37741	1.94254
6.36957	1.93692
6.36176	1.88107
6.35396	1.79839
6.34618	1.90187
6.33843	1.85777
6.33069	1.75202
6.32297	1.73511
6.31527	1.72056
6.30758	1.76999
6.29992	1.81126
6.29227	1.81731
6.28465	1.87463
6.27704	1.89128
6.26945	1.8436
6.26188	1.85096
6.25432	1.84162
6.24679	1.84976
6.23927	1.87007
6.23177	1.8678
6.22429	1.90398
6.21683	1.92417
6.20938	1.91679
6.20195	1.85548
6.19454	1.80129
6.18715	1.88478
6.17978	1.95235
6.17242	1.92968
6.16508	1.99572
6.15776	2.00874
6.15045	2.00252
6.14317	2.09079
6.1359	2.17178
6.12864	2.16745
6.12141	2.14891
6.11419	2.17624
6.10699	2.14014
6.0998	2.03346
6.09263	2.08095
6.08549	2.26999
6.07835	2.4146
6.07123	2.54186
6.06413	2.52055
6.05705	2.45473
6.04998	2.58852
6.04293	2.6007
6.0359	2.54787
6.02888	2.46206
6.02187	2.50587
6.01489	2.63172
6.00792	2.65396
6.00096	2.67551
5.99403	2.72134
5.98711	2.75053
5.9802	2.76234
5.97331	2.74269
5.96644	2.69822
5.95958	2.7758
5.95274	2.88218
5.94591	2.94252
5.9391	3.02914
5.9323	3.01291
5.92552	2.98236
5.91876	2.99191
5.91201	2.98197
5.90528	2.95844
5.89856	3.08767
5.89186	3.27737
5.88517	3.42431
5.8785	3.42211
5.87184	3.30366
5.8652	3.33128
5.85857	3.32175
5.85196	3.34826
5.84536	3.31191
5.83878	3.33906
5.83221	3.46934
5.82566	3.6675
5.81912	3.72455
5.81259	3.62262
5.80608	3.57641
5.79959	3.54848
5.79311	3.59897
5.78665	3.69444
5.78019	3.84109
5.77376	4.0081
5.76734	4.18633
5.76093	4.10447
5.75453	4.07501
5.74815	4.23659
5.74179	4.20743
5.73543	4.17688
5.7291	4.27924
5.72277	4.37615
5.71646	4.47925
5.71017	4.64608
5.70389	4.74382
5.69762	4.86029
5.69136	4.99097
5.68513	4.99317
5.6789	5.07291
5.67268	5.13855
5.66648	5.23794
5.6603	5.39522
5.65413	5.46142
5.64797	5.5363
5.64182	5.6583
5.63569	5.71174
5.62957	5.7819
5.62347	5.87232
5.61737	5.94448
5.61129	6.01375
5.60522	6.11909
5.59917	6.14002
5.59313	6.13483
5.5871	6.16313
5.58109	6.33521
5.57509	6.47487
5.5691	6.47517
5.56312	6.51301
5.55716	6.60954
5.55121	6.66411
5.54528	6.71557
5.53935	6.76995
5.53344	6.73501
5.52754	6.80365
5.52166	6.94805
5.51578	6.97493
5.50992	6.98011
5.50407	7.02988
5.49823	7.02981
5.49241	6.99337
5.4866	6.94294
5.4808	6.8923
5.47501	6.91564
5.46923	7.05854
5.46347	7.13203
5.45772	7.02861
5.45198	6.96914
5.44625	6.94899
5.44054	6.89537
5.43484	6.89841
5.42914	6.92061
5.42347	6.9852
5.4178	6.88748
5.41214	6.75894
5.4065	6.71815
5.40087	6.66278
5.39525	6.64141
5.38964	6.63376
5.38404	6.56164
5.37846	6.53876
5.37288	6.51375
5.36732	6.49188
5.36177	6.59941
5.35623	6.62894
5.35071	6.64765
5.34519	6.72419
5.33968	6.81359
5.33419	6.8733
5.32871	6.90113
5.32324	6.85441
5.31778	6.82388
5.31233	6.99733
5.30689	7.08537
5.30147	7.09024
5.29605	7.18244
5.29065	7.37181
5.28525	7.40483
5.27987	7.40058
5.2745	7.49448
5.26914	7.60908
5.26379	7.63067
5.25845	7.69598
5.25312	7.74048
5.24781	7.82973
5.2425	7.8944
5.23721	7.97076
5.23192	8.0158
5.22665	8.05291
5.22138	8.13727
5.21613	8.26203
5.21089	8.30047
5.20566	8.26416
5.20044	8.35374
5.19522	8.43564
5.19002	8.45428
5.18483	8.59661
5.17965	8.71661
5.17448	8.77016
5.16933	8.77491
5.16418	8.82947
5.15904	8.93877
5.15391	8.9442
5.14879	8.95852
5.14368	8.91379
5.13859	8.89969
5.1335	8.90423
5.12842	8.85948
5.12335	8.76659
5.1183	8.66782
5.11325	8.57408
5.10821	8.43524
5.10318	8.31091
5.09817	8.21918
5.09316	8.12193
5.08816	7.92531
5.08317	7.73176
5.07819	7.54226
5.07322	7.37002
5.06826	7.18809
5.06331	7.00055
5.05837	6.87654
5.05344	6.64842
5.04852	6.38003
5.04361	6.09838
5.03871	5.93022
5.03382	5.80294
5.02894	5.59278
5.02406	5.33159
5.0192	5.07495
5.01435	4.90378
5.0095	4.7956
5.00467	4.68946
4.99984	4.63781
4.99502	4.51458
4.99021	4.32744
4.98542	4.18506
4.98063	4.06864
4.97585	3.98846
4.97108	4.01656
4.96632	3.96376
4.96156	3.90833
4.95682	3.9378
4.95209	3.86469
4.94736	3.76423
4.94264	3.77426
4.93794	3.75313
4.93324	3.73323
4.92855	3.75075
4.92387	3.66662
4.9192	3.63358
4.91453	3.6007
4.90988	3.49799
4.90524	3.4269
4.9006	3.3972
4.89597	3.39802
4.89135	3.35926
4.88674	3.35462
4.88214	3.26453
4.87755	3.10837
4.87296	2.98441
4.86839	2.97829
4.86382	2.99756
4.85926	2.93007
4.85471	2.90596
4.85017	2.90965
4.84564	2.85456
4.84111	2.77942
4.8366	2.78883
4.83209	2.85879
4.82759	2.86616
4.8231	2.87319
4.81862	2.86284
4.81415	2.84793
4.80968	2.78448
4.80522	2.78738
4.80077	2.8467
4.79633	2.94024
4.7919	2.98583
4.78747	2.99369
4.78306	2.88315
4.77865	2.73815
4.77425	2.71784
4.76986	2.75467
4.76547	2.75821
4.7611	2.75191
4.75673	2.70585
4.75237	2.71898
4.74802	2.66579
4.74367	2.56741
4.73934	2.55682
4.73501	2.60791
4.73069	2.63957
4.72638	2.67249
4.72207	2.67632
4.71777	2.73687
4.71348	2.72509
4.7092	2.709
4.70493	2.7475
4.70066	2.77451
4.69641	2.79963
4.69216	2.84224
4.68791	2.84067
4.68368	2.85507
4.67945	2.83546
4.67523	2.88381
4.67102	3.00773
4.66682	3.04985
4.66262	3.0181
4.65843	3.06697
4.65425	3.06225
4.65007	3.05523
4.64591	3.04768
4.64175	3.04003
4.6376	3.04909
4.63345	3.07086
4.62932	3.11832
4.62519	3.1644
4.62106	3.1114
4.61695	3.0273
4.61284	2.99236
4.60874	3.07675
4.60465	3.19785
4.60056	3.21089
4.59648	3.20948
4.59241	3.24114
4.58835	3.25966
4.58429	3.33562
4.58024	3.41083
4.5762	3.31222
4.57216	3.20874
4.56814	3.26916
4.56411	3.31283
4.5601	3.30284
4.55609	3.31076
4.55209	3.30706
4.5481	3.29591
4.54411	3.26841
4.54013	3.25142
4.53616	3.30459
4.5322	3.43532
4.52824	3.42301
4.52429	3.48423
4.52034	3.54994
4.51641	3.52375
4.51247	3.47585
4.50855	3.48352
4.50463	3.53126
4.50072	3.53325
4.49682	3.47116
4.49292	3.49063
4.48903	3.5727
4.48515	3.6335
4.48127	3.72393
4.4774	3.79166
4.47354	3.71972
4.46968	3.62377
4.46584	3.6054
4.46199	3.72057
4.45815	3.85024
4.45432	3.89975
4.4505	3.89036
4.44668	3.8142
4.44287	3.71405
4.43907	3.71574
4.43527	3.70243
4.43148	3.6612
4.4277	3.64438
4.42392	3.66471
4.42015	3.62239
4.41638	3.6543
4.41262	3.62562
4.40887	3.50841
4.40513	3.53553
4.40139	3.59802
4.39765	3.63958
4.39393	3.72984
4.39021	3.75906
4.38649	3.78893
4.38278	3.83165
4.37908	3.88188
4.37539	3.91328
4.3717	4.0035
4.36801	4.11724
4.36434	4.21684
4.36067	4.26808
4.357	4.2881
4.35335	4.33736
4.34969	4.42802
4.34605	4.52371
4.34241	4.523
4.33877	4.47286
4.33514	4.54423
4.33152	4.62445
4.32791	4.66607
4.3243	4.59709
4.32069	4.58281
4.3171	4.57605
4.31351	4.60102
4.30992	4.65778
4.30634	4.53886
4.30277	4.35194
4.2992	4.25972
4.29564	4.19296
4.29208	4.15667
4.28853	4.26944
4.28499	4.33091
4.28145	4.23556
4.27792	4.19451
4.27439	4.21379
4.27087	4.21942
4.26735	4.11102
4.26384	4.02581
4.26034	4.10871
4.25684	4.26756
4.25335	4.43111
4.24986	4.57781
4.24638	4.67724
4.24291	4.70902
4.23944	4.78039
4.23598	4.84269
4.23252	4.89688
4.22906	4.95429
4.22562	4.9453
4.22218	4.92644
4.21874	5.01778
4.21531	5.13092
4.21189	5.18858
4.20847	5.2092
4.20506	5.16957
4.20165	5.16238
4.19825	5.18011
4.19485	5.27345
4.19146	5.32297
4.18807	5.34271
4.18469	5.41168
4.18132	5.5263
4.17795	5.60614
4.17458	5.5288
4.17123	5.58499
4.16787	5.71531
4.16453	5.83829
4.16118	5.95302
4.15785	6.06864
4.15451	6.2481
4.15119	6.44387
4.14787	6.56244
4.14455	6.73241
4.14124	7.00391
4.13794	7.23467
4.13464	7.43435
4.13134	7.66187
4.12805	7.9271
4.12477	8.20823
4.12149	8.52846
4.11822	8.81752
4.11495	9.02937
4.11168	9.24175
4.10843	9.49049
4.10517	9.80642
4.10192	10.1184
4.09868	10.3025
4.09545	10.4489
4.09221	10.6972
4.08899	10.9558
4.08576	11.1208
4.08255	11.2883
4.07933	11.4092
4.07613	11.5392
4.07292	11.767
4.06973	11.9962
4.06654	12.1271
4.06335	12.2567
4.06017	12.329
4.05699	12.4048
4.05382	12.503
4.05065	12.6164
4.04749	12.7289
4.04433	12.7953
4.04118	12.8311
4.03803	12.8469
4.03489	12.879
4.03175	12.9806
4.02862	13.1455
4.02549	13.1617
4.02237	13.047
4.01925	13.0402
4.01614	13.056
4.01303	12.9721
4.00993	13.0264
4.00683	13.1163
4.00373	13.1264
4.00064	13.1439
3.99756	13.1843
3.99448	13.1917
3.9914	13.2114
3.98833	13.1445
3.98527	13.0661
3.98221	13.1467
3.97915	13.2901
3.9761	13.4297
3.97305	13.5053
3.97001	13.5446
3.96697	13.6016
3.96394	13.6981
3.96091	13.7469
3.95789	13.7181
3.95487	13.7818
3.95186	13.872
3.94885	13.8609
3.94584	13.9216
3.94284	13.9619
3.93984	13.9675
3.93685	14.073
3.93386	14.1157
3.93088	14.1198
3.9279	14.104
3.92493	14.0263
3.92196	14.0275
3.919	14.0635
3.91604	14.023
3.91308	13.9862
3.91013	13.9928
3.90718	13.989
3.90424	14.1117
3.9013	14.2338
3.89837	14.2301
3.89544	14.117
3.89252	14.0809
3.8896	14.0984
3.88668	14.0874
3.88377	14.2042
3.88086	14.2674
3.87796	14.1918
3.87506	14.2422
3.87217	14.2524
3.86928	14.1931
3.86639	14.3027
3.86351	14.5127
3.86064	14.5807
3.85776	14.4595
3.8549	14.5211
3.85203	14.7015
3.84917	14.8473
3.84631	14.9379
3.84346	15.0139
3.84062	15.064
3.83777	15.1564
3.83494	15.297
3.8321	15.4146
3.82927	15.4977
3.82644	15.4467
3.82362	15.5266
3.82081	15.7238
3.81799	15.8124
3.81518	15.8199
3.81238	15.8497
3.80958	15.9232
3.80678	16.0258
3.80399	16.131
3.8012	16.2057
3.79841	16.2479
3.79563	16.33
3.79286	16.4508
3.79008	16.4334
3.78731	16.4331
3.78455	16.5323
3.78179	16.609
3.77903	16.6753
3.77628	16.6988
3.77353	16.7522
3.77079	16.8073
3.76805	16.8495
3.76531	16.8898
3.76258	16.9247
3.75985	16.9784
3.75713	17.0027
3.7544	17.0475
3.75169	17.1133
3.74898	17.1727
3.74627	17.2544
3.74356	17.2744
3.74086	17.3071
3.73816	17.3173
3.73547	17.2482
3.73278	17.2813
3.7301	17.335
3.72741	17.2626
3.72474	17.2956
3.72206	17.3402
3.71939	17.3873
3.71673	17.3948
3.71406	17.3156
3.71141	17.3237
3.70875	17.4287
3.7061	17.5551
3.70345	17.6306
3.70081	17.5047
3.69817	17.3799
3.69553	17.3923
3.6929	17.3911
3.69027	17.4021
3.68765	17.3797
3.68503	17.3184
3.68241	17.2913
3.6798	17.3218
3.67719	17.3174
3.67458	17.1682
3.67198	17.1068
3.66938	17.1461
3.66678	17.164
3.66419	17.1476
3.66161	17.1127
3.65902	17.0661
3.65644	16.9702
3.65387	16.7283
3.65129	16.6596
3.64872	16.7184
3.64616	16.6724
3.64359	16.5375
3.64103	16.4428
3.63848	16.4369
3.63593	16.397
3.63338	16.3156
3.63084	16.3575
3.6283	16.2709
3.62576	16.2171
3.62322	16.2082
3.62069	16.0948
3.61817	16.0584
3.61564	15.9742
3.61312	15.8116
3.61061	15.7202
3.6081	15.7513
3.60559	15.7315
3.60308	15.6206
3.60058	15.5211
3.59808	15.5498
3.59558	15.6423
3.59309	15.5985
3.59061	15.4762
3.58812	15.4044
3.58564	15.4837
3.58316	15.5352
3.58069	15.6244
3.57822	15.6348
3.57575	15.5094
3.57328	15.4043
3.57082	15.3264
3.56836	15.2898
3.56591	15.2921
3.56346	15.2728
3.56101	15.2207
3.55857	15.1559
3.55613	15.1825
3.55369	15.1416
3.55126	15.1164
3.54883	15.1059
3.5464	15.0251
3.54397	14.9185
3.54155	14.8422
3.53914	14.7966
3.53672	14.6891
3.53431	14.5432
3.5319	14.484
3.5295	14.4086
3.5271	14.3343
3.5247	14.3607
3.52231	14.2619
3.51991	14.0963
3.51753	13.965
3.51514	13.8403
3.51276	13.7113
3.51038	13.6358
3.50801	13.6056
3.50563	13.5763
3.50327	13.4536
3.5009	13.2829
3.49854	13.2239
3.49618	13.2454
3.49382	13.122
3.49147	13.0343
3.48912	13.1046
3.48677	13.1022
3.48443	13.0075
3.48209	12.8872
3.47975	12.7726
3.47742	12.6796
3.47509	12.6643
3.47276	12.6961
3.47044	12.6477
3.46812	12.5065
3.4658	12.3851
3.46348	12.4293
3.46117	12.437
3.45886	12.3754
3.45656	12.3365
3.45425	12.21
3.45195	12.1286
3.44966	12.1517
3.44736	12.101
3.44507	12.011
3.44279	11.9625
3.4405	11.966
3.43822	12.0092
3.43594	11.9775
3.43367	11.8989
3.43139	11.8324
3.42912	11.829
3.42686	11.8762
3.42459	11.7661
3.42233	11.5458
3.42007	11.4701
3.41782	11.5874
3.41557	11.6408
3.41332	11.5787
3.41108	11.4456
3.40883	11.405
3.40659	11.3457
3.40435	11.2676
3.40212	11.2207
3.39989	11.0296
3.39766	10.9179
3.39544	10.9521
3.39322	10.9791
3.391	10.9104
3.38878	10.7554
3.38657	10.7447
3.38436	10.7483
3.38215	10.6478
3.37994	10.5573
3.37774	10.5136
3.37554	10.484
3.37335	10.3579
3.37115	10.2341
3.36896	10.2094
3.36678	10.157
3.36459	10.0349
3.36241	10.0145
3.36023	9.98109
3.35805	9.92735
3.35588	9.89234
3.35371	9.79844
3.35154	9.63661
3.34938	9.5636
3.34721	9.51659
3.34505	9.41686
3.3429	9.31304
3.34074	9.22715
3.33859	9.14895
3.33644	9.04154
3.3343	8.96188
3.33215	8.91715
3.33001	8.77921
3.32788	8.66336
3.32574	8.56963
3.32361	8.52719
3.32148	8.52679
3.31936	8.38572
3.31723	8.18349
3.31511	8.09107
3.31299	8.09512
3.31088	7.98831
3.30876	7.93689
3.30665	7.93391
3.30455	7.77792
3.30244	7.66929
3.30034	7.6284
3.29824	7.52835
3.29614	7.37865
3.29405	7.26489
3.29196	7.12974
3.28987	7.02883
3.28778	6.95182
3.2857	6.90824
3.28362	6.81394
3.28154	6.69616
3.27946	6.63278
3.27739	6.59827
3.27532	6.48354
3.27325	6.41197
3.27119	6.32328
3.26913	6.2744
3.26707	6.31649
3.26501	6.30327
3.26295	6.21164
3.2609	6.15862
3.25885	6.04398
3.2568	5.97138
3.25476	5.90866
3.25272	5.91262
3.25068	6.00037
3.24864	5.9749
3.24661	5.90628
3.24458	5.85698
3.24255	5.81331
3.24052	5.88429
3.2385	5.92899
3.23648	5.83088
3.23446	5.73603
3.23244	5.73368
3.23043	5.76315
3.22841	5.69129
3.2264	5.64617
3.2244	5.61375
3.22239	5.59887
3.22039	5.61156
3.21839	5.62479
3.2164	5.64301
3.2144	5.71602
3.21241	5.67155
3.21042	5.65867
3.20844	5.63236
3.20645	5.45834
3.20447	5.43432
3.20249	5.52651
3.20051	5.6111
3.19854	5.46919
3.19657	5.379
3.1946	5.3804
3.19263	5.3728
3.19067	5.38001
3.1887	5.35877
3.18674	5.45114
3.18479	5.42619
3.18283	5.20323
3.18088	5.05506
3.17893	5.02829
3.17698	5.06343
3.17504	5.15863
3.17309	5.11827
3.17115	5.09002
3.16921	5.05947
3.16728	4.94286
3.16534	4.85922
3.16341	4.89242
3.16148	4.90705
3.15956	4.87292
3.15763	4.80978
3.15571	4.8102
3.15379	4.73617
3.15187	4.66715
3.14996	4.69018
3.14805	4.68787
3.14614	4.63505
3.14423	4.58164
3.14232	4.57016
3.14042	4.54374
3.13852	4.47739
3.13662	4.50375
3.13472	4.53192
3.13283	4.44873
3.13094	4.36154
3.12905	4.49069
3.12716	4.52699
3.12528	4.371
3.12339	4.37791
3.12151	4.44496
3.11964	4.41192
3.11776	4.32733
3.11589	4.31399
3.11401	4.27831
3.11214	4.21897
3.11028	4.29043
3.10841	4.24381
3.10655	4.18769
3.10469	4.26561
3.10283	4.21907
3.10098	4.13729
3.09912	4.1406
3.09727	4.12473
3.09542	4.07895
3.09358	4.11599
3.09173	4.0864
3.08989	4.03734
3.08805	4.03211
3.08621	4.08584
3.08437	4.12411
3.08254	4.0484
3.08071	3.97956
3.07888	3.9286
3.07705	3.98234
3.07523	4.17568
3.0734	4.19387
3.07158	4.10889
3.06977	4.04372
3.06795	3.98459
3.06613	4.12759
3.06432	4.16307
3.06251	3.99331
3.0607	4.01067
3.0589	4.14484
3.0571	4.07768
3.05529	4.07872
3.05349	4.14351
3.0517	4.1483
3.0499	4.07895
3.04811	4.10959
3.04632	4.2204
3.04453	4.14258
3.04274	4.17787
3.04096	4.10264
3.03918	4.07753
3.0374	4.24178
3.03562	4.23543
3.03384	4.10297
3.03207	4.05564
3.03029	4.22802
3.02852	4.2573
3.02676	4.21876
3.02499	4.15055
3.02323	4.18758
3.02146	4.17109
3.0197	4.13853
3.01795	4.20285
3.01619	4.31628
3.01444	4.21611
3.01269	3.98649
3.01094	3.96984
3.00919	4.07352
3.00744	4.10416
3.0057	4.01854
3.00396	3.87876
3.00222	3.89139
3.00048	4.06482
2.99875	4.16657
2.99701	4.32286
2.99528	4.32393
2.99355	4.11369
2.99183	3.94016
2.9901	3.84513
2.98838	3.89456
2.98666	3.92236
2.98494	3.92044
2.98322	4.12982
2.9815	4.25571
2.97979	4.18031
2.97808	4.03171
2.97637	3.91637
2.97466	3.92394
2.97295	3.89938
2.97125	4.00352
2.96955	4.31505
2.96785	4.28599
2.96615	4.24181
2.96446	4.15201
2.96276	4.29204
2.96107	4.19788
2.95938	4.18847
2.95769	4.36552
2.95601	4.21821
2.95432	4.18615
2.95264	4.2691
2.95096	4.10112
2.94928	4.11302
2.9476	4.18681
2.94593	3.97593
2.94425	3.70707
2.94258	3.50362
2.94092	3.36576
2.93925	3.30093
2.93758	3.32039
2.93592	3.2561
2.93426	3.01746
2.9326	2.98497
2.93094	3.05519
2.92928	3.0507
2.92763	2.92453
2.92598	2.83148
2.92433	2.82707
2.92268	2.82426
2.92103	2.85828
2.91939	2.90744
2.91775	2.84353
2.9161	2.94352
2.91447	3.06595
2.91283	3.01447
2.91119	2.97766
2.90956	2.96839
2.90793	3.03529
2.9063	3.0906
2.90467	3.16381
2.90304	3.27694
2.90142	3.35029
2.89979	3.38777
2.89817	3.37676
2.89656	3.47443
2.89494	3.49088
2.89332	3.50567
2.89171	3.55812
2.8901	3.61112
2.88849	3.6378
2.88688	3.63317
2.88527	3.48934
2.88367	3.47585
2.88206	3.59639
2.88046	3.67502
2.87886	3.58774
2.87727	3.54182
2.87567	3.63366
2.87408	3.655
2.87248	3.64571
2.87089	3.73533
2.8693	3.74432
2.86772	3.7482
2.86613	3.56492
2.86455	3.52877
2.86297	3.50834
2.86139	3.54356
2.85981	3.64165
2.85823	3.67416
2.85666	3.62299
2.85508	3.57972
2.85351	3.66451
2.85194	3.80143
2.85038	3.75736
2.84881	3.54549
2.84724	3.4282
2.84568	3.67227
2.84412	3.71993
2.84256	3.63991
2.841	3.72209
2.83945	3.76997
2.83789	3.78215
2.83634	3.82006
2.83479	3.88918
2.83324	3.85684
2.83169	3.8457
2.83015	3.88453
2.82861	3.9444
2.82706	3.97239
2.82552	4.04995
2.82398	4.36567
2.82245	4.61035
2.82091	4.4231
2.81938	4.30834
2.81784	4.21383
2.81631	4.30553
2.81479	4.42774
2.81326	4.47277
2.81173	4.51144
2.81021	4.59293
2.80869	4.61085
2.80716	4.5608
2.80565	4.74878
2.80413	5.11063
2.80261	5.26023
2.8011	5.12504
2.79959	5.02658
2.79808	5.18331
2.79657	5.3215
2.79506	5.31574
2.79355	5.39132
2.79205	5.5705
2.79055	5.72534
2.78904	5.85134
2.78754	5.8947
2.78605	6.01109
2.78455	6.24248
2.78306	6.36076
2.78156	6.38467
2.78007	6.31694
2.77858	6.42484
2.77709	6.43101
2.77561	6.34742
2.77412	6.42977
2.77264	6.59095
2.77116	6.88585
2.76968	7.10552
2.7682	7.04723
2.76672	7.23554
2.76524	7.48226
2.76377	7.5745
2.7623	7.53588
2.76083	7.31568
2.75936	7.53143
2.75789	7.80661
2.75642	8.24787
2.75496	8.56694
2.7535	8.47888
2.75203	8.47674
2.75057	8.38664
2.74912	8.42911
2.74766	8.64893
2.7462	8.98186
2.74475	9.09891
2.7433	9.21026
2.74185	9.51942
2.7404	9.75062
2.73895	9.72176
2.7375	9.7576
2.73606	9.93544
2.73462	10.1495
2.73318	10.3107
2.73174	10.3641
2.7303	10.4236
2.72886	10.5063
2.72742	10.6579
2.72599	11.1245
2.72456	11.4759
2.72313	11.504
2.7217	11.9313
2.72027	12.2704
2.71884	12.0935
2.71742	12.1313
2.71599	12.1801
2.71457	12.3048
2.71315	12.6179
2.71173	13.0728
2.71032	13.3047
2.7089	13.3662
2.70748	13.4143
2.70607	13.5764
2.70466	13.7527
2.70325	13.9884
2.70184	14.2764
2.70043	14.3094
2.69903	14.3388
2.69762	14.5607
2.69622	14.894
2.69482	15.272
2.69342	15.4084
2.69202	15.3445
2.69062	15.3708
2.68923	15.4812
2.68783	15.6029
2.68644	15.6167
2.68505	15.7583
2.68366	15.9148
2.68227	15.7936
2.68089	15.8133
2.6795	16.2106
2.67812	16.3378
2.67673	16.3537
2.67535	16.1156
2.67397	15.957
2.6726	16.1918
2.67122	16.8415
2.66984	16.7975
2.66847	16.4226
2.6671	16.826
2.66572	16.8099
2.66435	16.3162
2.66299	15.9562
2.66162	15.9798
2.66025	15.9985
2.65889	16.0024
2.65753	15.8587
2.65616	15.7631
2.65481	15.691
2.65345	15.7882
2.65209	15.9135
2.65073	15.7366
2.64938	15.4989
2.64803	15.458
2.64667	15.5724
2.64532	15.6692
2.64397	15.4662
2.64263	15.3691
2.64128	15.3666
2.63994	15.2519
2.63859	15.0504
2.63725	15.0824
2.63591	15.2313
2.63457	15.3823
2.63323	15.3157
2.6319	15.2779
2.63056	15.3358
2.62923	15.0429
2.62789	15.0035
2.62656	15.0011
2.62523	14.6792
2.6239	14.4073
2.62258	14.3534
2.62125	14.5464
2.61993	14.3587
2.6186	14.0992
2.61728	14.4143
2.61596	14.2273
2.61464	13.9746
2.61332	14.0415
2.61201	13.8901
2.61069	13.8181
2.60938	14.0027
2.60807	14.1745
2.60675	14.3194
2.60544	14.569
2.60414	14.4959
2.60283	14.3369
2.60152	14.2343
2.60022	14.23
2.59891	14.5177
2.59761	14.7941
2.59631	15.2278
2.59501	15.8869
2.59371	15.5207
2.59242	14.9931
2.59112	14.9996
2.58983	15.2312
2.58853	15.4622
2.58724	15.5395
2.58595	15.5386
2.58466	15.8036
2.58338	15.9053
2.58209	15.9636
2.5808	16.1109
2.57952	15.8956
2.57824	15.8631
2.57695	16.1931
2.57567	16.2965
2.5744	16.3305
2.57312	16.5765
2.57184	16.5148
2.57057	16.606
2.56929	16.7172
2.56802	16.5239
2.56675	16.3952
2.56548	16.745
2.56421	17.0234
2.56294	16.9628
2.56168	16.952
2.56041	16.8768
2.55915	16.7605
2.55789	16.8025
2.55662	16.9074
2.55536	17.0185
2.5541	17.235
2.55285	17.4767
2.55159	17.5566
2.55034	17.5676
2.54908	17.7097
2.54783	18.0187
2.54658	18.2077
2.54533	18.1888
2.54408	18.3979
2.54283	18.6491
2.54159	18.7102
2.54034	18.8677
2.5391	19.053
2.53785	19.1528
2.53661	19.2546
2.53537	19.3859
2.53413	19.5232
2.53289	19.6241
2.53166	19.7238
2.53042	19.8644
2.52919	19.9431
2.52795	20.0228
2.52672	20.0672
2.52549	20.1519
2.52426	20.3674
2.52303	20.5116
2.52181	20.4006
2.52058	20.3948
2.51936	20.58
2.51813	20.727
2.51691	20.7653
2.51569	20.9099
2.51447	21.0623
2.51325	21.0515
2.51203	21.0478
2.51082	21.1761
2.5096	21.2867
2.50839	21.314
2.50717	21.3562
2.50596	21.3216
2.50475	21.3463
2.50354	21.4416
2.50233	21.5853
2.50113	21.6775
2.49992	21.6422
2.49872	21.6194
2.49751	21.8283
2.49631	22.0289
2.49511	22.0026
2.49391	22.0895
2.49271	22.2765
2.49151	22.4556
2.49031	22.5693
2.48912	22.7415
2.48792	22.9725
2.48673	23.19
2.48554	23.3048
2.48435	23.6026
2.48316	23.8962
2.48197	24.1367
2.48078	24.4799
2.4796	24.7828
2.47841	25.0515
2.47723	25.4603
2.47604	25.786
2.47486	26.1421
2.47368	26.5355
2.4725	26.7796
2.47132	27.0715
2.47014	27.4536
2.46897	27.8223
2.46779	28.2296
2.46662	28.6752
2.46545	29.1414
2.46427	29.6151
2.4631	30.0526
2.46193	30.4382
2.46077	30.9132
2.4596	31.3811
2.45843	31.7915
2.45727	32.2129
2.4561	32.6162
2.45494	33.0094
2.45378	33.4288
2.45262	33.8902
2.45146	34.4047
2.4503	34.9258
2.44914	35.2488
2.44799	35.5748
2.44683	36.0067
2.44568	36.4628
2.44452	36.7388
2.44337	37.129
2.44222	37.455
2.44107	37.8636
2.43992	38.1386
2.43877	38.2677
2.43763	38.4862
2.43648	38.8388
2.43534	39.134
2.43419	39.2327
2.43305	39.2876
2.43191	39.473
2.43077	39.6901
2.42963	39.7048
2.42849	39.7423
2.42736	39.8603
2.42622	39.8964
2.42509	39.9081
2.42395	39.8541
2.42282	39.7497
2.42169	39.6821
2.42056	39.6309
2.41943	39.482
2.4183	39.245
2.41717	39.1345
2.41605	39.0407
2.41492	38.9799
2.4138	38.6299
2.41267	38.2141
2.41155	37.9354
2.41043	37.6145
2.40931	37.0771
2.40819	36.5679
2.40707	36.164
2.40595	35.5134
2.40484	34.9203
2.40372	34.4661
2.40261	33.7249
2.4015	32.8625
2.40039	32.0808
2.39928	31.2937
2.39817	30.4382
2.39706	29.3479
2.39595	28.1776
2.39484	26.9662
2.39374	25.841
2.39263	24.7485
2.39153	23.5491
2.39043	22.3122
2.38932	21.2007
2.38822	19.9717
2.38712	18.7898
2.38603	17.644
2.38493	16.6412
2.38383	15.8016
2.38274	14.821
2.38164	13.9076
2.38055	13.362
2.37946	12.8523
2.37836	12.2693
2.37727	11.9183
2.37618	11.5901
2.3751	11.387
2.37401	11.3942
2.37292	11.4838
2.37184	11.8278
2.37075	12.362
2.36967	13.1353
2.36859	13.9423
2.3675	14.9916
2.36642	16.0485
2.36534	17.0014
2.36427	18.1035
2.36319	19.3443
2.36211	20.6832
2.36104	22.137
2.35996	23.6337
2.35889	25.2347
2.35781	26.9772
2.35674	28.7563
2.35567	30.4923
2.3546	32.2823
2.35353	34.1148
2.35247	35.7634
2.3514	37.279
2.35033	38.763
2.34927	39.9248
2.3482	41.0038
2.34714	42.0691
2.34608	42.9328
2.34502	43.7201
2.34396	44.2782
2.3429	44.7641
2.34184	45.3428
2.34078	45.8934
2.33973	46.3677
2.33867	46.7768
2.33762	47.1093
2.33656	47.4471
2.33551	47.7707
2.33446	47.8078
2.33341	47.9922
2.33236	48.2857
2.33131	48.4058
2.33026	48.5022
2.32922	48.7209
2.32817	48.7671
2.32712	48.6979
2.32608	48.7818
2.32504	48.75
2.324	48.6402
2.32295	48.6785
2.32191	48.6716
2.32087	48.5864
2.31984	48.4738
2.3188	48.391
2.31776	48.3118
2.31673	48.2291
2.31569	47.9396
2.31466	47.5948
2.31362	47.5098
2.31259	47.4797
2.31156	47.3279
2.31053	47.0819
2.3095	46.8031
2.30847	46.769
2.30745	46.6249
2.30642	46.2963
2.3054	45.9439
2.30437	45.7503
2.30335	45.581
2.30232	45.4498
2.3013	45.1955
2.30028	44.8567
2.29926	44.5051
2.29824	44.234
2.29722	44.0316
2.29621	43.6476
2.29519	43.1426
2.29417	42.8101
2.29316	42.4225
2.29215	42.0388
2.29113	41.541
2.29012	41.0297
2.28911	40.6445
2.2881	40.1931
2.28709	39.7486
2.28608	39.2446
2.28507	38.7083
2.28407	38.263
2.28306	37.8842
2.28206	37.5881
2.28105	37.3959
2.28005	37.1117
2.27905	36.814
2.27805	36.6307
2.27705	36.5883
2.27605	36.5592
2.27505	36.5474
2.27405	36.5823
2.27305	36.5409
2.27206	36.4931
2.27106	36.5564
2.27007	36.5087
2.26907	36.2819
2.26808	36.2876
2.26709	36.3419
2.2661	36.1813
2.26511	36.039
2.26412	36.003
2.26313	35.8456
2.26214	35.6037
2.26116	35.3888
2.26017	35.0996
2.25919	34.8787
2.2582	34.6008
2.25722	34.3912
2.25624	34.197
2.25526	33.8702
2.25428	33.5027
2.2533	33.2001
2.25232	33.0046
2.25134	32.9236
2.25036	32.6899
2.24939	32.195
2.24841	31.8679
2.24744	31.7746
2.24646	31.5107
2.24549	31.219
2.24452	30.8849
2.24355	30.3476
2.24257	30.103
2.24161	29.9926
2.24064	29.7386
2.23967	29.4073
2.2387	29.1934
2.23774	29.0012
2.23677	28.8859
2.23581	28.6051
2.23484	28.1649
2.23388	27.8415
2.23292	27.5971
2.23196	27.3593
2.231	27.0067
2.23004	26.6343
2.22908	26.4667
2.22812	26.2298
2.22716	25.9171
2.22621	25.6381
2.22525	25.3029
2.2243	24.914
2.22334	24.587
2.22239	24.4295
2.22144	24.2027
2.22049	23.8913
2.21953	23.7187
2.21859	23.6056
2.21764	23.38
2.21669	23.112
2.21574	22.8553
2.21479	22.6019
2.21385	22.2924
2.2129	21.9175
2.21196	21.5234
2.21102	21.0579
2.21007	20.5787
2.20913	20.29
2.20819	19.8898
2.20725	19.3263
2.20631	18.8446
2.20537	18.3309
2.20444	17.8951
2.2035	17.4834
2.20256	16.9517
2.20163	16.4695
2.20069	16.1463
2.19976	15.8244
2.19883	15.2859
2.19789	14.8995
2.19696	14.6018
2.19603	14.3342
2.1951	14.0108
2.19417	13.5839
2.19325	13.4051
2.19232	13.2822
2.19139	13.0134
2.19047	12.8011
2.18954	12.5583
2.18862	12.2071
2.18769	11.8808
2.18677	11.6012
2.18585	11.5712
2.18493	11.5647
2.18401	11.3603
2.18309	11.1051
2.18217	10.91
2.18125	10.6967
2.18033	10.5704
2.17942	10.6349
2.1785	10.5157
2.17759	10.3391
2.17667	10.3382
2.17576	10.1559
2.17485	10.001
2.17393	9.99253
2.17302	9.9108
2.17211	9.81034
2.1712	9.83962
2.17029	10.1807
2.16939	10.732
2.16848	11.178
2.16757	11.3123
2.16667	11.952
2.16576	12.9394
2.16486	13.9831
2.16395	15.2817
2.16305	16.5536
2.16215	17.9874
2.16125	19.4986
2.16035	21.0986
2.15945	22.6877
2.15855	24.4416
2.15765	25.9881
2.15675	27.4011
2.15586	28.9354
2.15496	30.4393
2.15406	31.9024
2.15317	33.1779
2.15228	34.2082
2.15138	35.2889
2.15049	36.2246
2.1496	37.1104
2.14871	37.9621
2.14782	38.748
2.14693	39.5496
2.14604	40.327
2.14515	40.7987
2.14427	41.2341
2.14338	41.8371
2.14249	42.3972
2.14161	42.8499
2.14072	43.1935
2.13984	43.4923
2.13896	43.7008
2.13808	44.059
2.13719	44.3199
2.13631	44.3728
2.13543	44.6494
2.13455	45.0216
2.13368	45.2173
2.1328	45.1275
2.13192	45.2351
2.13105	45.4621
2.13017	45.8409
2.1293	46.0983
2.12842	45.9985
2.12755	45.8746
2.12668	46.0075
2.1258	46.2035
2.12493	46.3594
2.12406	46.4106
2.12319	46.4407
2.12232	46.4819
2.12145	46.629
2.12059	46.6954
2.11972	46.7089
2.11885	46.7718
2.11799	47.0005
2.11712	47.3013
2.11626	47.3151
2.1154	47.4194
2.11453	47.6166
2.11367	47.5447
2.11281	47.4828
2.11195	47.7777
2.11109	48.1116
2.11023	47.8993
2.10937	47.7399
2.10851	47.9845
2.10766	48.2664
2.1068	48.6129
2.10594	48.8963
2.10509	48.8897
2.10423	48.7964
2.10338	48.8641
2.10253	49.0061
2.10168	49.2478
2.10082	49.4258
2.09997	49.5574
2.09912	49.6177
2.09827	49.575
2.09742	49.5502
2.09658	49.8123
2.09573	49.8774
2.09488	49.7525
2.09404	49.9688
2.09319	50.1203
2.09235	50.0488
2.0915	50.136
2.09066	50.1675
2.08982	50.287
2.08897	50.3861
2.08813	50.2684
2.08729	50.1924
2.08645	50.2242
2.08561	50.3253
2.08477	50.1594
2.08394	49.878
2.0831	49.5892
2.08226	49.6092
2.08143	50.1018
2.08059	50.2046
2.07976	49.9294
2.07892	49.6704
2.07809	49.657
2.07726	49.2003
2.07643	48.7309
2.07559	48.7648
2.07476	48.9001
2.07393	49.2025
2.0731	48.9475
2.07228	48.8848
2.07145	48.5831
2.07062	48.0222
2.06979	47.9519
2.06897	48.4067
2.06814	48.6301
2.06732	48.806
2.06649	48.9198
2.06567	48.3278
2.06485	48.185
2.06403	48.2706
2.0632	48.3438
2.06238	48.7356
2.06156	48.8306
2.06074	48.5753
2.05993	48.6396
2.05911	48.6704
2.05829	48.7027
2.05747	48.7784
2.05666	48.9427
2.05584	49.0388
2.05503	49.0408
2.05421	49.2188
2.0534	49.3343
2.05259	49.2713
2.05177	49.4231
2.05096	49.6405
2.05015	49.7511
2.04934	49.7814
2.04853	49.9949
2.04772	50.1786
2.04691	50.2957
2.04611	50.3771
2.0453	50.369
2.04449	50.4185
2.04369	50.6889
2.04288	50.9652
2.04208	51.2108
2.04127	51.4144
2.04047	51.5169
2.03967	51.6537
2.03886	51.6291
2.03806	51.6232
2.03726	51.8889
2.03646	51.9055
2.03566	51.9715
2.03486	52.2779
2.03407	52.4275
2.03327	52.5715
2.03247	52.5556
2.03167	52.3822
2.03088	52.4651
2.03008	52.6438
2.02929	52.6356
2.0285	52.5413
2.0277	52.6266
2.02691	52.8592
2.02612	52.821
2.02533	52.4761
2.02453	52.4736
2.02374	52.4195
2.02295	52.4785
2.02217	52.4525
2.02138	52.0825
2.02059	51.7383
2.0198	51.6459
2.01902	51.5292
2.01823	51.393
2.01744	51.1103
2.01666	50.6842
2.01588	50.2156
2.01509	49.6879
2.01431	49.4548
2.01353	49.1601
2.01275	48.5356
2.01196	47.7349
2.01118	47.1907
2.0104	46.6976
2.00963	45.7935
2.00885	44.8417
2.00807	44.1717
2.00729	43.3645
2.00651	42.25
2.00574	41.136
2.00496	40.3631
2.00419	39.5804
2.00341	38.6448
2.00264	37.4849
2.00187	36.4123
2.00109	35.3676
2.00032	34.4754
