Name: Oolitic Limestone
Type: Rock
Class: Sedimentary
Subclass:  Limestone 
Particle Size: Solid surface
Sample No.: Ward72.txt
Owner: JPL
Wavelength range:  VNIR SWIR IR
Origin: Ward's Collection of American Rocks.  Sample locality - Bedford, Lawrence County, Indiana.
Collected by:  Ward's Natural Science
Description: A grayish rock showing oolitic texture.  Micro fossils are
quite common.
Geologic age - Mississippian.



Measurement: Hemispherical reflectance
First Column: X
Second Column: Y
X Units: Wavelength (micrometers)
Y Units: Reflectance (percent)
First X Value: 2.500
Last X Value: 0.400
Number of X Values: 2101
Additional information: None

2.500  38.670230
2.499  38.497275
2.498  38.890765
2.497  38.755620
2.496  38.742245
2.495  39.183543
2.494  39.248297
2.493  39.256853
2.492  39.476010
2.491  39.553862
2.490  39.794402
2.489  39.938323
2.488  39.967227
2.487  40.263879
2.486  40.412794
2.485  40.605308
2.484  40.672787
2.483  41.033391
2.482  41.141045
2.481  41.253190
2.480  41.733969
2.479  41.763174
2.478  42.046105
2.477  42.254991
2.476  42.752777
2.475  42.901328
2.474  43.418927
2.473  43.613068
2.472  44.064371
2.471  44.264546
2.470  44.677527
2.469  44.962160
2.468  45.354483
2.467  45.608424
2.466  46.137599
2.465  46.397745
2.464  46.793529
2.463  47.108469
2.462  47.486872
2.461  47.911826
2.460  48.225155
2.459  48.425551
2.458  49.091486
2.457  49.187386
2.456  49.620409
2.455  49.911008
2.454  50.144618
2.453  50.405476
2.452  50.831169
2.451  51.107973
2.450  51.426235
2.449  51.587063
2.448  51.953585
2.447  52.292350
2.446  52.455567
2.445  52.634150
2.444  52.933698
2.443  53.139496
2.442  53.412961
2.441  53.635975
2.440  53.899885
2.439  54.096612
2.438  54.313601
2.437  54.559591
2.436  54.784451
2.435  55.018440
2.434  55.244314
2.433  55.389778
2.432  55.622750
2.431  55.821564
2.430  55.994046
2.429  56.245157
2.428  56.421738
2.427  56.628528
2.426  56.793183
2.425  57.012009
2.424  57.228224
2.423  57.256348
2.422  57.499399
2.421  57.686773
2.420  57.950779
2.419  58.000946
2.418  58.175634
2.417  58.495380
2.416  58.487881
2.415  58.641654
2.414  58.733667
2.413  58.755388
2.412  58.887383
2.411  59.043000
2.410  59.171834
2.409  59.214663
2.408  59.384558
2.407  59.387814
2.406  59.478472
2.405  59.487623
2.404  59.618666
2.403  59.644147
2.402  59.685763
2.401  59.771805
2.400  59.725877
2.399  59.766358
2.398  59.901690
2.397  59.840686
2.396  59.909753
2.395  60.015379
2.394  60.123992
2.393  60.184082
2.392  60.115678
2.391  60.137503
2.390  60.147308
2.389  60.147417
2.388  60.175040
2.387  60.194469
2.386  60.168465
2.385  60.139487
2.384  60.124153
2.383  60.121768
2.382  59.992640
2.381  59.862441
2.380  59.761530
2.379  59.649621
2.378  59.553089
2.377  59.363811
2.376  59.251650
2.375  59.049479
2.374  58.794780
2.373  58.568043
2.372  58.322819
2.371  58.040628
2.370  57.713690
2.369  57.443064
2.368  57.063819
2.367  56.697791
2.366  56.257899
2.365  55.815572
2.364  55.367905
2.363  54.885781
2.362  54.386182
2.361  53.907915
2.360  53.383569
2.359  52.762240
2.358  52.200582
2.357  51.737740
2.356  51.136397
2.355  50.521600
2.354  50.008700
2.353  49.471861
2.352  48.910187
2.351  48.380612
2.350  47.886168
2.349  47.432677
2.348  47.005640
2.347  46.557685
2.346  46.146686
2.345  45.788180
2.344  45.456759
2.343  45.194409
2.342  44.977823
2.341  44.783782
2.340  44.608141
2.339  44.510055
2.338  44.393228
2.337  44.322199
2.336  44.336374
2.335  44.424643
2.334  44.525190
2.333  44.632076
2.332  44.681788
2.331  44.826712
2.330  45.035818
2.329  45.244466
2.328  45.436282
2.327  45.693264
2.326  45.879878
2.325  46.102749
2.324  46.387954
2.323  46.666925
2.322  46.805856
2.321  46.979818
2.320  47.229357
2.319  47.544820
2.318  47.761286
2.317  48.033058
2.316  48.287744
2.315  48.482581
2.314  48.624592
2.313  48.780309
2.312  48.969830
2.311  49.196458
2.310  49.350218
2.309  49.517044
2.308  49.630316
2.307  49.829475
2.306  49.945939
2.305  50.056595
2.304  50.177790
2.303  50.353568
2.302  50.468836
2.301  50.543712
2.300  50.616679
2.299  50.797979
2.298  50.923133
2.297  51.106964
2.296  51.270041
2.295  51.423803
2.294  51.573342
2.293  51.708130
2.292  51.853716
2.291  52.025824
2.290  52.223066
2.289  52.496539
2.288  52.679937
2.287  52.876800
2.286  53.037384
2.285  53.245586
2.284  53.483150
2.283  53.789049
2.282  54.093736
2.281  54.396362
2.280  54.579826
2.279  54.853074
2.278  55.132951
2.277  55.444444
2.276  55.672508
2.275  56.002976
2.274  56.294362
2.273  56.561216
2.272  56.900869
2.271  57.088830
2.270  57.388095
2.269  57.640004
2.268  57.971561
2.267  58.181334
2.266  58.407062
2.265  58.694446
2.264  58.847576
2.263  59.117962
2.262  59.419139
2.261  59.574948
2.260  59.709509
2.259  60.056509
2.258  60.265840
2.257  60.473939
2.256  60.632874
2.255  60.952542
2.254  60.998176
2.253  61.227127
2.252  61.434245
2.251  61.606366
2.250  61.787015
2.249  62.051729
2.248  62.096430
2.247  62.424440
2.246  62.444122
2.245  62.721263
2.244  62.732336
2.243  63.009349
2.242  63.071222
2.241  63.238901
2.240  63.390014
2.239  63.532856
2.238  63.671041
2.237  63.928199
2.236  63.937749
2.235  64.057301
2.234  64.274414
2.233  64.339009
2.232  64.431738
2.231  64.606567
2.230  64.786906
2.229  64.871319
2.228  64.888632
2.227  65.059371
2.226  65.276204
2.225  65.311290
2.224  65.405789
2.223  65.496908
2.222  65.594524
2.221  65.693386
2.220  65.708876
2.219  65.936608
2.218  65.915906
2.217  66.112558
2.216  66.123543
2.215  66.250987
2.214  66.286528
2.213  66.355599
2.212  66.473945
2.211  66.513316
2.210  66.630854
2.209  66.620081
2.208  66.721482
2.207  66.826507
2.206  66.829469
2.205  66.947281
2.204  66.993488
2.203  67.088105
2.202  67.135007
2.201  67.266689
2.200  67.310749
2.199  67.224038
2.198  67.324305
2.197  67.320168
2.196  67.375277
2.195  67.504704
2.194  67.434598
2.193  67.524593
2.192  67.519853
2.191  67.530031
2.190  67.601906
2.189  67.626085
2.188  67.639123
2.187  67.663911
2.186  67.600175
2.185  67.585602
2.184  67.594905
2.183  67.631501
2.182  67.579950
2.181  67.597663
2.180  67.546396
2.179  67.528287
2.178  67.468701
2.177  67.483921
2.176  67.449632
2.175  67.488474
2.174  67.356797
2.173  67.211738
2.172  67.224026
2.171  67.211572
2.170  67.226401
2.169  67.160126
2.168  67.109938
2.167  67.056632
2.166  66.955153
2.165  66.951622
2.164  66.879213
2.163  66.871591
2.162  66.829742
2.161  66.820368
2.160  66.819080
2.159  66.809272
2.158  66.785823
2.157  66.768620
2.156  66.785569
2.155  66.755429
2.154  66.826615
2.153  66.865470
2.152  66.942316
2.151  66.925879
2.150  66.948424
2.149  67.042633
2.148  67.011709
2.147  67.127039
2.146  67.154398
2.145  67.254831
2.144  67.351943
2.143  67.531793
2.142  67.679959
2.141  67.705735
2.140  67.656566
2.139  67.802868
2.138  67.885853
2.137  67.940284
2.136  67.971814
2.135  68.122195
2.134  68.151834
2.133  68.158829
2.132  68.201869
2.131  68.245134
2.130  68.270670
2.129  68.315170
2.128  68.274291
2.127  68.234270
2.126  68.275874
2.125  68.270476
2.124  68.236401
2.123  68.268814
2.122  68.215329
2.121  68.204803
2.120  68.208898
2.119  68.187753
2.118  68.097037
2.117  68.150263
2.116  68.099600
2.115  68.062315
2.114  67.996578
2.113  68.041717
2.112  68.018072
2.111  67.949572
2.110  67.956119
2.109  67.913603
2.108  67.906428
2.107  67.891788
2.106  67.782946
2.105  67.805849
2.104  67.812447
2.103  67.769126
2.102  67.698175
2.101  67.743889
2.100  67.725106
2.099  67.763191
2.098  67.763707
2.097  67.744317
2.096  67.720308
2.095  67.712393
2.094  67.716569
2.093  67.752598
2.092  67.791008
2.091  67.795312
2.090  67.797136
2.089  67.833866
2.088  67.855729
2.087  67.858117
2.086  67.811717
2.085  67.787990
2.084  67.749480
2.083  67.762248
2.082  67.803994
2.081  67.794844
2.080  67.759394
2.079  67.802690
2.078  67.754318
2.077  67.724025
2.076  67.736095
2.075  67.715515
2.074  67.699978
2.073  67.710946
2.072  67.680161
2.071  67.631203
2.070  67.658218
2.069  67.658042
2.068  67.620814
2.067  67.620758
2.066  67.599099
2.065  67.544967
2.064  67.550147
2.063  67.594701
2.062  67.532802
2.061  67.489666
2.060  67.482648
2.059  67.430186
2.058  67.406889
2.057  67.409744
2.056  67.387736
2.055  67.407585
2.054  67.392179
2.053  67.348104
2.052  67.277150
2.051  67.244917
2.050  67.218226
2.049  67.210595
2.048  67.243568
2.047  67.121720
2.046  67.050801
2.045  67.041080
2.044  67.029364
2.043  66.957126
2.042  66.940396
2.041  66.932701
2.040  66.927612
2.039  66.885942
2.038  66.793832
2.037  66.719132
2.036  66.736916
2.035  66.714519
2.034  66.655878
2.033  66.520500
2.032  66.467235
2.031  66.432042
2.030  66.372025
2.029  66.368392
2.028  66.264934
2.027  66.147227
2.026  66.090453
2.025  65.994057
2.024  65.939864
2.023  65.857466
2.022  65.688881
2.021  65.701597
2.020  65.646413
2.019  65.545198
2.018  65.432749
2.017  65.378216
2.016  65.323690
2.015  65.141611
2.014  65.062066
2.013  65.001465
2.012  64.928674
2.011  64.749616
2.010  64.641132
2.009  64.433971
2.008  64.351621
2.007  64.201830
2.006  64.029194
2.005  63.844144
2.004  63.680627
2.003  63.535971
2.002  63.447012
2.001  63.154543
2.000  63.092871
1.999  62.982603
1.998  62.914719
1.997  62.791401
1.996  62.719647
1.995  62.658649
1.994  62.631964
1.993  62.645568
1.992  62.655232
1.991  62.642909
1.990  62.773298
1.989  62.679541
1.988  62.735906
1.987  62.773457
1.986  62.830316
1.985  62.781915
1.984  62.811201
1.983  62.696346
1.982  62.745869
1.981  62.722947
1.980  62.656777
1.979  62.638709
1.978  62.578180
1.977  62.563161
1.976  62.490683
1.975  62.391416
1.974  62.462444
1.973  62.295040
1.972  62.341093
1.971  62.244450
1.970  62.302049
1.969  62.125342
1.968  62.119221
1.967  62.109922
1.966  62.007217
1.965  62.024888
1.964  62.001919
1.963  61.809681
1.962  61.926655
1.961  61.884211
1.960  61.835041
1.959  61.831999
1.958  61.755031
1.957  61.736986
1.956  61.746818
1.955  61.682143
1.954  61.670950
1.953  61.642583
1.952  61.679891
1.951  61.603884
1.950  61.598580
1.949  61.510807
1.948  61.600576
1.947  61.486917
1.946  61.536299
1.945  61.411627
1.944  61.539461
1.943  61.545884
1.942  61.494188
1.941  61.384790
1.940  61.418571
1.939  61.333286
1.938  61.377479
1.937  61.418534
1.936  61.463738
1.935  61.341886
1.934  61.457631
1.933  61.410649
1.932  61.427969
1.931  61.355673
1.930  61.439410
1.929  61.558361
1.928  61.555206
1.927  61.515150
1.926  61.569367
1.925  61.517539
1.924  61.606541
1.923  61.775659
1.922  61.757691
1.921  61.797808
1.920  61.878910
1.919  61.999391
1.918  62.062499
1.917  62.109790
1.916  62.279567
1.915  62.254371
1.914  62.424819
1.913  62.494825
1.912  62.623278
1.911  62.603820
1.910  62.801205
1.909  62.904988
1.908  63.171531
1.907  63.250963
1.906  63.461187
1.905  63.571965
1.904  63.789540
1.903  63.972180
1.902  64.243272
1.901  64.402359
1.900  64.545475
1.899  64.769448
1.898  65.039748
1.897  65.192308
1.896  65.434676
1.895  65.603982
1.894  65.731382
1.893  65.999428
1.892  66.154686
1.891  66.338434
1.890  66.535528
1.889  66.749715
1.888  66.857696
1.887  66.868892
1.886  67.101431
1.885  67.100788
1.884  67.221969
1.883  67.178064
1.882  67.251283
1.881  67.243147
1.880  67.269411
1.879  67.322848
1.878  67.314540
1.877  67.346951
1.876  67.335382
1.875  67.453744
1.874  67.681211
1.873  67.746618
1.872  67.955114
1.871  68.159880
1.870  68.297456
1.869  68.625063
1.868  68.900197
1.867  69.011104
1.866  69.214580
1.865  69.398367
1.864  69.473112
1.863  69.596628
1.862  69.812256
1.861  69.828210
1.860  69.951712
1.859  70.017047
1.858  70.159501
1.857  70.229426
1.856  70.237533
1.855  70.333971
1.854  70.391150
1.853  70.443841
1.852  70.517332
1.851  70.544247
1.850  70.590725
1.849  70.588536
1.848  70.671259
1.847  70.721622
1.846  70.757228
1.845  70.768695
1.844  70.841213
1.843  70.852953
1.842  70.902404
1.841  70.909870
1.840  70.963848
1.839  70.957057
1.838  71.009047
1.837  71.034759
1.836  71.074460
1.835  71.199083
1.834  71.300390
1.833  71.253316
1.832  71.239344
1.831  71.202259
1.830  71.233844
1.829  71.311477
1.828  71.385864
1.827  71.413339
1.826  71.453885
1.825  71.484639
1.824  71.501301
1.823  71.546042
1.822  71.598162
1.821  71.577572
1.820  71.567952
1.819  71.563286
1.818  71.660834
1.817  71.633034
1.816  71.645090
1.815  71.654659
1.814  71.669546
1.813  71.685631
1.812  71.661286
1.811  71.674211
1.810  71.701242
1.809  71.733155
1.808  71.811146
1.807  71.761401
1.806  71.775137
1.805  71.785914
1.804  71.783629
1.803  71.819545
1.802  71.828004
1.801  71.800888
1.800  71.756717
1.799  71.841916
1.798  71.885429
1.797  71.865040
1.796  71.840679
1.795  71.823072
1.794  71.822098
1.793  71.795999
1.792  71.811709
1.791  71.782812
1.790  71.763734
1.789  71.795158
1.788  71.800097
1.787  71.727182
1.786  71.667389
1.785  71.738897
1.784  71.782017
1.783  71.765209
1.782  71.797889
1.781  71.793351
1.780  71.757135
1.779  71.715091
1.778  71.658344
1.777  71.662293
1.776  71.657591
1.775  71.651642
1.774  71.649393
1.773  71.609026
1.772  71.580208
1.771  71.578661
1.770  71.582960
1.769  71.569464
1.768  71.513102
1.767  71.505673
1.766  71.522978
1.765  71.462802
1.764  71.491798
1.763  71.502992
1.762  71.380262
1.761  71.415763
1.760  71.390209
1.759  71.374982
1.758  71.436291
1.757  71.460198
1.756  71.417322
1.755  71.408006
1.754  71.397224
1.753  71.456453
1.752  71.500074
1.751  71.463500
1.750  71.471520
1.749  71.515535
1.748  71.489136
1.747  71.430225
1.746  71.502490
1.745  71.505373
1.744  71.506565
1.743  71.545257
1.742  71.555269
1.741  71.554090
1.740  71.531852
1.739  71.581425
1.738  71.565784
1.737  71.549797
1.736  71.501138
1.735  71.495024
1.734  71.547118
1.733  71.536374
1.732  71.579233
1.731  71.575939
1.730  71.577168
1.729  71.543820
1.728  71.528210
1.727  71.528670
1.726  71.543591
1.725  71.585695
1.724  71.638103
1.723  71.598740
1.722  71.603346
1.721  71.618369
1.720  71.594516
1.719  71.619090
1.718  71.652944
1.717  71.673453
1.716  71.620977
1.715  71.643040
1.714  71.689835
1.713  71.751941
1.712  71.678539
1.711  71.684934
1.710  71.730021
1.709  71.711342
1.708  71.751817
1.707  71.659216
1.706  71.647013
1.705  71.701190
1.704  71.754507
1.703  71.730833
1.702  71.754180
1.701  71.764591
1.700  71.719925
1.699  71.725941
1.698  71.689752
1.697  71.690344
1.696  71.667990
1.695  71.769223
1.694  71.763380
1.693  71.848391
1.692  71.790873
1.691  71.730876
1.690  71.767130
1.689  71.726882
1.688  71.661735
1.687  71.776879
1.686  71.754737
1.685  71.728901
1.684  71.751314
1.683  71.760398
1.682  71.778620
1.681  71.740923
1.680  71.743386
1.679  71.790296
1.678  71.711702
1.677  71.652536
1.676  71.787831
1.675  71.775046
1.674  71.741856
1.673  71.710452
1.672  71.765028
1.671  71.823292
1.670  71.764606
1.669  71.793943
1.668  71.723915
1.667  71.713982
1.666  71.779758
1.665  71.753313
1.664  71.671239
1.663  71.742762
1.662  71.718025
1.661  71.741722
1.660  71.664140
1.659  71.726306
1.658  71.692125
1.657  71.744946
1.656  71.710171
1.655  71.646591
1.654  71.677938
1.653  71.673166
1.652  71.695467
1.651  71.657695
1.650  71.637259
1.649  71.700508
1.648  71.645918
1.647  71.614423
1.646  71.610792
1.645  71.705836
1.644  71.554359
1.643  71.620068
1.642  71.541913
1.641  71.613596
1.640  71.593610
1.639  71.582685
1.638  71.495553
1.637  71.597575
1.636  71.546903
1.635  71.574924
1.634  71.472154
1.633  71.637728
1.632  71.544557
1.631  71.619799
1.630  71.493034
1.629  71.446902
1.628  71.485392
1.627  71.537829
1.626  71.574528
1.625  71.536822
1.624  71.496034
1.623  71.556702
1.622  71.412855
1.621  71.614153
1.620  71.492938
1.619  71.515370
1.618  71.573736
1.617  71.494220
1.616  71.485775
1.615  71.485386
1.614  71.487506
1.613  71.425126
1.612  71.388035
1.611  71.411267
1.610  71.414318
1.609  71.453809
1.608  71.408730
1.607  71.392712
1.606  71.371578
1.605  71.466494
1.604  71.408524
1.603  71.356545
1.602  71.373860
1.601  71.354415
1.600  71.339205
1.599  71.334521
1.598  71.273254
1.597  71.283479
1.596  71.199614
1.595  71.227039
1.594  71.292383
1.593  71.288481
1.592  71.249799
1.591  71.177195
1.590  71.222741
1.589  71.209247
1.588  71.207646
1.587  71.184690
1.586  71.123823
1.585  71.139194
1.584  71.094624
1.583  71.102103
1.582  71.059061
1.581  71.090256
1.580  71.038475
1.579  70.996022
1.578  71.007262
1.577  70.985404
1.576  70.919578
1.575  70.927383
1.574  70.913302
1.573  70.914019
1.572  70.872547
1.571  70.868381
1.570  70.842581
1.569  70.814005
1.568  70.814654
1.567  70.777216
1.566  70.777609
1.565  70.705428
1.564  70.652114
1.563  70.689649
1.562  70.734822
1.561  70.694664
1.560  70.627939
1.559  70.632256
1.558  70.691861
1.557  70.609527
1.556  70.619941
1.555  70.670954
1.554  70.543948
1.553  70.515975
1.552  70.534874
1.551  70.542366
1.550  70.543045
1.549  70.569068
1.548  70.517473
1.547  70.493037
1.546  70.430591
1.545  70.449392
1.544  70.382637
1.543  70.344621
1.542  70.327541
1.541  70.316547
1.540  70.284578
1.539  70.308654
1.538  70.251242
1.537  70.251568
1.536  70.248567
1.535  70.250477
1.534  70.183140
1.533  70.151194
1.532  70.139726
1.531  70.118733
1.530  70.119357
1.529  70.090614
1.528  70.039510
1.527  70.046830
1.526  70.047757
1.525  69.989169
1.524  69.953922
1.523  69.950498
1.522  69.955567
1.521  69.907422
1.520  69.815762
1.519  69.812482
1.518  69.803758
1.517  69.772913
1.516  69.740640
1.515  69.781422
1.514  69.773481
1.513  69.712415
1.512  69.689711
1.511  69.615068
1.510  69.607070
1.509  69.594436
1.508  69.492532
1.507  69.483909
1.506  69.489892
1.505  69.465894
1.504  69.447256
1.503  69.431152
1.502  69.398450
1.501  69.355295
1.500  69.310214
1.499  69.273618
1.498  69.212068
1.497  69.200475
1.496  69.172266
1.495  69.161340
1.494  69.108808
1.493  69.040632
1.492  69.034026
1.491  68.995383
1.490  68.983577
1.489  68.940255
1.488  68.912615
1.487  68.847478
1.486  68.800607
1.485  68.806684
1.484  68.799458
1.483  68.760999
1.482  68.701878
1.481  68.662832
1.480  68.632028
1.479  68.615376
1.478  68.657468
1.477  68.578480
1.476  68.536010
1.475  68.541960
1.474  68.487144
1.473  68.444792
1.472  68.375684
1.471  68.360949
1.470  68.423025
1.469  68.342799
1.468  68.330557
1.467  68.322390
1.466  68.310870
1.465  68.230803
1.464  68.189711
1.463  68.232459
1.462  68.209981
1.461  68.143744
1.460  68.156529
1.459  68.147124
1.458  68.112397
1.457  68.080255
1.456  68.072688
1.455  68.070311
1.454  68.096675
1.453  68.038898
1.452  68.069167
1.451  68.073711
1.450  68.089874
1.449  68.070055
1.448  68.046303
1.447  68.016321
1.446  68.042974
1.445  68.034147
1.444  68.028550
1.443  68.034713
1.442  68.003049
1.441  68.003000
1.440  68.027306
1.439  68.029080
1.438  67.994820
1.437  67.954841
1.436  67.987223
1.435  67.968267
1.434  67.937667
1.433  67.984031
1.432  67.978465
1.431  67.956732
1.430  67.977627
1.429  67.993815
1.428  68.008379
1.427  68.005803
1.426  67.992593
1.425  68.033880
1.424  68.054640
1.423  67.982314
1.422  67.989574
1.421  68.068089
1.420  68.120271
1.419  68.107992
1.418  68.149835
1.417  68.098579
1.416  68.048996
1.415  68.045596
1.414  68.128298
1.413  68.161237
1.412  68.209491
1.411  68.208818
1.410  68.276492
1.409  68.314119
1.408  68.340712
1.407  68.416497
1.406  68.419141
1.405  68.413445
1.404  68.489152
1.403  68.512625
1.402  68.634687
1.401  68.593027
1.400  68.707266
1.399  68.722242
1.398  68.754771
1.397  68.858192
1.396  68.864400
1.395  68.828356
1.394  69.009198
1.393  69.080851
1.392  69.071571
1.391  69.024126
1.390  69.127402
1.389  69.179363
1.388  69.201435
1.387  69.147221
1.386  69.246976
1.385  69.202445
1.384  69.312018
1.383  69.258445
1.382  69.221517
1.381  69.232895
1.380  69.245222
1.379  69.187698
1.378  69.163646
1.377  69.250704
1.376  69.246373
1.375  69.310102
1.374  69.297511
1.373  69.193142
1.372  69.276161
1.371  69.234305
1.370  69.256381
1.369  69.185299
1.368  69.280075
1.367  69.191130
1.366  69.164835
1.365  69.181646
1.364  69.202435
1.363  69.200908
1.362  69.165034
1.361  69.156761
1.360  69.127910
1.359  69.084442
1.358  69.089498
1.357  69.080322
1.356  69.051680
1.355  69.011598
1.354  69.050013
1.353  69.038580
1.352  68.993189
1.351  69.021727
1.350  68.922979
1.349  69.017734
1.348  69.047252
1.347  68.933257
1.346  68.908607
1.345  68.888290
1.344  68.830962
1.343  68.862155
1.342  68.797931
1.341  68.956470
1.340  68.879799
1.339  68.795376
1.338  68.870004
1.337  68.810017
1.336  68.740307
1.335  68.724169
1.334  68.772309
1.333  68.740028
1.332  68.720336
1.331  68.753775
1.330  68.819862
1.329  68.649725
1.328  68.698552
1.327  68.645645
1.326  68.628144
1.325  68.648556
1.324  68.707633
1.323  68.536751
1.322  68.542702
1.321  68.631121
1.320  68.591043
1.319  68.473236
1.318  68.472926
1.317  68.520832
1.316  68.537315
1.315  68.485137
1.314  68.397958
1.313  68.446214
1.312  68.453528
1.311  68.384528
1.310  68.375915
1.309  68.366935
1.308  68.319583
1.307  68.225423
1.306  68.334816
1.305  68.315428
1.304  68.303838
1.303  68.213889
1.302  68.298453
1.301  68.245400
1.300  68.275422
1.299  68.168705
1.298  68.229287
1.297  68.113662
1.296  68.099379
1.295  68.080566
1.294  68.064400
1.293  68.025152
1.292  67.977885
1.291  67.966305
1.290  68.005141
1.289  67.961793
1.288  67.965274
1.287  67.964888
1.286  67.937008
1.285  67.931782
1.284  67.821138
1.283  67.873137
1.282  67.884760
1.281  67.838827
1.280  67.753109
1.279  67.679497
1.278  67.749496
1.277  67.771572
1.276  67.728841
1.275  67.747134
1.274  67.716901
1.273  67.618680
1.272  67.667718
1.271  67.660658
1.270  67.674369
1.269  67.596429
1.268  67.573056
1.267  67.558590
1.266  67.468612
1.265  67.462953
1.264  67.461160
1.263  67.380104
1.262  67.378420
1.261  67.367297
1.260  67.376302
1.259  67.392669
1.258  67.373035
1.257  67.316732
1.256  67.231089
1.255  67.205262
1.254  67.188931
1.253  67.161534
1.252  67.184744
1.251  67.129027
1.250  67.114799
1.249  67.111468
1.248  67.138555
1.247  67.062605
1.246  66.974143
1.245  66.965251
1.244  67.018962
1.243  66.971448
1.242  66.907412
1.241  66.879405
1.240  66.879616
1.239  66.836497
1.238  66.825321
1.237  66.751229
1.236  66.753595
1.235  66.755907
1.234  66.727213
1.233  66.653720
1.232  66.655671
1.231  66.651476
1.230  66.598304
1.229  66.576850
1.228  66.537210
1.227  66.530274
1.226  66.530329
1.225  66.501335
1.224  66.488981
1.223  66.407517
1.222  66.344739
1.221  66.313268
1.220  66.337869
1.219  66.357260
1.218  66.312035
1.217  66.269991
1.216  66.233605
1.215  66.241865
1.214  66.215416
1.213  66.096912
1.212  66.045099
1.211  66.076577
1.210  66.070378
1.209  66.028392
1.208  65.980860
1.207  65.933072
1.206  65.901371
1.205  65.901403
1.204  65.911947
1.203  65.937316
1.202  65.885584
1.201  65.793413
1.200  65.767385
1.199  65.780233
1.198  65.750426
1.197  65.746978
1.196  65.716446
1.195  65.618429
1.194  65.585106
1.193  65.632618
1.192  65.584098
1.191  65.544098
1.190  65.484469
1.189  65.466873
1.188  65.409951
1.187  65.386216
1.186  65.372908
1.185  65.309128
1.184  65.314695
1.183  65.306625
1.182  65.290957
1.181  65.264425
1.180  65.167669
1.179  65.144463
1.178  65.179555
1.177  65.122234
1.176  65.042178
1.175  65.019153
1.174  65.069605
1.173  65.023932
1.172  64.947814
1.171  64.923109
1.170  64.915232
1.169  64.862245
1.168  64.835345
1.167  64.804702
1.166  64.702838
1.165  64.783613
1.164  64.725288
1.163  64.630536
1.162  64.655057
1.161  64.632275
1.160  64.619906
1.159  64.589403
1.158  64.484839
1.157  64.452444
1.156  64.416072
1.155  64.492178
1.154  64.429926
1.153  64.385422
1.152  64.385032
1.151  64.341261
1.150  64.353579
1.149  64.289545
1.148  64.270470
1.147  64.227198
1.146  64.163546
1.145  64.107123
1.144  64.097428
1.143  64.072314
1.142  64.014642
1.141  64.044421
1.140  63.978777
1.139  63.967525
1.138  63.892739
1.137  63.897419
1.136  63.944226
1.135  63.809890
1.134  63.796914
1.133  63.739012
1.132  63.703332
1.131  63.786891
1.130  63.759376
1.129  63.630719
1.128  63.608559
1.127  63.552987
1.126  63.495506
1.125  63.512083
1.124  63.487472
1.123  63.462293
1.122  63.463249
1.121  63.390406
1.120  63.347026
1.119  63.296769
1.118  63.226054
1.117  63.287752
1.116  63.203277
1.115  63.245131
1.114  63.137020
1.113  63.041762
1.112  63.073993
1.111  63.019503
1.110  63.016159
1.109  62.981686
1.108  62.924720
1.107  62.933503
1.106  62.900127
1.105  62.890772
1.104  62.775073
1.103  62.791952
1.102  62.789725
1.101  62.714325
1.100  62.601634
1.099  62.640072
1.098  62.642541
1.097  62.526320
1.096  62.550133
1.095  62.451923
1.094  62.461639
1.093  62.344022
1.092  62.395932
1.091  62.350770
1.090  62.269836
1.089  62.376382
1.088  62.131483
1.087  62.275929
1.086  62.193968
1.085  62.198441
1.084  62.150765
1.083  62.039811
1.082  62.027376
1.081  62.019460
1.080  61.973035
1.079  61.996762
1.078  61.913257
1.077  61.898356
1.076  61.756648
1.075  61.838261
1.074  61.754627
1.073  61.815695
1.072  61.673721
1.071  61.762318
1.070  61.519189
1.069  61.729871
1.068  61.627260
1.067  61.545746
1.066  61.466472
1.065  61.472555
1.064  61.439005
1.063  61.371252
1.062  61.356117
1.061  61.349443
1.060  61.318854
1.059  61.286113
1.058  61.115592
1.057  61.253636
1.056  61.180207
1.055  61.132004
1.054  60.979798
1.053  61.115906
1.052  60.984484
1.051  60.986332
1.050  60.985268
1.049  60.966687
1.048  60.870577
1.047  60.939753
1.046  60.853749
1.045  60.818352
1.044  60.737472
1.043  60.791231
1.042  60.663229
1.041  60.655122
1.040  60.606194
1.039  60.625031
1.038  60.594465
1.037  60.538090
1.036  60.550363
1.035  60.489967
1.034  60.421230
1.033  60.382729
1.032  60.293228
1.031  60.328977
1.030  60.310055
1.029  60.270087
1.028  60.182490
1.027  60.178219
1.026  60.168647
1.025  60.078229
1.024  60.047696
1.023  60.054940
1.022  60.007517
1.021  60.013276
1.020  59.876083
1.019  59.917527
1.018  59.845650
1.017  59.773631
1.016  59.776595
1.015  59.815070
1.014  59.705488
1.013  59.687001
1.012  59.668582
1.011  59.674731
1.010  59.584303
1.009  59.559075
1.008  59.522336
1.007  59.530762
1.006  59.403638
1.005  59.465385
1.004  59.460458
1.003  59.373234
1.002  59.365868
1.001  59.315988
1.000  59.240597
0.999  59.235303
0.998  59.193289
0.997  59.235552
0.996  59.191369
0.995  59.120795
0.994  59.031202
0.993  59.091374
0.992  59.018113
0.991  58.964846
0.990  58.901666
0.989  58.905092
0.988  58.829551
0.987  58.861287
0.986  58.819513
0.985  58.737965
0.984  58.708342
0.983  58.652580
0.982  58.593434
0.981  58.621043
0.980  58.588889
0.979  58.584855
0.978  58.538675
0.977  58.479969
0.976  58.430641
0.975  58.327349
0.974  58.344879
0.973  58.375358
0.972  58.353635
0.971  58.320460
0.970  58.270751
0.969  58.204316
0.968  58.137836
0.967  58.146133
0.966  58.107428
0.965  58.076402
0.964  58.034552
0.963  58.043338
0.962  57.935074
0.961  57.900900
0.960  57.891407
0.959  57.815578
0.958  57.797867
0.957  57.760800
0.956  57.698000
0.955  57.709688
0.954  57.720315
0.953  57.688405
0.952  57.635266
0.951  57.536152
0.950  57.513153
0.949  57.540684
0.948  57.468411
0.947  57.376897
0.946  57.368250
0.945  57.354115
0.944  57.297608
0.943  57.290384
0.942  57.238813
0.941  57.203046
0.940  57.176069
0.939  57.133491
0.938  57.060937
0.937  57.014028
0.936  56.931577
0.935  56.907459
0.934  56.890609
0.933  56.833579
0.932  56.798566
0.931  56.823748
0.930  56.795530
0.929  56.754053
0.928  56.750540
0.927  56.710717
0.926  56.603228
0.925  56.543471
0.924  56.528032
0.923  56.506797
0.922  56.458887
0.921  56.424311
0.920  56.373386
0.919  56.310997
0.918  56.325363
0.917  56.305094
0.916  56.232636
0.915  56.167598
0.914  56.136614
0.913  56.086598
0.912  56.043360
0.911  56.034629
0.910  55.995722
0.909  55.941829
0.908  55.921333
0.907  55.847797
0.906  55.738436
0.905  55.779681
0.904  55.824062
0.903  55.755780
0.902  55.659543
0.901  55.561729
0.900  55.541311
0.899  55.489201
0.898  55.556261
0.897  55.532289
0.896  55.421236
0.895  55.330682
0.894  55.312260
0.893  55.308233
0.892  55.366626
0.891  55.290393
0.890  55.204314
0.889  55.198959
0.888  55.232345
0.887  55.134516
0.886  55.061228
0.885  55.015985
0.884  54.999481
0.883  54.908413
0.882  54.887363
0.881  54.864120
0.880  54.912610
0.879  54.836429
0.878  54.795887
0.877  54.703784
0.876  54.693948
0.875  54.659186
0.874  54.610648
0.873  54.594733
0.872  54.496379
0.871  54.479912
0.870  54.516989
0.869  54.456578
0.868  54.419967
0.867  54.376491
0.866  54.289705
0.865  54.194885
0.864  54.254258
0.863  54.187713
0.862  54.142682
0.861  54.130683
0.860  54.161077
0.859  54.089481
0.858  54.094241
0.857  53.991668
0.856  53.970138
0.855  53.954158
0.854  53.933943
0.853  53.887228
0.852  53.835682
0.851  53.855197
0.850  53.765929
0.849  53.735564
0.848  53.720338
0.847  53.669842
0.846  53.610918
0.845  53.616343
0.844  53.634494
0.843  53.495398
0.842  53.471287
0.841  53.461295
0.840  53.390145
0.839  53.393863
0.838  53.381189
0.837  53.290394
0.836  53.288074
0.835  53.263212
0.834  53.166534
0.833  53.198571
0.832  53.156647
0.831  53.113202
0.830  53.060023
0.829  53.016805
0.828  52.959393
0.827  52.939370
0.826  52.908194
0.825  52.846622
0.824  52.826812
0.823  52.777338
0.822  52.732442
0.821  52.715396
0.820  52.648812
0.819  52.633994
0.818  52.578168
0.817  52.547770
0.816  52.504002
0.815  52.469117
0.814  52.394472
0.813  52.394513
0.812  52.358952
0.811  52.284214
0.810  52.237923
0.809  52.215529
0.808  52.140784
0.807  52.123570
0.806  52.101961
0.805  52.036419
0.804  51.981284
0.803  51.963710
0.802  51.893640
0.801  51.839232
0.800  51.815164
0.799  51.721706
0.798  51.697445
0.797  51.638607
0.796  51.577000
0.795  51.520627
0.794  51.505965
0.793  51.416391
0.792  51.356368
0.791  51.339494
0.790  51.327327
0.789  51.237427
0.788  51.223205
0.787  51.176640
0.786  51.096164
0.785  51.064993
0.784  51.029817
0.783  50.979995
0.782  50.898912
0.781  50.895922
0.780  50.798006
0.779  50.768440
0.778  50.710849
0.777  50.684669
0.776  50.591852
0.775  50.540947
0.774  50.513947
0.773  50.470028
0.772  50.410481
0.771  50.334697
0.770  50.302437
0.769  50.247363
0.768  50.234467
0.767  50.162130
0.766  50.103472
0.765  50.063580
0.764  50.014310
0.763  49.948984
0.762  49.891529
0.761  49.848885
0.760  49.789566
0.759  49.755013
0.758  49.700014
0.757  49.640500
0.756  49.582941
0.755  49.548156
0.754  49.487559
0.753  49.458007
0.752  49.403125
0.751  49.336862
0.750  49.277416
0.749  49.225928
0.748  49.167940
0.747  49.107956
0.746  49.055343
0.745  49.017645
0.744  48.947282
0.743  48.892298
0.742  48.841349
0.741  48.788574
0.740  48.733060
0.739  48.684168
0.738  48.633737
0.737  48.574977
0.736  48.518754
0.735  48.462809
0.734  48.396820
0.733  48.352535
0.732  48.300264
0.731  48.228458
0.730  48.175983
0.729  48.122892
0.728  48.067634
0.727  48.003558
0.726  47.929702
0.725  47.877159
0.724  47.833758
0.723  47.774370
0.722  47.698160
0.721  47.641732
0.720  47.602031
0.719  47.535402
0.718  47.457993
0.717  47.409739
0.716  47.355593
0.715  47.303011
0.714  47.242046
0.713  47.174603
0.712  47.122967
0.711  47.052214
0.710  46.989036
0.709  46.937922
0.708  46.868004
0.707  46.810847
0.706  46.749862
0.705  46.708207
0.704  46.631360
0.703  46.577820
0.702  46.513334
0.701  46.454647
0.700  46.392236
0.699  46.335296
0.698  46.292288
0.697  46.221640
0.696  46.164347
0.695  46.097976
0.694  46.038648
0.693  45.971056
0.692  45.921453
0.691  45.859386
0.690  45.792100
0.689  45.720985
0.688  45.675029
0.687  45.610442
0.686  45.557711
0.685  45.500117
0.684  45.423762
0.683  45.369098
0.682  45.322736
0.681  45.248942
0.680  45.185791
0.679  45.128489
0.678  45.061031
0.677  45.001156
0.676  44.943981
0.675  44.873892
0.674  44.804896
0.673  44.760293
0.672  44.692464
0.671  44.619189
0.670  44.570624
0.669  44.505930
0.668  44.437741
0.667  44.384329
0.666  44.321558
0.665  44.259385
0.664  44.194600
0.663  44.142025
0.662  44.091763
0.661  44.025730
0.660  43.952862
0.659  43.888288
0.658  43.830263
0.657  43.761510
0.656  43.698677
0.655  43.641350
0.654  43.574909
0.653  43.511463
0.652  43.448150
0.651  43.392110
0.650  43.320475
0.649  43.253352
0.648  43.190146
0.647  43.125525
0.646  43.067337
0.645  43.010911
0.644  42.948052
0.643  42.871099
0.642  42.803161
0.641  42.748860
0.640  42.691621
0.639  42.635172
0.638  42.564662
0.637  42.498476
0.636  42.440645
0.635  42.369649
0.634  42.300867
0.633  42.239494
0.632  42.179927
0.631  42.115897
0.630  42.053421
0.629  41.990614
0.628  41.922521
0.627  41.855901
0.626  41.789080
0.625  41.730605
0.624  41.676458
0.623  41.598958
0.622  41.517327
0.621  41.460503
0.620  41.411934
0.619  41.344244
0.618  41.275081
0.617  41.211310
0.616  41.146596
0.615  41.077189
0.614  41.008670
0.613  40.946701
0.612  40.886097
0.611  40.821630
0.610  40.757454
0.609  40.679108
0.608  40.610652
0.607  40.553757
0.606  40.490094
0.605  40.417326
0.604  40.354695
0.603  40.291344
0.602  40.226710
0.601  40.159283
0.600  40.087035
0.599  40.035001
0.598  39.975547
0.597  39.911591
0.596  39.853207
0.595  39.799968
0.594  39.734290
0.593  39.665109
0.592  39.589914
0.591  39.524554
0.590  39.457254
0.589  39.385026
0.588  39.319267
0.587  39.254613
0.586  39.189345
0.585  39.118319
0.584  39.047114
0.583  38.984011
0.582  38.917703
0.581  38.846458
0.580  38.775245
0.579  38.707279
0.578  38.627477
0.577  38.560716
0.576  38.489130
0.575  38.416570
0.574  38.354396
0.573  38.289302
0.572  38.206633
0.571  38.140898
0.570  38.067656
0.569  38.001686
0.568  37.934586
0.567  37.863789
0.566  37.798799
0.565  37.726021
0.564  37.654158
0.563  37.583099
0.562  37.511291
0.561  37.412378
0.560  37.331235
0.559  37.252352
0.558  37.178781
0.557  37.107317
0.556  37.043412
0.555  36.964951
0.554  36.895227
0.553  36.816252
0.552  36.747158
0.551  36.675526
0.550  36.594170
0.549  36.529238
0.548  36.450712
0.547  36.378248
0.546  36.291986
0.545  36.221369
0.544  36.149563
0.543  36.066104
0.542  35.996504
0.541  35.919769
0.540  35.840038
0.539  35.763678
0.538  35.688179
0.537  35.609692
0.536  35.546218
0.535  35.460848
0.534  35.383927
0.533  35.304572
0.532  35.222455
0.531  35.148367
0.530  35.095763
0.529  35.023640
0.528  34.945765
0.527  34.877438
0.526  34.796211
0.525  34.702252
0.524  34.640201
0.523  34.556978
0.522  34.480726
0.521  34.403986
0.520  34.319952
0.519  34.248661
0.518  34.167446
0.517  34.084800
0.516  34.008918
0.515  33.927627
0.514  33.852366
0.513  33.760788
0.512  33.698030
0.511  33.612449
0.510  33.531778
0.509  33.449852
0.508  33.365540
0.507  33.284393
0.506  33.193313
0.505  33.119430
0.504  33.021772
0.503  32.931978
0.502  32.859020
0.501  32.772809
0.500  32.692412
0.499  32.638269
0.498  32.566220
0.497  32.479724
0.496  32.405342
0.495  32.308718
0.494  32.219908
0.493  32.145933
0.492  32.046830
0.491  31.976739
0.490  31.886104
0.489  31.794636
0.488  31.720303
0.487  31.622652
0.486  31.535858
0.485  31.454355
0.484  31.365947
0.483  31.297594
0.482  31.245157
0.481  31.185713
0.480  31.126663
0.479  31.071314
0.478  31.019014
0.477  30.955439
0.476  30.894965
0.475  30.842657
0.474  30.767213
0.473  30.692864
0.472  30.637844
0.471  30.564847
0.470  30.508709
0.469  30.441554
0.468  30.385448
0.467  30.321179
0.466  30.251498
0.465  30.193069
0.464  30.135880
0.463  30.061046
0.462  29.986799
0.461  29.937300
0.460  29.866752
0.459  29.788610
0.458  29.732704
0.457  29.664500
0.456  29.593136
0.455  29.514227
0.454  29.433852
0.453  29.374697
0.452  29.294871
0.451  29.221468
0.450  29.141628
0.449  29.064703
0.448  28.987231
0.447  28.899205
0.446  28.804666
0.445  28.708773
0.444  28.629713
0.443  28.540303
0.442  28.457223
0.441  28.362725
0.440  28.268942
0.439  28.181489
0.438  28.092960
0.437  27.995574
0.436  27.907224
0.435  27.814371
0.434  27.712262
0.433  27.610318
0.432  27.510800
0.431  27.424044
0.430  27.324970
0.429  27.228696
0.428  27.137032
0.427  27.040442
0.426  26.944585
0.425  26.841970
0.424  26.757512
0.423  26.650230
0.422  26.566652
0.421  26.476706
0.420  26.392188
0.419  26.302177
0.418  26.208881
0.417  26.112914
0.416  26.033674
0.415  25.948632
0.414  25.853958
0.413  25.773088
0.412  25.682732
0.411  25.596184
0.410  25.514672
0.409  25.424366
0.408  25.339565
0.407  25.255434
0.406  25.164534
0.405  25.080703
0.404  24.996825
0.403  24.915948
0.402  24.826546
0.401  24.738583
0.400  24.655002
