Name: Diabase
Type: Rock
Class: Igneous
Subclass:  Mafic 
Particle Size: Solid surface
Sample No.: Ward37.txt
Owner: JPL
Wavelength range:  VNIR SWIR IR 
Origin: Ward's Collection of American Rocks.  Sample locality - Somerville, Suffolk County, Massachusetts.
Collected by:  Ward's Natural Science
Description: Coarse grained, greenish-gray rock showing diabase texture.
Composed of labradorite, biotite and pyroxene.
Geologic Age - Triassic.



Measurement: Hemispherical reflectance
First Column: X
Second Column: Y
X Units: Wavelength (micrometers)
Y Units: Reflectance (percent)
First X Value: 2.500
Last X Value: 0.400
Number of X Values: 2101
Additional information: None

2.500  15.232531
2.499  14.669980
2.498  15.004141
2.497  15.071892
2.496  14.568789
2.495  15.037570
2.494  14.942992
2.493  14.650514
2.492  14.921993
2.491  14.799420
2.490  14.773495
2.489  14.837864
2.488  14.972011
2.487  14.707897
2.486  15.047262
2.485  14.873071
2.484  14.946230
2.483  14.902010
2.482  14.922639
2.481  14.810211
2.480  15.119204
2.479  14.939433
2.478  15.014415
2.477  14.915568
2.476  15.149377
2.475  14.981274
2.474  15.071861
2.473  15.036109
2.472  15.108659
2.471  15.039332
2.470  15.223993
2.469  15.050127
2.468  15.329923
2.467  15.021182
2.466  15.342781
2.465  15.135609
2.464  15.450671
2.463  15.132175
2.462  15.308015
2.461  15.169746
2.460  15.409970
2.459  15.249276
2.458  15.322985
2.457  15.395775
2.456  15.471137
2.455  15.421859
2.454  15.471684
2.453  15.301282
2.452  15.478317
2.451  15.335306
2.450  15.465486
2.449  15.359933
2.448  15.576753
2.447  15.478569
2.446  15.526769
2.445  15.548073
2.444  15.569088
2.443  15.549368
2.442  15.657667
2.441  15.659764
2.440  15.610697
2.439  15.557547
2.438  15.602331
2.437  15.607343
2.436  15.664382
2.435  15.604387
2.434  15.743488
2.433  15.697383
2.432  15.717844
2.431  15.693983
2.430  15.705566
2.429  15.587674
2.428  15.722273
2.427  15.758824
2.426  15.795460
2.425  15.728279
2.424  15.756058
2.423  15.714996
2.422  15.720247
2.421  15.693094
2.420  15.737730
2.419  15.722638
2.418  15.826182
2.417  15.733240
2.416  15.713008
2.415  15.705126
2.414  15.766002
2.413  15.754040
2.412  15.770720
2.411  15.727601
2.410  15.770504
2.409  15.760751
2.408  15.801289
2.407  15.748087
2.406  15.754826
2.405  15.729394
2.404  15.792722
2.403  15.763364
2.402  15.788364
2.401  15.709302
2.400  15.752215
2.399  15.710145
2.398  15.720076
2.397  15.771486
2.396  15.749874
2.395  15.666123
2.394  15.730736
2.393  15.677056
2.392  15.729219
2.391  15.718976
2.390  15.727373
2.389  15.751036
2.388  15.781989
2.387  15.714350
2.386  15.694381
2.385  15.657708
2.384  15.691528
2.383  15.722125
2.382  15.710562
2.381  15.665485
2.380  15.672625
2.379  15.652345
2.378  15.645948
2.377  15.652972
2.376  15.593969
2.375  15.548517
2.374  15.555406
2.373  15.530670
2.372  15.548013
2.371  15.547962
2.370  15.513434
2.369  15.485601
2.368  15.425837
2.367  15.424328
2.366  15.439157
2.365  15.360535
2.364  15.274016
2.363  15.203228
2.362  15.161434
2.361  15.124066
2.360  15.120076
2.359  15.102617
2.358  15.037396
2.357  14.990427
2.356  15.023981
2.355  14.990815
2.354  14.951416
2.353  14.946620
2.352  14.980229
2.351  14.969693
2.350  14.952831
2.349  14.938536
2.348  14.917363
2.347  14.961151
2.346  14.973148
2.345  14.931767
2.344  14.945307
2.343  14.992638
2.342  15.014951
2.341  15.002095
2.340  14.988942
2.339  15.078742
2.338  15.111689
2.337  15.104837
2.336  15.092996
2.335  15.148676
2.334  15.175844
2.333  15.272873
2.332  15.278440
2.331  15.315803
2.330  15.359246
2.329  15.418838
2.328  15.450336
2.327  15.551499
2.326  15.627874
2.325  15.695313
2.324  15.742696
2.323  15.844278
2.322  15.915230
2.321  16.047034
2.320  16.123212
2.319  16.241026
2.318  16.298637
2.317  16.490981
2.316  16.569437
2.315  16.626729
2.314  16.679437
2.313  16.783692
2.312  16.854323
2.311  16.920992
2.310  16.926013
2.309  17.054063
2.308  17.134304
2.307  17.217271
2.306  17.207168
2.305  17.317191
2.304  17.325980
2.303  17.445730
2.302  17.463613
2.301  17.562523
2.300  17.543106
2.299  17.577010
2.298  17.571689
2.297  17.665246
2.296  17.732234
2.295  17.730984
2.294  17.742409
2.293  17.821955
2.292  17.876779
2.291  17.866624
2.290  17.847118
2.289  18.025935
2.288  17.996418
2.287  18.017668
2.286  18.039404
2.285  18.075966
2.284  18.083503
2.283  18.185483
2.282  18.155663
2.281  18.244939
2.280  18.210982
2.279  18.293123
2.278  18.336641
2.277  18.311753
2.276  18.320346
2.275  18.506327
2.274  18.380276
2.273  18.437273
2.272  18.471118
2.271  18.508258
2.270  18.474103
2.269  18.575373
2.268  18.511182
2.267  18.593943
2.266  18.594067
2.265  18.643971
2.264  18.627986
2.263  18.633292
2.262  18.630156
2.261  18.626747
2.260  18.675121
2.259  18.731196
2.258  18.721495
2.257  18.709553
2.256  18.679966
2.255  18.750295
2.254  18.705496
2.253  18.770928
2.252  18.869305
2.251  18.860898
2.250  18.800167
2.249  18.968801
2.248  18.875749
2.247  18.967007
2.246  18.914323
2.245  18.956842
2.244  18.996316
2.243  19.100703
2.242  19.005025
2.241  19.164478
2.240  19.190713
2.239  19.163684
2.238  19.191016
2.237  19.357878
2.236  19.232766
2.235  19.366272
2.234  19.227213
2.233  19.427655
2.232  19.397968
2.231  19.397487
2.230  19.427502
2.229  19.438459
2.228  19.511477
2.227  19.528652
2.226  19.424291
2.225  19.564271
2.224  19.584382
2.223  19.584307
2.222  19.486089
2.221  19.633938
2.220  19.462539
2.219  19.603976
2.218  19.520851
2.217  19.566298
2.216  19.532657
2.215  19.575519
2.214  19.474866
2.213  19.515307
2.212  19.518804
2.211  19.445403
2.210  19.553464
2.209  19.515569
2.208  19.494004
2.207  19.529692
2.206  19.536592
2.205  19.456963
2.204  19.493894
2.203  19.586812
2.202  19.526928
2.201  19.620411
2.200  19.584552
2.199  19.709557
2.198  19.662062
2.197  19.732400
2.196  19.765790
2.195  19.771284
2.194  19.830837
2.193  19.936958
2.192  19.959557
2.191  20.021470
2.190  20.098664
2.189  20.153458
2.188  20.310888
2.187  20.432018
2.186  20.418984
2.185  20.569123
2.184  20.563607
2.183  20.741522
2.182  20.763282
2.181  20.943097
2.180  20.942194
2.179  21.133668
2.178  21.179975
2.177  21.301654
2.176  21.296824
2.175  21.400879
2.174  21.466124
2.173  21.546379
2.172  21.620065
2.171  21.700496
2.170  21.652247
2.169  21.827116
2.168  21.861580
2.167  21.980077
2.166  22.007290
2.165  22.027857
2.164  22.000250
2.163  22.115214
2.162  22.072765
2.161  22.205960
2.160  22.189565
2.159  22.182912
2.158  22.245127
2.157  22.360884
2.156  22.314945
2.155  22.388969
2.154  22.366339
2.153  22.481528
2.152  22.408357
2.151  22.536378
2.150  22.546158
2.149  22.563125
2.148  22.575828
2.147  22.610771
2.146  22.598192
2.145  22.720275
2.144  22.649985
2.143  22.741861
2.142  22.623816
2.141  22.748124
2.140  22.727811
2.139  22.723461
2.138  22.712821
2.137  22.790763
2.136  22.757727
2.135  22.801387
2.134  22.747666
2.133  22.819542
2.132  22.789266
2.131  22.824962
2.130  22.852405
2.129  22.812157
2.128  22.786369
2.127  22.853295
2.126  22.838147
2.125  22.843279
2.124  22.800807
2.123  22.822176
2.122  22.826943
2.121  22.875353
2.120  22.834854
2.119  22.903701
2.118  22.851949
2.117  22.880162
2.116  22.904522
2.115  22.831899
2.114  22.872408
2.113  22.907081
2.112  22.866708
2.111  22.919585
2.110  22.935829
2.109  22.889679
2.108  22.846994
2.107  22.876309
2.106  22.881101
2.105  22.861282
2.104  22.965409
2.103  22.962111
2.102  22.942521
2.101  22.948299
2.100  22.937145
2.099  22.976771
2.098  23.025185
2.097  23.068898
2.096  23.068263
2.095  23.029326
2.094  23.017453
2.093  23.071431
2.092  23.112995
2.091  23.105660
2.090  23.126537
2.089  23.119183
2.088  23.119265
2.087  23.156477
2.086  23.180176
2.085  23.201394
2.084  23.166550
2.083  23.184651
2.082  23.188661
2.081  23.207121
2.080  23.242293
2.079  23.234222
2.078  23.227198
2.077  23.220967
2.076  23.234003
2.075  23.258233
2.074  23.256374
2.073  23.234364
2.072  23.234064
2.071  23.271533
2.070  23.222014
2.069  23.243230
2.068  23.324048
2.067  23.266712
2.066  23.235195
2.065  23.253014
2.064  23.278003
2.063  23.301401
2.062  23.328312
2.061  23.329576
2.060  23.297085
2.059  23.281417
2.058  23.251424
2.057  23.248957
2.056  23.262442
2.055  23.258611
2.054  23.260678
2.053  23.230728
2.052  23.270139
2.051  23.243904
2.050  23.261626
2.049  23.245447
2.048  23.297955
2.047  23.268652
2.046  23.228806
2.045  23.241460
2.044  23.270548
2.043  23.249428
2.042  23.247330
2.041  23.194836
2.040  23.246656
2.039  23.230839
2.038  23.215411
2.037  23.200230
2.036  23.227374
2.035  23.210249
2.034  23.197762
2.033  23.175324
2.032  23.147069
2.031  23.150397
2.030  23.158951
2.029  23.093727
2.028  23.112009
2.027  23.076161
2.026  23.138713
2.025  23.063305
2.024  23.118769
2.023  23.098425
2.022  23.109149
2.021  23.046847
2.020  23.078179
2.019  23.075432
2.018  23.021507
2.017  22.927949
2.016  23.026784
2.015  23.024395
2.014  23.006717
2.013  22.958743
2.012  23.022493
2.011  22.997181
2.010  23.034107
2.009  22.936329
2.008  22.949761
2.007  22.966389
2.006  22.971412
2.005  22.942974
2.004  22.954526
2.003  22.823851
2.002  22.964994
2.001  22.947341
2.000  22.862295
1.999  22.856800
1.998  22.870490
1.997  22.841416
1.996  22.838157
1.995  22.819607
1.994  22.866227
1.993  22.798092
1.992  22.841906
1.991  22.801269
1.990  22.796083
1.989  22.718795
1.988  22.768551
1.987  22.743089
1.986  22.781464
1.985  22.762545
1.984  22.819851
1.983  22.719751
1.982  22.702189
1.981  22.654848
1.980  22.809819
1.979  22.693004
1.978  22.709216
1.977  22.733837
1.976  22.772523
1.975  22.628125
1.974  22.664210
1.973  22.620748
1.972  22.670460
1.971  22.737169
1.970  22.683004
1.969  22.682628
1.968  22.703406
1.967  22.612309
1.966  22.651616
1.965  22.574397
1.964  22.566059
1.963  22.654628
1.962  22.672215
1.961  22.534982
1.960  22.603416
1.959  22.548997
1.958  22.550321
1.957  22.518583
1.956  22.613182
1.955  22.454282
1.954  22.477446
1.953  22.518848
1.952  22.463024
1.951  22.467384
1.950  22.469398
1.949  22.429506
1.948  22.497698
1.947  22.318808
1.946  22.414803
1.945  22.357258
1.944  22.446297
1.943  22.305543
1.942  22.383517
1.941  22.279661
1.940  22.414185
1.939  22.285206
1.938  22.409871
1.937  22.279808
1.936  22.382455
1.935  22.289465
1.934  22.374592
1.933  22.329304
1.932  22.317881
1.931  22.275772
1.930  22.377435
1.929  22.267315
1.928  22.379983
1.927  22.476120
1.926  22.250767
1.925  22.365176
1.924  22.422515
1.923  22.272173
1.922  22.339830
1.921  22.290311
1.920  22.424033
1.919  22.306641
1.918  22.410122
1.917  22.346997
1.916  22.452473
1.915  22.405063
1.914  22.447106
1.913  22.490030
1.912  22.501601
1.911  22.481497
1.910  22.569753
1.909  22.547607
1.908  22.657269
1.907  22.655864
1.906  22.769548
1.905  22.725957
1.904  22.874564
1.903  22.854424
1.902  23.106722
1.901  23.017332
1.900  23.238014
1.899  23.163462
1.898  23.317264
1.897  23.401003
1.896  23.491810
1.895  23.510750
1.894  23.609482
1.893  23.688774
1.892  23.798604
1.891  23.784757
1.890  23.958615
1.889  23.961718
1.888  24.054502
1.887  24.009264
1.886  24.128867
1.885  24.137458
1.884  24.252271
1.883  24.243467
1.882  24.254005
1.881  24.166393
1.880  24.312904
1.879  24.263415
1.878  24.378349
1.877  24.307308
1.876  24.337125
1.875  24.373272
1.874  24.489952
1.873  24.477639
1.872  24.588367
1.871  24.550158
1.870  24.600681
1.869  24.619022
1.868  24.635258
1.867  24.681413
1.866  24.738448
1.865  24.686630
1.864  24.739356
1.863  24.659244
1.862  24.756743
1.861  24.666530
1.860  24.707218
1.859  24.682518
1.858  24.701351
1.857  24.708391
1.856  24.809132
1.855  24.693955
1.854  24.714149
1.853  24.814872
1.852  24.803424
1.851  24.732609
1.850  24.751338
1.849  24.716204
1.848  24.816118
1.847  24.733529
1.846  24.799653
1.845  24.822452
1.844  24.806438
1.843  24.800732
1.842  24.834448
1.841  24.752942
1.840  24.764574
1.839  24.781368
1.838  24.771957
1.837  24.870902
1.836  24.849919
1.835  24.771941
1.834  24.823207
1.833  24.795212
1.832  24.849359
1.831  24.839984
1.830  24.814328
1.829  24.758303
1.828  24.832001
1.827  24.800524
1.826  24.817803
1.825  24.721674
1.824  24.765266
1.823  24.806860
1.822  24.848429
1.821  24.783471
1.820  24.824721
1.819  24.802163
1.818  24.849494
1.817  24.791848
1.816  24.777485
1.815  24.769114
1.814  24.746861
1.813  24.802694
1.812  24.828951
1.811  24.769312
1.810  24.808142
1.809  24.834306
1.808  24.760655
1.807  24.773357
1.806  24.827465
1.805  24.790622
1.804  24.780416
1.803  24.794513
1.802  24.799325
1.801  24.757047
1.800  24.768106
1.799  24.764017
1.798  24.804372
1.797  24.805658
1.796  24.783805
1.795  24.752464
1.794  24.740987
1.793  24.743847
1.792  24.740557
1.791  24.754657
1.790  24.804967
1.789  24.792782
1.788  24.733815
1.787  24.685248
1.786  24.685754
1.785  24.730649
1.784  24.700184
1.783  24.698008
1.782  24.726244
1.781  24.709938
1.780  24.735918
1.779  24.738260
1.778  24.724571
1.777  24.711620
1.776  24.633052
1.775  24.660416
1.774  24.721863
1.773  24.711984
1.772  24.637049
1.771  24.677051
1.770  24.728643
1.769  24.735825
1.768  24.702517
1.767  24.681127
1.766  24.652965
1.765  24.672188
1.764  24.663468
1.763  24.624181
1.762  24.622476
1.761  24.640465
1.760  24.592771
1.759  24.573393
1.758  24.564852
1.757  24.656129
1.756  24.647435
1.755  24.584726
1.754  24.555812
1.753  24.631996
1.752  24.612110
1.751  24.578210
1.750  24.572427
1.749  24.591313
1.748  24.564738
1.747  24.604577
1.746  24.572782
1.745  24.563711
1.744  24.574781
1.743  24.612427
1.742  24.600159
1.741  24.593283
1.740  24.554119
1.739  24.574192
1.738  24.534630
1.737  24.535435
1.736  24.526794
1.735  24.564050
1.734  24.489913
1.733  24.547771
1.732  24.490207
1.731  24.482126
1.730  24.482230
1.729  24.527574
1.728  24.500292
1.727  24.557709
1.726  24.496100
1.725  24.515896
1.724  24.480783
1.723  24.477504
1.722  24.453656
1.721  24.429188
1.720  24.371341
1.719  24.415195
1.718  24.437458
1.717  24.448206
1.716  24.503003
1.715  24.458886
1.714  24.413742
1.713  24.349849
1.712  24.378281
1.711  24.437878
1.710  24.392867
1.709  24.344656
1.708  24.333673
1.707  24.369969
1.706  24.347071
1.705  24.352818
1.704  24.296527
1.703  24.349026
1.702  24.287202
1.701  24.289685
1.700  24.280868
1.699  24.305791
1.698  24.231895
1.697  24.237503
1.696  24.218442
1.695  24.276377
1.694  24.176161
1.693  24.179078
1.692  24.215080
1.691  24.202071
1.690  24.185816
1.689  24.236320
1.688  24.090466
1.687  24.200890
1.686  24.113390
1.685  24.173732
1.684  24.165948
1.683  24.127868
1.682  24.114448
1.681  24.108572
1.680  24.055125
1.679  24.151277
1.678  24.046792
1.677  24.063441
1.676  24.050602
1.675  24.027279
1.674  23.981072
1.673  24.014193
1.672  24.018186
1.671  24.012922
1.670  23.994591
1.669  23.940454
1.668  23.814895
1.667  24.001400
1.666  23.938035
1.665  23.941811
1.664  23.961605
1.663  23.933066
1.662  23.846230
1.661  23.960382
1.660  23.802312
1.659  24.028812
1.658  23.882785
1.657  23.896035
1.656  23.785987
1.655  23.831586
1.654  23.757535
1.653  23.799438
1.652  23.747705
1.651  23.817423
1.650  23.760074
1.649  23.756401
1.648  23.720503
1.647  23.754681
1.646  23.630895
1.645  23.784430
1.644  23.709347
1.643  23.692327
1.642  23.812501
1.641  23.605074
1.640  23.710011
1.639  23.630435
1.638  23.648761
1.637  23.702522
1.636  23.692018
1.635  23.569124
1.634  23.584853
1.633  23.649448
1.632  23.564467
1.631  23.595691
1.630  23.558825
1.629  23.618847
1.628  23.491970
1.627  23.507661
1.626  23.495367
1.625  23.593744
1.624  23.458554
1.623  23.440419
1.622  23.415504
1.621  23.513737
1.620  23.437466
1.619  23.438692
1.618  23.469344
1.617  23.436556
1.616  23.437209
1.615  23.328611
1.614  23.496785
1.613  23.452545
1.612  23.397046
1.611  23.387297
1.610  23.299564
1.609  23.296850
1.608  23.292084
1.607  23.384007
1.606  23.271837
1.605  23.376171
1.604  23.364837
1.603  23.361621
1.602  23.188127
1.601  23.297682
1.600  23.299248
1.599  23.241142
1.598  23.228183
1.597  23.245815
1.596  23.169805
1.595  23.173288
1.594  23.067389
1.593  23.156649
1.592  23.097427
1.591  23.157536
1.590  23.119317
1.589  23.132061
1.588  23.072585
1.587  23.122594
1.586  23.087349
1.585  23.022057
1.584  23.113805
1.583  23.036174
1.582  22.997952
1.581  22.978361
1.580  22.921353
1.579  22.988417
1.578  22.943939
1.577  23.006464
1.576  22.935467
1.575  22.981972
1.574  22.947095
1.573  22.900061
1.572  22.948492
1.571  22.909465
1.570  22.880314
1.569  22.864504
1.568  22.816735
1.567  22.844605
1.566  22.797707
1.565  22.844136
1.564  22.776115
1.563  22.803301
1.562  22.709901
1.561  22.751026
1.560  22.743637
1.559  22.731386
1.558  22.718001
1.557  22.662118
1.556  22.631195
1.555  22.646222
1.554  22.647709
1.553  22.641010
1.552  22.619751
1.551  22.628716
1.550  22.592236
1.549  22.576878
1.548  22.578725
1.547  22.626594
1.546  22.587539
1.545  22.578625
1.544  22.512559
1.543  22.530051
1.542  22.468532
1.541  22.481590
1.540  22.430027
1.539  22.470838
1.538  22.455683
1.537  22.408845
1.536  22.404884
1.535  22.460731
1.534  22.396107
1.533  22.379345
1.532  22.370178
1.531  22.415956
1.530  22.375090
1.529  22.294542
1.528  22.259592
1.527  22.336701
1.526  22.352329
1.525  22.346747
1.524  22.281119
1.523  22.185347
1.522  22.167237
1.521  22.200579
1.520  22.203324
1.519  22.155302
1.518  22.158091
1.517  22.165959
1.516  22.135217
1.515  22.157321
1.514  22.101370
1.513  22.089205
1.512  22.045857
1.511  22.022990
1.510  22.067989
1.509  22.082645
1.508  22.066240
1.507  22.028877
1.506  21.997212
1.505  21.989225
1.504  21.956436
1.503  21.954681
1.502  21.913137
1.501  21.892411
1.500  21.882086
1.499  21.878191
1.498  21.906676
1.497  21.874704
1.496  21.801633
1.495  21.734611
1.494  21.701957
1.493  21.688052
1.492  21.696407
1.491  21.659736
1.490  21.556625
1.489  21.472495
1.488  21.459280
1.487  21.392376
1.486  21.319244
1.485  21.315571
1.484  21.293410
1.483  21.151109
1.482  21.106583
1.481  21.064356
1.480  20.943968
1.479  20.903553
1.478  20.924440
1.477  20.861067
1.476  20.896613
1.475  20.929738
1.474  20.949637
1.473  20.946665
1.472  21.062030
1.471  21.131572
1.470  21.188647
1.469  21.246136
1.468  21.252989
1.467  21.247900
1.466  21.239590
1.465  21.223423
1.464  21.297500
1.463  21.261344
1.462  21.276374
1.461  21.236982
1.460  21.211548
1.459  21.201700
1.458  21.238555
1.457  21.159156
1.456  21.193726
1.455  21.165853
1.454  21.175603
1.453  21.076369
1.452  21.025678
1.451  20.996655
1.450  20.996955
1.449  21.002926
1.448  21.036334
1.447  21.017758
1.446  20.968824
1.445  20.946753
1.444  20.931708
1.443  20.916549
1.442  20.927633
1.441  20.902165
1.440  20.886368
1.439  20.841193
1.438  20.847918
1.437  20.804565
1.436  20.823536
1.435  20.832360
1.434  20.808687
1.433  20.806555
1.432  20.743174
1.431  20.658342
1.430  20.708906
1.429  20.609483
1.428  20.594902
1.427  20.490709
1.426  20.467345
1.425  20.348597
1.424  20.347355
1.423  20.211289
1.422  20.081663
1.421  20.028720
1.420  19.901985
1.419  19.744721
1.418  19.622831
1.417  19.373979
1.416  19.258370
1.415  19.199945
1.414  19.102149
1.413  19.043729
1.412  19.082913
1.411  19.029827
1.410  19.083770
1.409  19.058927
1.408  19.123355
1.407  19.131488
1.406  19.190367
1.405  19.198713
1.404  19.352819
1.403  19.433473
1.402  19.431183
1.401  19.517607
1.400  19.506255
1.399  19.559013
1.398  19.788835
1.397  19.768487
1.396  20.072537
1.395  20.028141
1.394  20.165496
1.393  20.200643
1.392  20.271948
1.391  20.384119
1.390  20.489893
1.389  20.416132
1.388  20.507148
1.387  20.498796
1.386  20.595140
1.385  20.493139
1.384  20.579995
1.383  20.591395
1.382  20.617183
1.381  20.571502
1.380  20.644173
1.379  20.563693
1.378  20.624953
1.377  20.531145
1.376  20.513998
1.375  20.527448
1.374  20.539114
1.373  20.428934
1.372  20.518195
1.371  20.496347
1.370  20.481095
1.369  20.462251
1.368  20.493526
1.367  20.397763
1.366  20.521859
1.365  20.490158
1.364  20.410449
1.363  20.407304
1.362  20.464591
1.361  20.280913
1.360  20.383940
1.359  20.349760
1.358  20.476030
1.357  20.329643
1.356  20.462412
1.355  20.074153
1.354  20.354808
1.353  20.236403
1.352  20.264959
1.351  20.185295
1.350  20.236716
1.349  20.154548
1.348  20.287274
1.347  20.063534
1.346  20.102635
1.345  20.080535
1.344  20.143602
1.343  20.101798
1.342  20.182409
1.341  19.998454
1.340  20.021391
1.339  20.045118
1.338  20.004223
1.337  19.964502
1.336  20.012279
1.335  19.937618
1.334  20.043474
1.333  19.891136
1.332  19.924865
1.331  19.913326
1.330  19.960473
1.329  19.890505
1.328  19.875267
1.327  19.863823
1.326  19.819846
1.325  19.765599
1.324  19.839213
1.323  19.784970
1.322  19.741983
1.321  19.706798
1.320  19.845686
1.319  19.763338
1.318  19.710914
1.317  19.703307
1.316  19.711980
1.315  19.674708
1.314  19.716154
1.313  19.608012
1.312  19.639464
1.311  19.597619
1.310  19.682319
1.309  19.603168
1.308  19.547018
1.307  19.538031
1.306  19.601738
1.305  19.457983
1.304  19.474902
1.303  19.497421
1.302  19.488546
1.301  19.393777
1.300  19.430719
1.299  19.405052
1.298  19.459439
1.297  19.434518
1.296  19.463809
1.295  19.403434
1.294  19.384440
1.293  19.388672
1.292  19.421146
1.291  19.345459
1.290  19.286910
1.289  19.306634
1.288  19.281117
1.287  19.285108
1.286  19.286427
1.285  19.247428
1.284  19.193155
1.283  19.259362
1.282  19.209613
1.281  19.125006
1.280  19.240640
1.279  19.216104
1.278  19.232572
1.277  19.202933
1.276  19.161195
1.275  19.128791
1.274  19.185773
1.273  19.129971
1.272  19.174917
1.271  19.053209
1.270  19.082445
1.269  18.998975
1.268  19.039761
1.267  19.045238
1.266  19.055244
1.265  19.051902
1.264  19.032781
1.263  18.956049
1.262  18.961991
1.261  18.957652
1.260  18.933516
1.259  18.892237
1.258  18.927231
1.257  18.882295
1.256  18.867173
1.255  18.876827
1.254  18.879186
1.253  18.813207
1.252  18.809702
1.251  18.766999
1.250  18.809527
1.249  18.767371
1.248  18.744598
1.247  18.714032
1.246  18.707546
1.245  18.709674
1.244  18.702736
1.243  18.711489
1.242  18.687036
1.241  18.645226
1.240  18.657919
1.239  18.615550
1.238  18.614090
1.237  18.618810
1.236  18.628777
1.235  18.596707
1.234  18.616705
1.233  18.609495
1.232  18.604585
1.231  18.564138
1.230  18.502438
1.229  18.509300
1.228  18.542169
1.227  18.509244
1.226  18.496071
1.225  18.529765
1.224  18.547292
1.223  18.514294
1.222  18.477240
1.221  18.381706
1.220  18.394012
1.219  18.453400
1.218  18.383740
1.217  18.342185
1.216  18.381323
1.215  18.370846
1.214  18.324980
1.213  18.319811
1.212  18.313243
1.211  18.266088
1.210  18.288899
1.209  18.314778
1.208  18.335151
1.207  18.335760
1.206  18.263601
1.205  18.272222
1.204  18.269867
1.203  18.266514
1.202  18.258888
1.201  18.213156
1.200  18.163835
1.199  18.167839
1.198  18.176136
1.197  18.163348
1.196  18.099727
1.195  18.082949
1.194  18.107457
1.193  18.153975
1.192  18.140844
1.191  18.182765
1.190  18.097152
1.189  18.019184
1.188  17.945776
1.187  18.045950
1.186  18.056232
1.185  18.033633
1.184  18.029755
1.183  18.012338
1.182  17.974906
1.181  17.991151
1.180  17.967415
1.179  18.010685
1.178  17.988610
1.177  17.952731
1.176  17.921628
1.175  17.965296
1.174  17.964907
1.173  17.938101
1.172  17.905410
1.171  17.879891
1.170  17.872043
1.169  17.892398
1.168  17.868906
1.167  17.901405
1.166  17.849834
1.165  17.854186
1.164  17.831103
1.163  17.840049
1.162  17.811455
1.161  17.835141
1.160  17.800286
1.159  17.863360
1.158  17.871191
1.157  17.850871
1.156  17.800799
1.155  17.792368
1.154  17.736611
1.153  17.692522
1.152  17.736011
1.151  17.733339
1.150  17.733546
1.149  17.737406
1.148  17.660642
1.147  17.729246
1.146  17.688957
1.145  17.704997
1.144  17.612891
1.143  17.629922
1.142  17.615085
1.141  17.714832
1.140  17.653764
1.139  17.695543
1.138  17.577841
1.137  17.631320
1.136  17.650824
1.135  17.589753
1.134  17.595348
1.133  17.645692
1.132  17.616650
1.131  17.676169
1.130  17.628331
1.129  17.634813
1.128  17.517549
1.127  17.584758
1.126  17.638114
1.125  17.567224
1.124  17.546717
1.123  17.507855
1.122  17.476415
1.121  17.564884
1.120  17.522457
1.119  17.626677
1.118  17.481077
1.117  17.494491
1.116  17.445609
1.115  17.448574
1.114  17.427547
1.113  17.473807
1.112  17.482844
1.111  17.551206
1.110  17.414436
1.109  17.437005
1.108  17.499427
1.107  17.493410
1.106  17.366481
1.105  17.439121
1.104  17.355265
1.103  17.455149
1.102  17.453138
1.101  17.437804
1.100  17.389735
1.099  17.385548
1.098  17.399004
1.097  17.435470
1.096  17.345555
1.095  17.322913
1.094  17.308924
1.093  17.369467
1.092  17.383358
1.091  17.416410
1.090  17.321857
1.089  17.338983
1.088  17.295405
1.087  17.378870
1.086  17.370998
1.085  17.364241
1.084  17.359335
1.083  17.350325
1.082  17.302301
1.081  17.434165
1.080  17.272679
1.079  17.369842
1.078  17.273349
1.077  17.310102
1.076  17.222657
1.075  17.376925
1.074  17.317534
1.073  17.302829
1.072  17.230698
1.071  17.411394
1.070  17.125700
1.069  17.433852
1.068  17.247112
1.067  17.265136
1.066  17.216897
1.065  17.353299
1.064  17.228069
1.063  17.328081
1.062  17.228860
1.061  17.366026
1.060  17.234364
1.059  17.304385
1.058  17.303877
1.057  17.307064
1.056  17.248311
1.055  17.309192
1.054  17.198798
1.053  17.296345
1.052  17.265607
1.051  17.344394
1.050  17.184674
1.049  17.327657
1.048  17.225844
1.047  17.247272
1.046  17.271526
1.045  17.206389
1.044  17.282134
1.043  17.281940
1.042  17.267977
1.041  17.297419
1.040  17.272166
1.039  17.340380
1.038  17.296820
1.037  17.238143
1.036  17.203579
1.035  17.191362
1.034  17.261042
1.033  17.294829
1.032  17.311800
1.031  17.310147
1.030  17.246203
1.029  17.335329
1.028  17.286441
1.027  17.317474
1.026  17.292360
1.025  17.318875
1.024  17.336687
1.023  17.331905
1.022  17.251884
1.021  17.370254
1.020  17.303509
1.019  17.367252
1.018  17.334110
1.017  17.325697
1.016  17.329486
1.015  17.296552
1.014  17.174634
1.013  17.299251
1.012  17.329029
1.011  17.356448
1.010  17.343286
1.009  17.303427
1.008  17.289785
1.007  17.377871
1.006  17.317263
1.005  17.366152
1.004  17.318369
1.003  17.398059
1.002  17.376817
1.001  17.373568
1.000  17.368045
0.999  17.385360
0.998  17.375526
0.997  17.386450
0.996  17.312309
0.995  17.411565
0.994  17.348383
0.993  17.386387
0.992  17.369728
0.991  17.454127
0.990  17.376324
0.989  17.351887
0.988  17.354218
0.987  17.400478
0.986  17.365717
0.985  17.400062
0.984  17.393881
0.983  17.398467
0.982  17.359391
0.981  17.426688
0.980  17.420064
0.979  17.477704
0.978  17.413230
0.977  17.419472
0.976  17.458049
0.975  17.475728
0.974  17.357614
0.973  17.348955
0.972  17.389546
0.971  17.436909
0.970  17.411331
0.969  17.449026
0.968  17.495487
0.967  17.413476
0.966  17.352132
0.965  17.421550
0.964  17.429468
0.963  17.451824
0.962  17.403292
0.961  17.438634
0.960  17.451533
0.959  17.504485
0.958  17.441066
0.957  17.473537
0.956  17.463669
0.955  17.518764
0.954  17.533297
0.953  17.492170
0.952  17.469440
0.951  17.527979
0.950  17.498700
0.949  17.502582
0.948  17.503327
0.947  17.468767
0.946  17.486646
0.945  17.498755
0.944  17.527446
0.943  17.559856
0.942  17.525171
0.941  17.520642
0.940  17.532397
0.939  17.579997
0.938  17.623977
0.937  17.582113
0.936  17.589293
0.935  17.579831
0.934  17.534289
0.933  17.528512
0.932  17.502125
0.931  17.570620
0.930  17.578781
0.929  17.559056
0.928  17.616347
0.927  17.569528
0.926  17.574297
0.925  17.610610
0.924  17.609626
0.923  17.581557
0.922  17.618745
0.921  17.638953
0.920  17.588933
0.919  17.568635
0.918  17.623630
0.917  17.661251
0.916  17.668400
0.915  17.611949
0.914  17.581719
0.913  17.624605
0.912  17.687786
0.911  17.638298
0.910  17.655145
0.909  17.640375
0.908  17.635889
0.907  17.676908
0.906  17.685309
0.905  17.661870
0.904  17.665163
0.903  17.664436
0.902  17.677211
0.901  17.626296
0.900  17.649485
0.899  17.691233
0.898  17.699855
0.897  17.600641
0.896  17.683257
0.895  17.715874
0.894  17.676388
0.893  17.658802
0.892  17.646795
0.891  17.657821
0.890  17.667587
0.889  17.645532
0.888  17.670198
0.887  17.657028
0.886  17.620226
0.885  17.580971
0.884  17.667942
0.883  17.581301
0.882  17.591154
0.881  17.554673
0.880  17.593668
0.879  17.585772
0.878  17.634116
0.877  17.533195
0.876  17.559839
0.875  17.484891
0.874  17.490995
0.873  17.495848
0.872  17.550101
0.871  17.446018
0.870  17.466138
0.869  17.453808
0.868  17.496449
0.867  17.433174
0.866  17.429421
0.865  17.390839
0.864  17.392426
0.863  17.362720
0.862  17.356531
0.861  17.334681
0.860  16.920529
0.859  16.720550
0.858  16.696168
0.857  16.703913
0.856  16.704535
0.855  16.731393
0.854  16.772091
0.853  16.804121
0.852  16.828856
0.851  16.844188
0.850  16.836570
0.849  16.856925
0.848  16.890658
0.847  16.918688
0.846  16.923506
0.845  16.942149
0.844  16.925437
0.843  16.942000
0.842  16.949721
0.841  16.975130
0.840  16.988971
0.839  16.981827
0.838  16.993130
0.837  17.031175
0.836  17.026446
0.835  17.034170
0.834  17.050044
0.833  17.069808
0.832  17.073373
0.831  17.084152
0.830  17.087826
0.829  17.082093
0.828  17.088478
0.827  17.110392
0.826  17.121337
0.825  17.120797
0.824  17.130295
0.823  17.127046
0.822  17.137944
0.821  17.137856
0.820  17.151994
0.819  17.162312
0.818  17.179082
0.817  17.180083
0.816  17.172051
0.815  17.188658
0.814  17.196145
0.813  17.197214
0.812  17.190659
0.811  17.194220
0.810  17.203017
0.809  17.202556
0.808  17.227807
0.807  17.222220
0.806  17.220115
0.805  17.236813
0.804  17.232220
0.803  17.238204
0.802  17.238976
0.801  17.221870
0.800  17.252737
0.799  17.229119
0.798  17.229816
0.797  17.213815
0.796  17.221012
0.795  17.231596
0.794  17.229761
0.793  17.212676
0.792  17.226163
0.791  17.223631
0.790  17.212604
0.789  17.220237
0.788  17.220018
0.787  17.213511
0.786  17.211915
0.785  17.205665
0.784  17.197893
0.783  17.212756
0.782  17.209241
0.781  17.195248
0.780  17.192128
0.779  17.185465
0.778  17.201456
0.777  17.189904
0.776  17.192915
0.775  17.176686
0.774  17.175335
0.773  17.168857
0.772  17.172395
0.771  17.172214
0.770  17.157658
0.769  17.153416
0.768  17.163811
0.767  17.146444
0.766  17.142299
0.765  17.134298
0.764  17.141222
0.763  17.140462
0.762  17.138206
0.761  17.135562
0.760  17.137741
0.759  17.133193
0.758  17.133060
0.757  17.125708
0.756  17.128261
0.755  17.112120
0.754  17.108703
0.753  17.107032
0.752  17.114928
0.751  17.118022
0.750  17.098864
0.749  17.098889
0.748  17.096745
0.747  17.100216
0.746  17.100440
0.745  17.098017
0.744  17.094369
0.743  17.094748
0.742  17.103631
0.741  17.099650
0.740  17.088265
0.739  17.088756
0.738  17.095067
0.737  17.089922
0.736  17.097157
0.735  17.089447
0.734  17.094880
0.733  17.096754
0.732  17.095507
0.731  17.097525
0.730  17.095564
0.729  17.101104
0.728  17.099870
0.727  17.104315
0.726  17.106461
0.725  17.105660
0.724  17.102303
0.723  17.099534
0.722  17.107906
0.721  17.105934
0.720  17.106975
0.719  17.110937
0.718  17.110917
0.717  17.112739
0.716  17.119346
0.715  17.124828
0.714  17.125770
0.713  17.131057
0.712  17.134613
0.711  17.135067
0.710  17.139310
0.709  17.141618
0.708  17.144640
0.707  17.154035
0.706  17.153122
0.705  17.154914
0.704  17.164531
0.703  17.170896
0.702  17.170189
0.701  17.176653
0.700  17.182910
0.699  17.190571
0.698  17.190319
0.697  17.192658
0.696  17.200129
0.695  17.203629
0.694  17.213648
0.693  17.223552
0.692  17.225958
0.691  17.231013
0.690  17.237004
0.689  17.249920
0.688  17.253864
0.687  17.256736
0.686  17.263927
0.685  17.271337
0.684  17.272228
0.683  17.281256
0.682  17.290276
0.681  17.293737
0.680  17.299913
0.679  17.305805
0.678  17.307992
0.677  17.319646
0.676  17.324573
0.675  17.328124
0.674  17.336992
0.673  17.344001
0.672  17.352523
0.671  17.360685
0.670  17.367245
0.669  17.373565
0.668  17.380442
0.667  17.386945
0.666  17.394015
0.665  17.397563
0.664  17.406709
0.663  17.412906
0.662  17.421154
0.661  17.423504
0.660  17.431296
0.659  17.439881
0.658  17.440421
0.657  17.448873
0.656  17.460175
0.655  17.466840
0.654  17.471284
0.653  17.477332
0.652  17.489133
0.651  17.493026
0.650  17.500192
0.649  17.513152
0.648  17.518317
0.647  17.521394
0.646  17.529911
0.645  17.535897
0.644  17.540427
0.643  17.549922
0.642  17.556763
0.641  17.558081
0.640  17.562646
0.639  17.571324
0.638  17.580719
0.637  17.588936
0.636  17.590501
0.635  17.594650
0.634  17.605330
0.633  17.614139
0.632  17.617190
0.631  17.621720
0.630  17.627286
0.629  17.634000
0.628  17.635254
0.627  17.639086
0.626  17.647173
0.625  17.652915
0.624  17.658237
0.623  17.658988
0.622  17.649662
0.621  17.640019
0.620  17.643468
0.619  17.648790
0.618  17.651919
0.617  17.655060
0.616  17.658188
0.615  17.661224
0.614  17.664660
0.613  17.669579
0.612  17.671826
0.611  17.675986
0.610  17.681061
0.609  17.682744
0.608  17.684300
0.607  17.687459
0.606  17.689628
0.605  17.693376
0.604  17.696723
0.603  17.693685
0.602  17.693039
0.601  17.698665
0.600  17.697669
0.599  17.699273
0.598  17.704984
0.597  17.705133
0.596  17.707513
0.595  17.708811
0.594  17.708018
0.593  17.701736
0.592  17.700724
0.591  17.693479
0.590  17.690518
0.589  17.686939
0.588  17.679422
0.587  17.671688
0.586  17.662906
0.585  17.655197
0.584  17.644630
0.583  17.637831
0.582  17.627633
0.581  17.614851
0.580  17.606983
0.579  17.595307
0.578  17.575809
0.577  17.562603
0.576  17.552394
0.575  17.538129
0.574  17.521559
0.573  17.507069
0.572  17.491931
0.571  17.472832
0.570  17.452876
0.569  17.439322
0.568  17.436714
0.567  17.424607
0.566  17.405815
0.565  17.384588
0.564  17.363990
0.563  17.333855
0.562  17.308199
0.561  17.284502
0.560  17.255589
0.559  17.228835
0.558  17.201728
0.557  17.175287
0.556  17.142735
0.555  17.115217
0.554  17.087064
0.553  17.061760
0.552  17.035693
0.551  17.002655
0.550  16.978204
0.549  16.952196
0.548  16.923270
0.547  16.901007
0.546  16.872736
0.545  16.849575
0.544  16.821608
0.543  16.793723
0.542  16.764437
0.541  16.736342
0.540  16.709183
0.539  16.685952
0.538  16.659856
0.537  16.629812
0.536  16.604096
0.535  16.574341
0.534  16.544611
0.533  16.520471
0.532  16.493669
0.531  16.464628
0.530  16.441281
0.529  16.413604
0.528  16.382711
0.527  16.354807
0.526  16.326966
0.525  16.301386
0.524  16.271308
0.523  16.242806
0.522  16.212624
0.521  16.185735
0.520  16.157456
0.519  16.128133
0.518  16.090533
0.517  16.062617
0.516  16.027756
0.515  15.999850
0.514  15.961186
0.513  15.922065
0.512  15.887336
0.511  15.852849
0.510  15.815591
0.509  15.780320
0.508  15.747841
0.507  15.717254
0.506  15.683945
0.505  15.654431
0.504  15.616618
0.503  15.580920
0.502  15.551466
0.501  15.511842
0.500  15.476338
0.499  15.433678
0.498  15.392906
0.497  15.352741
0.496  15.319482
0.495  15.275222
0.494  15.244354
0.493  15.205961
0.492  15.176821
0.491  15.144257
0.490  15.108935
0.489  15.082936
0.488  15.050801
0.487  15.008266
0.486  14.977642
0.485  14.938003
0.484  14.919970
0.483  14.885686
0.482  14.860474
0.481  14.827579
0.480  14.793544
0.479  14.753794
0.478  14.714101
0.477  14.677187
0.476  14.637232
0.475  14.608089
0.474  14.579874
0.473  14.538065
0.472  14.512433
0.471  14.483579
0.470  14.450711
0.469  14.424366
0.468  14.394382
0.467  14.367967
0.466  14.339077
0.465  14.312759
0.464  14.283550
0.463  14.253793
0.462  14.231343
0.461  14.196617
0.460  14.175110
0.459  14.143193
0.458  14.109748
0.457  14.080303
0.456  14.043939
0.455  14.021551
0.454  13.993865
0.453  13.958712
0.452  13.921132
0.451  13.892881
0.450  13.864583
0.449  13.829040
0.448  13.796874
0.447  13.760456
0.446  13.720787
0.445  13.685238
0.444  13.644887
0.443  13.611896
0.442  13.574761
0.441  13.538115
0.440  13.498489
0.439  13.458819
0.438  13.419887
0.437  13.372832
0.436  13.331792
0.435  13.288835
0.434  13.241674
0.433  13.199330
0.432  13.157067
0.431  13.111531
0.430  13.064622
0.429  13.021721
0.428  12.977308
0.427  12.933705
0.426  12.894215
0.425  12.848155
0.424  12.802798
0.423  12.762783
0.422  12.723344
0.421  12.684059
0.420  12.641523
0.419  12.605362
0.418  12.569133
0.417  12.528723
0.416  12.493725
0.415  12.457041
0.414  12.421283
0.413  12.387323
0.412  12.358418
0.411  12.319461
0.410  12.280430
0.409  12.251290
0.408  12.213392
0.407  12.179258
0.406  12.145537
0.405  12.114793
0.404  12.082638
0.403  12.049505
0.402  12.019100
0.401  11.986007
0.400  11.951760
