Name: Magnesiochromite MgCr_2O_4
Type: Mineral
Class: Oxides
Subclass: 
Particle Size: 45-125um
Sample No.: O-8A
Owner: JPL
Wavelength range: IR
Origin: Canada, Quebec, Coleraine Township
Collected by Ward's
Description: 





Measurement: Hemispherical reflectance
First Column: X
Second Column: Y
X Units:  Wavelength (micrometers)
Y Units:  Reflectance (percent)
First X Value: 15.3853
Last X Value: 2.00032
Number of X Values: 2256
Additional information: o08aa.txt
 
15.3853	35.3814
15.3397	35.504
15.2945	35.7611
15.2495	35.7325
15.2048	35.6897
15.1603	35.5585
15.1161	35.3289
15.0722	35.1915
15.0285	35.121
14.9851	34.44
14.9419	34.055
14.8989	34.0665
14.8563	33.9791
14.8138	33.6663
14.7716	33.0278
14.7296	32.5284
14.6879	32.2163
14.6464	31.8512
14.6052	31.4788
14.5641	31.1103
14.5233	30.4991
14.4828	29.9502
14.4424	29.705
14.4023	29.2822
14.3624	28.7332
14.3227	28.2534
14.2833	27.8423
14.244	27.4793
14.205	27.1321
14.1662	26.8162
14.1276	26.1926
14.0892	25.6359
14.051	25.0856
14.0131	24.4367
13.9753	23.9093
13.9377	23.3795
13.9004	22.9319
13.8632	22.4034
13.8262	21.948
13.7895	21.3522
13.7529	20.5246
13.7165	19.8557
13.6803	19.2414
13.6443	18.4987
13.6085	17.5711
13.5729	16.7531
13.5374	15.9512
13.5022	15.0501
13.4671	14.022
13.4322	12.837
13.3975	11.6306
13.363	10.4519
13.3286	9.23361
13.2944	7.91066
13.2604	6.5326
13.2266	5.40316
13.193	4.55147
13.1595	3.85578
13.1262	3.23069
13.093	2.70638
13.06	2.31685
13.0272	1.79206
12.9946	1.39575
12.9621	1.10842
12.9298	0.864578
12.8976	0.816142
12.8656	0.859657
12.8337	0.868967
12.8021	0.72973
12.7705	0.517474
12.7391	0.480172
12.7079	0.535663
12.6769	0.497317
12.6459	0.462048
12.6152	0.491511
12.5845	0.563607
12.5541	0.495197
12.5238	0.431561
12.4936	0.263861
12.4635	0.188456
12.4337	0.281249
12.4039	0.495486
12.3743	0.612216
12.3448	0.591194
12.3155	0.594445
12.2863	0.68617
12.2573	0.717148
12.2284	0.771896
12.1996	0.778711
12.171	0.716487
12.1425	0.689663
12.1141	0.69085
12.0859	0.850797
12.0578	0.877677
12.0298	0.842567
12.0019	0.852695
11.9742	0.867925
11.9466	0.904925
11.9192	0.903435
11.8918	0.958475
11.8646	1.16815
11.8375	1.13834
11.8106	1.14494
11.7837	1.15819
11.757	1.20035
11.7304	1.29141
11.7039	1.37217
11.6776	1.45594
11.6513	1.54303
11.6252	1.53655
11.5992	1.34255
11.5733	1.28746
11.5475	1.49373
11.5219	1.66683
11.4963	1.71464
11.4709	1.66266
11.4455	1.61435
11.4203	1.55672
11.3952	1.50661
11.3702	1.62903
11.3454	1.78865
11.3206	1.8183
11.2959	1.89096
11.2714	1.98429
11.2469	1.90872
11.2226	1.91023
11.1983	2.02272
11.1742	2.03925
11.1502	2.12756
11.1263	2.14433
11.1024	2.13304
11.0787	2.15292
11.0551	2.18173
11.0316	2.28418
11.0081	2.32867
10.9848	2.20193
10.9616	2.24639
10.9385	2.46672
10.9154	2.63275
10.8925	2.72339
10.8697	2.75227
10.8469	2.75414
10.8243	2.86689
10.8017	2.87929
10.7793	2.86237
10.7569	2.97047
10.7346	2.95908
10.7125	2.80157
10.6904	2.90427
10.6684	3.10438
10.6465	3.19612
10.6247	3.33262
10.6029	3.35291
10.5813	3.4248
10.5597	3.49477
10.5383	3.46235
10.5169	3.68539
10.4956	3.91606
10.4744	3.89263
10.4533	3.90443
10.4323	4.02261
10.4113	4.07271
10.3904	4.09961
10.3697	4.24121
10.349	4.41276
10.3284	4.54427
10.3078	4.54146
10.2874	4.4439
10.267	4.56139
10.2467	4.69747
10.2265	4.74774
10.2064	4.7813
10.1863	4.74326
10.1663	4.68445
10.1464	4.72256
10.1266	4.82788
10.1069	4.82841
10.0872	4.94465
10.0676	5.12249
10.0481	5.22049
10.0287	5.24741
10.0093	5.24102
9.99005	5.44818
9.97084	5.69111
9.95169	5.63869
9.93263	5.55698
9.91364	5.7173
9.89472	5.96078
9.87587	6.07631
9.8571	6.12311
9.83839	6.17748
9.81976	6.32678
9.80119	6.43895
9.78271	6.40792
9.76428	6.33774
9.74592	6.30324
9.72764	6.28319
9.70943	6.29678
9.69128	6.24242
9.6732	6.22714
9.65518	6.20583
9.63724	6.19004
9.61935	6.1844
9.60155	6.0731
9.5838	5.97333
9.56611	5.92254
9.5485	5.8206
9.53094	5.73254
9.51345	5.55695
9.49604	5.49094
9.47867	5.53151
9.46137	5.59319
9.44414	5.551
9.42697	5.52385
9.40986	5.44066
9.39281	5.46692
9.37583	5.45422
9.35891	5.40855
9.34204	5.41316
9.32524	5.42571
9.3085	5.47662
9.29182	5.5122
9.27519	5.48395
9.25863	5.4621
9.24213	5.46297
9.22568	5.61391
9.2093	5.6357
9.19297	5.51156
9.17669	5.55199
9.16048	5.71559
9.14433	5.82195
9.12823	5.8396
9.11218	5.94429
9.0962	6.16232
9.08027	6.42662
9.06439	6.61068
9.04858	6.68144
9.03281	6.79938
9.0171	6.79345
9.00145	6.79209
8.98585	6.96788
8.9703	7.24499
8.9548	7.33346
8.93937	7.39052
8.92398	7.51027
8.90865	7.6303
8.89337	7.69323
8.87814	7.77256
8.86296	7.67292
8.84784	7.61565
8.83277	7.72114
8.81774	7.90622
8.80277	7.90907
8.78786	7.8622
8.77298	7.96737
8.75816	8.13329
8.7434	8.22281
8.72868	8.17262
8.714	8.13372
8.69938	8.13492
8.68481	8.17128
8.67029	8.22826
8.65581	8.3024
8.64139	8.35089
8.62701	8.32128
8.61268	8.49176
8.5984	8.67238
8.58416	8.68092
8.56997	8.75065
8.55583	8.91454
8.54174	8.94412
8.52769	8.92486
8.51368	8.97432
8.49973	9.14967
8.48582	9.51035
8.47195	9.79729
8.45813	9.89666
8.44436	9.97495
8.43062	10.1031
8.41693	10.2183
8.4033	10.5071
8.3897	10.8037
8.37614	10.931
8.36264	11.2551
8.34917	11.5298
8.33574	11.6916
8.32236	11.9435
8.30903	12.3188
8.29573	12.553
8.28248	12.8474
8.26927	12.9986
8.2561	13.1273
8.24298	13.3466
8.2299	13.4516
8.21685	13.4923
8.20385	13.6697
8.19089	13.8801
8.17797	13.9734
8.16509	14.0588
8.15225	14.2129
8.13946	14.3092
8.1267	14.3272
8.11398	14.2526
8.10131	14.2273
8.08867	14.3152
8.07606	14.3234
8.0635	14.2003
8.05099	14.1571
8.0385	14.146
8.02606	14.0395
8.01366	13.8415
8.00129	13.7171
7.98896	13.6144
7.97667	13.5231
7.96442	13.4633
7.9522	13.4603
7.94002	13.5071
7.92788	13.4898
7.91578	13.4409
7.90371	13.4941
7.89168	13.5837
7.87969	13.7006
7.86773	13.7209
7.85581	13.7312
7.84392	13.8009
7.83207	13.8704
7.82026	13.8476
7.80849	13.9099
7.79674	14.017
7.78503	14.0268
7.77337	14.0671
7.76173	14.1506
7.75012	14.2662
7.73856	14.3994
7.72703	14.5268
7.71553	14.6229
7.70406	14.6789
7.69263	14.7131
7.68123	14.8102
7.66987	14.9388
7.65855	15.1292
7.64725	15.254
7.63598	15.4006
7.62475	15.5738
7.61356	15.6759
7.60239	15.7783
7.59126	15.9713
7.58017	16.1264
7.5691	16.2068
7.55806	16.3296
7.54707	16.4386
7.5361	16.577
7.52516	16.8083
7.51425	16.9006
7.50338	17.0569
7.49253	17.2628
7.48172	17.3802
7.47094	17.518
7.46019	17.6205
7.44947	17.6943
7.43879	17.834
7.42813	17.9172
7.4175	18.0385
7.4069	18.1656
7.39634	18.3069
7.3858	18.4255
7.37529	18.5269
7.36482	18.6548
7.35437	18.7681
7.34396	18.9029
7.33357	19.0601
7.32321	19.1514
7.31288	19.2498
7.30258	19.4034
7.29231	19.5251
7.28207	19.6533
7.27185	19.8742
7.26167	20.0793
7.25152	20.1282
7.24139	20.1718
7.23129	20.3367
7.22122	20.528
7.21117	20.6375
7.20116	20.673
7.19117	20.8013
7.18121	21.0526
7.17128	21.2248
7.16137	21.3651
7.1515	21.5597
7.14164	21.6415
7.13182	21.7146
7.12203	21.9299
7.11225	22.0939
7.10251	22.1744
7.0928	22.2725
7.08311	22.386
7.07344	22.4862
7.06381	22.5775
7.0542	22.7881
7.04461	22.9929
7.03506	23.1393
7.02552	23.2839
7.01601	23.3168
7.00653	23.4512
6.99708	23.6216
6.98765	23.6996
6.97824	23.7304
6.96886	23.826
6.95951	23.9875
6.95018	24.1035
6.94087	24.2593
6.9316	24.3327
6.92234	24.4328
6.91311	24.5814
6.90391	24.6588
6.89473	24.6871
6.88557	24.8247
6.87644	25.0042
6.86733	25.1982
6.85824	25.2933
6.84918	25.284
6.84015	25.2798
6.83114	25.3465
6.82215	25.392
6.81319	25.4037
6.80424	25.4514
6.79532	25.565
6.78643	25.6597
6.77756	25.7084
6.76871	25.6885
6.75989	25.7352
6.75109	25.8459
6.74231	25.9102
6.73355	25.9648
6.72482	25.9921
6.71611	26.0803
6.70742	26.1912
6.69875	26.2307
6.69011	26.2175
6.68149	26.1849
6.67289	26.141
6.66431	26.1652
6.65576	26.2927
6.64722	26.475
6.63871	26.6326
6.63022	26.6299
6.62175	26.5348
6.61331	26.5216
6.60488	26.5928
6.59648	26.5994
6.5881	26.5994
6.57974	26.6903
6.5714	26.7845
6.56308	26.7841
6.55478	26.7545
6.54651	26.7092
6.53825	26.7074
6.53001	26.7712
6.5218	26.901
6.51361	26.8304
6.50544	26.7653
6.49729	26.9287
6.48915	26.9456
6.48104	26.8563
6.47295	26.8253
6.46488	26.8516
6.45683	26.8715
6.4488	26.8842
6.44079	26.8702
6.4328	26.8506
6.42482	26.8714
6.41687	26.9081
6.40894	26.8649
6.40103	26.7311
6.39314	26.6828
6.38526	26.5986
6.37741	26.4987
6.36957	26.525
6.36176	26.5696
6.35396	26.5609
6.34618	26.5282
6.33843	26.5012
6.33069	26.5076
6.32297	26.4365
6.31527	26.3726
6.30758	26.4068
6.29992	26.4634
6.29227	26.4478
6.28465	26.384
6.27704	26.4581
6.26945	26.5663
6.26188	26.6515
6.25432	26.6825
6.24679	26.6285
6.23927	26.6387
6.23177	26.6906
6.22429	26.6622
6.21683	26.6969
6.20938	26.7132
6.20195	26.6833
6.19454	26.7358
6.18715	26.8388
6.17978	26.8239
6.17242	26.8091
6.16508	26.8016
6.15776	26.7496
6.15045	26.7434
6.14317	26.7659
6.1359	26.8077
6.12864	26.7894
6.12141	26.8982
6.11419	27.0935
6.10699	27.0681
6.0998	26.9743
6.09263	27.0056
6.08549	27.0989
6.07835	27.1778
6.07123	27.2449
6.06413	27.2958
6.05705	27.4594
6.04998	27.7462
6.04293	27.7946
6.0359	27.8041
6.02888	27.9002
6.02187	27.9857
6.01489	28.1501
6.00792	28.3576
6.00096	28.5096
5.99403	28.6333
5.98711	28.8125
5.9802	28.9131
5.97331	28.9955
5.96644	29.1031
5.95958	29.2129
5.95274	29.4639
5.94591	29.6345
5.9391	29.8114
5.9323	29.9361
5.92552	29.8877
5.91876	29.9137
5.91201	30.0977
5.90528	30.3413
5.89856	30.4773
5.89186	30.5314
5.88517	30.7349
5.8785	30.9001
5.87184	30.8904
5.8652	30.9933
5.85857	31.07
5.85196	31.1296
5.84536	31.2151
5.83878	31.3763
5.83221	31.5188
5.82566	31.6864
5.81912	31.824
5.81259	31.8188
5.80608	31.8902
5.79959	31.948
5.79311	32.0225
5.78665	32.2025
5.78019	32.3876
5.77376	32.4903
5.76734	32.5879
5.76093	32.6242
5.75453	32.6887
5.74815	32.816
5.74179	32.8365
5.73543	32.8735
5.7291	32.8691
5.72277	32.8541
5.71646	32.9366
5.71017	33.0555
5.70389	33.0936
5.69762	33.1533
5.69136	33.2514
5.68513	33.2931
5.6789	33.3239
5.67268	33.3244
5.66648	33.4275
5.6603	33.4925
5.65413	33.5211
5.64797	33.5904
5.64182	33.6479
5.63569	33.6804
5.62957	33.6955
5.62347	33.6839
5.61737	33.7325
5.61129	33.7866
5.60522	33.8349
5.59917	33.8561
5.59313	33.8279
5.5871	33.9079
5.58109	33.9612
5.57509	33.9692
5.5691	33.9402
5.56312	33.938
5.55716	33.9836
5.55121	34.0543
5.54528	34.0551
5.53935	34.0705
5.53344	34.1127
5.52754	34.1724
5.52166	34.1516
5.51578	34.1667
5.50992	34.2242
5.50407	34.2078
5.49823	34.1438
5.49241	34.2166
5.4866	34.3009
5.4808	34.3845
5.47501	34.4627
5.46923	34.4683
5.46347	34.4579
5.45772	34.4806
5.45198	34.4845
5.44625	34.5006
5.44054	34.57
5.43484	34.6058
5.42914	34.5738
5.42347	34.6681
5.4178	34.7767
5.41214	34.7715
5.4065	34.7649
5.40087	34.8145
5.39525	34.8484
5.38964	34.8396
5.38404	34.875
5.37846	34.9546
5.37288	34.9828
5.36732	35.0262
5.36177	35.1381
5.35623	35.1799
5.35071	35.1944
5.34519	35.1292
5.33968	35.0976
5.33419	35.137
5.32871	35.2118
5.32324	35.3116
5.31778	35.3061
5.31233	35.2322
5.30689	35.2546
5.30147	35.2861
5.29605	35.3229
5.29065	35.3519
5.28525	35.3873
5.27987	35.3866
5.2745	35.3591
5.26914	35.3423
5.26379	35.3562
5.25845	35.3849
5.25312	35.4151
5.24781	35.4704
5.2425	35.4463
5.23721	35.3697
5.23192	35.3733
5.22665	35.4308
5.22138	35.4544
5.21613	35.4445
5.21089	35.4935
5.20566	35.4726
5.20044	35.4171
5.19522	35.3615
5.19002	35.3237
5.18483	35.3515
5.17965	35.3966
5.17448	35.3901
5.16933	35.3799
5.16418	35.379
5.15904	35.4094
5.15391	35.4085
5.14879	35.4045
5.14368	35.3444
5.13859	35.285
5.1335	35.2666
5.12842	35.3359
5.12335	35.3339
5.1183	35.2822
5.11325	35.2549
5.10821	35.2326
5.10318	35.2252
5.09817	35.2084
5.09316	35.1997
5.08816	35.1829
5.08317	35.1977
5.07819	35.1742
5.07322	35.1221
5.06826	35.0756
5.06331	35.0531
5.05837	35.0999
5.05344	35.0941
5.04852	35.0035
5.04361	34.9746
5.03871	35.0051
5.03382	34.9943
5.02894	34.9883
5.02406	34.9919
5.0192	34.9989
5.01435	34.9284
5.0095	34.8331
5.00467	34.8047
4.99984	34.8482
4.99502	34.8753
4.99021	34.8821
4.98542	34.8418
4.98063	34.7889
4.97585	34.7486
4.97108	34.7176
4.96632	34.7395
4.96156	34.7446
4.95682	34.6984
4.95209	34.6562
4.94736	34.6557
4.94264	34.6881
4.93794	34.6746
4.93324	34.6661
4.92855	34.6473
4.92387	34.6027
4.9192	34.6342
4.91453	34.6447
4.90988	34.6609
4.90524	34.6391
4.9006	34.5123
4.89597	34.4358
4.89135	34.4769
4.88674	34.4133
4.88214	34.3449
4.87755	34.3419
4.87296	34.3258
4.86839	34.3633
4.86382	34.3832
4.85926	34.3604
4.85471	34.3565
4.85017	34.3069
4.84564	34.2557
4.84111	34.133
4.8366	34.08
4.83209	34.0034
4.82759	33.9514
4.8231	33.9171
4.81862	33.9003
4.81415	33.8995
4.80968	33.9008
4.80522	33.8587
4.80077	33.7551
4.79633	33.6839
4.7919	33.6753
4.78747	33.5897
4.78306	33.5037
4.77865	33.4983
4.77425	33.4568
4.76986	33.4018
4.76547	33.4039
4.7611	33.3847
4.75673	33.2859
4.75237	33.2382
4.74802	33.2286
4.74367	33.1468
4.73934	33.0888
4.73501	33.1074
4.73069	33.0689
4.72638	33.0005
4.72207	32.9725
4.71777	32.9335
4.71348	32.9001
4.7092	32.8081
4.70493	32.6962
4.70066	32.6152
4.69641	32.5654
4.69216	32.5562
4.68791	32.4676
4.68368	32.3498
4.67945	32.324
4.67523	32.2799
4.67102	32.1744
4.66682	32.0447
4.66262	31.9736
4.65843	31.9055
4.65425	31.8647
4.65007	31.8224
4.64591	31.802
4.64175	31.7546
4.6376	31.6484
4.63345	31.6033
4.62932	31.554
4.62519	31.4561
4.62106	31.3435
4.61695	31.251
4.61284	31.1816
4.60874	31.0909
4.60465	30.9818
4.60056	30.893
4.59648	30.8305
4.59241	30.7691
4.58835	30.6842
4.58429	30.6129
4.58024	30.5563
4.5762	30.4571
4.57216	30.3813
4.56814	30.2875
4.56411	30.178
4.5601	30.0408
4.55609	29.9227
4.55209	29.8398
4.5481	29.8129
4.54411	29.7698
4.54013	29.6067
4.53616	29.4023
4.5322	29.3315
4.52824	29.2472
4.52429	29.1363
4.52034	29.0583
4.51641	28.9552
4.51247	28.8218
4.50855	28.7017
4.50463	28.6278
4.50072	28.5178
4.49682	28.4077
4.49292	28.291
4.48903	28.11
4.48515	28.0013
4.48127	27.8871
4.4774	27.8011
4.47354	27.7845
4.46968	27.6689
4.46584	27.5335
4.46199	27.379
4.45815	27.2435
4.45432	27.1187
4.4505	27.0603
4.44668	26.9355
4.44287	26.7699
4.43907	26.6426
4.43527	26.5066
4.43148	26.3639
4.4277	26.3304
4.42392	26.2746
4.42015	26.1556
4.41638	26.006
4.41262	25.8628
4.40887	25.6695
4.40513	25.6029
4.40139	25.5522
4.39765	25.4454
4.39393	25.3067
4.39021	25.1229
4.38649	24.9659
4.38278	24.8371
4.37908	24.7433
4.37539	24.6272
4.3717	24.5463
4.36801	24.4808
4.36434	24.2986
4.36067	24.1313
4.357	23.9915
4.35335	23.7929
4.34969	23.7755
4.34605	23.6608
4.34241	23.451
4.33877	23.2987
4.33514	23.1445
4.33152	23.0121
4.32791	22.867
4.3243	22.6945
4.32069	22.5459
4.3171	22.4199
4.31351	22.2671
4.30992	22.1261
4.30634	21.9552
4.30277	21.7869
4.2992	21.6565
4.29564	21.5068
4.29208	21.3369
4.28853	21.2237
4.28499	21.0666
4.28145	20.923
4.27792	20.6971
4.27439	20.6032
4.27087	20.5846
4.26735	20.5084
4.26384	20.4304
4.26034	20.3991
4.25684	20.3534
4.25335	20.1101
4.24986	19.855
4.24638	19.6325
4.24291	19.4456
4.23944	19.3078
4.23598	19.1562
4.23252	18.9511
4.22906	18.8167
4.22562	18.8425
4.22218	18.8719
4.21874	18.7722
4.21531	18.6837
4.21189	18.6947
4.20847	18.6583
4.20506	18.6006
4.20165	18.5621
4.19825	18.5302
4.19485	18.4907
4.19146	18.3459
4.18807	18.1755
4.18469	18.1176
4.18132	18.0714
4.17795	17.8953
4.17458	17.7072
4.17123	17.5854
4.16787	17.4974
4.16453	17.4724
4.16118	17.3441
4.15785	17.1374
4.15451	17.0066
4.15119	16.9232
4.14787	16.8798
4.14455	16.7891
4.14124	16.652
4.13794	16.5131
4.13464	16.3723
4.13134	16.2687
4.12805	16.1619
4.12477	16.1285
4.12149	15.9896
4.11822	15.8337
4.11495	15.7602
4.11168	15.6574
4.10843	15.5758
4.10517	15.5077
4.10192	15.3738
4.09868	15.2861
4.09545	15.195
4.09221	15.0724
4.08899	14.9846
4.08576	14.9272
4.08255	14.8458
4.07933	14.7284
4.07613	14.5765
4.07292	14.4136
4.06973	14.3479
4.06654	14.2844
4.06335	14.1632
4.06017	14.1359
4.05699	14.0854
4.05382	13.9969
4.05065	13.9055
4.04749	13.7798
4.04433	13.7106
4.04118	13.6073
4.03803	13.4759
4.03489	13.3802
4.03175	13.3952
4.02862	13.2842
4.02549	13.0938
4.02237	13.0389
4.01925	12.9983
4.01614	12.8751
4.01303	12.7341
4.00993	12.6554
4.00683	12.6464
4.00373	12.583
4.00064	12.538
3.99756	12.4541
3.99448	12.3633
3.9914	12.3088
3.98833	12.2166
3.98527	12.0584
3.98221	11.9625
3.97915	11.9257
3.9761	11.8401
3.97305	11.7292
3.97001	11.7228
3.96697	11.7122
3.96394	11.6359
3.96091	11.5243
3.95789	11.4763
3.95487	11.3758
3.95186	11.2727
3.94885	11.2611
3.94584	11.2017
3.94284	11.1658
3.93984	11.1449
3.93685	10.9836
3.93386	10.8802
3.93088	10.8563
3.9279	10.8026
3.92493	10.7156
3.92196	10.6001
3.919	10.5152
3.91604	10.5204
3.91308	10.4914
3.91013	10.4239
3.90718	10.4011
3.90424	10.3203
3.9013	10.2386
3.89837	10.1482
3.89544	10.0611
3.89252	9.97235
3.8896	9.90812
3.88668	9.83478
3.88377	9.80279
3.88086	9.74517
3.87796	9.70362
3.87506	9.73402
3.87217	9.72188
3.86928	9.61955
3.86639	9.44449
3.86351	9.42865
3.86064	9.48809
3.85776	9.42651
3.8549	9.27821
3.85203	9.20306
3.84917	9.2672
3.84631	9.22891
3.84346	9.11442
3.84062	9.01952
3.83777	9.03837
3.83494	9.04061
3.8321	8.94703
3.82927	8.89898
3.82644	8.96902
3.82362	8.93608
3.82081	8.83617
3.81799	8.78728
3.81518	8.74116
3.81238	8.67577
3.80958	8.56584
3.80678	8.51783
3.80399	8.57594
3.8012	8.57017
3.79841	8.45934
3.79563	8.38867
3.79286	8.38147
3.79008	8.39137
3.78731	8.37531
3.78455	8.30327
3.78179	8.19901
3.77903	8.1822
3.77628	8.18677
3.77353	8.07892
3.77079	8.02209
3.76805	8.04932
3.76531	8.04483
3.76258	7.99079
3.75985	7.93865
3.75713	7.96223
3.7544	7.93784
3.75169	7.88196
3.74898	7.88868
3.74627	7.9521
3.74356	7.92562
3.74086	7.8482
3.73816	7.72429
3.73547	7.63702
3.73278	7.59701
3.7301	7.54275
3.72741	7.52945
3.72474	7.61467
3.72206	7.61989
3.71939	7.51231
3.71673	7.38617
3.71406	7.43854
3.71141	7.47687
3.70875	7.41777
3.7061	7.40679
3.70345	7.4245
3.70081	7.37137
3.69817	7.34973
3.69553	7.36243
3.6929	7.34295
3.69027	7.23849
3.68765	7.11008
3.68503	7.12227
3.68241	7.17162
3.6798	7.21775
3.67719	7.16066
3.67458	7.12785
3.67198	7.09784
3.66938	7.04817
3.66678	7.06419
3.66419	7.0789
3.66161	7.06347
3.65902	7.02654
3.65644	7.01446
3.65387	6.95837
3.65129	6.90088
3.64872	6.85732
3.64616	6.80517
3.64359	6.8745
3.64103	6.98785
3.63848	6.87546
3.63593	6.82315
3.63338	6.85529
3.63084	6.85139
3.6283	6.88802
3.62576	6.91435
3.62322	6.83519
3.62069	6.80415
3.61817	6.76143
3.61564	6.61702
3.61312	6.56151
3.61061	6.59255
3.6081	6.59314
3.60559	6.62374
3.60308	6.62548
3.60058	6.53637
3.59808	6.61064
3.59558	6.72121
3.59309	6.59723
3.59061	6.53351
3.58812	6.60126
3.58564	6.56031
3.58316	6.49188
3.58069	6.48423
3.57822	6.49087
3.57575	6.49257
3.57328	6.49123
3.57082	6.50145
3.56836	6.5244
3.56591	6.54499
3.56346	6.54114
3.56101	6.50771
3.55857	6.46268
3.55613	6.51945
3.55369	6.60374
3.55126	6.50136
3.54883	6.38088
3.5464	6.33056
3.54397	6.38926
3.54155	6.46335
3.53914	6.4419
3.53672	6.37688
3.53431	6.37664
3.5319	6.41973
3.5295	6.41198
3.5271	6.34485
3.5247	6.3259
3.52231	6.34139
3.51991	6.31595
3.51753	6.25259
3.51514	6.26763
3.51276	6.27638
3.51038	6.24783
3.50801	6.18947
3.50563	6.24099
3.50327	6.37739
3.5009	6.36918
3.49854	6.27344
3.49618	6.27027
3.49382	6.30359
3.49147	6.25481
3.48912	6.2725
3.48677	6.2423
3.48443	6.16633
3.48209	6.14204
3.47975	6.21195
3.47742	6.21816
3.47509	6.1874
3.47276	6.08533
3.47044	6.03066
3.46812	6.16695
3.4658	6.1213
3.46348	6.02502
3.46117	6.09855
3.45886	6.10712
3.45656	5.97873
3.45425	5.94021
3.45195	5.92455
3.44966	6.01051
3.44736	6.08266
3.44507	6.06886
3.44279	6.07961
3.4405	6.13155
3.43822	6.06571
3.43594	5.99717
3.43367	5.88969
3.43139	5.84774
3.42912	6.00032
3.42686	6.16351
3.42459	6.17748
3.42233	6.06291
3.42007	6.03027
3.41782	6.0387
3.41557	6.02439
3.41332	6.04484
3.41108	6.02533
3.40883	5.99453
3.40659	5.95856
3.40435	5.93291
3.40212	5.96182
3.39989	6.01934
3.39766	5.97829
3.39544	5.93756
3.39322	5.99047
3.391	6.00394
3.38878	5.95296
3.38657	5.99485
3.38436	5.98876
3.38215	5.97442
3.37994	5.86267
3.37774	5.78292
3.37554	5.95506
3.37335	6.06987
3.37115	6.08448
3.36896	6.06545
3.36678	5.99274
3.36459	5.95204
3.36241	5.93642
3.36023	5.8094
3.35805	5.75311
3.35588	5.91383
3.35371	5.93717
3.35154	5.69634
3.34938	5.65255
3.34721	5.81469
3.34505	5.91274
3.3429	5.8513
3.34074	5.87974
3.33859	5.89725
3.33644	5.87555
3.3343	5.84362
3.33215	5.80584
3.33001	5.80261
3.32788	5.86888
3.32574	5.90445
3.32361	5.9052
3.32148	5.89377
3.31936	5.9575
3.31723	6.01805
3.31511	5.95763
3.31299	5.8278
3.31088	5.78362
3.30876	5.80835
3.30665	5.85223
3.30455	5.83959
3.30244	5.71021
3.30034	5.63491
3.29824	5.68899
3.29614	5.83133
3.29405	5.89455
3.29196	5.8778
3.28987	5.78662
3.28778	5.66958
3.2857	5.68999
3.28362	5.77607
3.28154	5.83968
3.27946	5.81727
3.27739	5.74466
3.27532	5.74309
3.27325	5.80823
3.27119	5.80935
3.26913	5.85093
3.26707	5.93726
3.26501	5.89405
3.26295	5.7452
3.2609	5.52586
3.25885	5.6588
3.2568	5.81615
3.25476	5.81001
3.25272	5.81611
3.25068	5.81359
3.24864	5.77107
3.24661	5.74094
3.24458	5.78053
3.24255	5.82359
3.24052	5.80582
3.2385	5.7781
3.23648	5.75797
3.23446	5.71557
3.23244	5.7074
3.23043	5.7318
3.22841	5.72887
3.2264	5.63618
3.2244	5.61578
3.22239	5.62633
3.22039	5.74331
3.21839	5.85251
3.2164	5.76692
3.2144	5.64187
3.21241	5.61725
3.21042	5.62376
3.20844	5.53938
3.20645	5.57417
3.20447	5.65951
3.20249	5.6607
3.20051	5.64311
3.19854	5.68676
3.19657	5.75199
3.1946	5.70632
3.19263	5.56186
3.19067	5.50648
3.1887	5.52943
3.18674	5.59209
3.18479	5.59384
3.18283	5.64415
3.18088	5.67335
3.17893	5.6189
3.17698	5.59432
3.17504	5.59051
3.17309	5.57917
3.17115	5.62573
3.16921	5.69098
3.16728	5.62641
3.16534	5.51726
3.16341	5.56407
3.16148	5.65434
3.15956	5.64123
3.15763	5.56175
3.15571	5.48649
3.15379	5.4942
3.15187	5.5429
3.14996	5.54106
3.14805	5.47471
3.14614	5.63247
3.14423	5.67272
3.14232	5.53435
3.14042	5.48997
3.13852	5.53588
3.13662	5.56274
3.13472	5.54118
3.13283	5.52343
3.13094	5.51223
3.12905	5.60957
3.12716	5.58811
3.12528	5.44108
3.12339	5.4326
3.12151	5.52587
3.11964	5.5178
3.11776	5.46413
3.11589	5.52243
3.11401	5.56182
3.11214	5.48291
3.11028	5.45007
3.10841	5.45144
3.10655	5.32549
3.10469	5.33465
3.10283	5.46926
3.10098	5.50079
3.09912	5.42031
3.09727	5.40522
3.09542	5.43314
3.09358	5.39327
3.09173	5.37733
3.08989	5.37711
3.08805	5.341
3.08621	5.30874
3.08437	5.41054
3.08254	5.39371
3.08071	5.31645
3.07888	5.3296
3.07705	5.38121
3.07523	5.2984
3.0734	5.19378
3.07158	5.34639
3.06977	5.47031
3.06795	5.44488
3.06613	5.4092
3.06432	5.36664
3.06251	5.3979
3.0607	5.46364
3.0589	5.35055
3.0571	5.30311
3.05529	5.38974
3.05349	5.44343
3.0517	5.38961
3.0499	5.33219
3.04811	5.29073
3.04632	5.19824
3.04453	5.15105
3.04274	5.23476
3.04096	5.17355
3.03918	5.05776
3.0374	5.10737
3.03562	5.25803
3.03384	5.35041
3.03207	5.26136
3.03029	5.24361
3.02852	5.33976
3.02676	5.30435
3.02499	5.16851
3.02323	5.05896
3.02146	5.13829
3.0197	5.20166
3.01795	5.13675
3.01619	5.2049
3.01444	5.22095
3.01269	5.20208
3.01094	5.06616
3.00919	4.99781
3.00744	5.26747
3.0057	5.3625
3.00396	5.25427
3.00222	5.25501
3.00048	5.29547
2.99875	5.34809
2.99701	5.2498
2.99528	5.11174
2.99355	5.0471
2.99183	5.06509
2.9901	5.12139
2.98838	5.24722
2.98666	5.25491
2.98494	5.12975
2.98322	5.05782
2.9815	4.99065
2.97979	5.00961
2.97808	5.18416
2.97637	5.12994
2.97466	5.11536
2.97295	5.2304
2.97125	5.13723
2.96955	5.00665
2.96785	4.95184
2.96615	5.07002
2.96446	5.21716
2.96276	5.03623
2.96107	4.81912
2.95938	4.89041
2.95769	5.09723
2.95601	5.12953
2.95432	5.08083
2.95264	5.00306
2.95096	4.98134
2.94928	5.07208
2.9476	5.06501
2.94593	5.07001
2.94425	5.06728
2.94258	4.98217
2.94092	4.88864
2.93925	5.00071
2.93758	5.04423
2.93592	5.10454
2.93426	4.96841
2.9326	4.91051
2.93094	4.97654
2.92928	5.06241
2.92763	5.08901
2.92598	5.0841
2.92433	5.12394
2.92268	5.16104
2.92103	5.17944
2.91939	5.03464
2.91775	4.9052
2.9161	4.93349
2.91447	4.89746
2.91283	4.8978
2.91119	4.89837
2.90956	4.98884
2.90793	5.02562
2.9063	4.94537
2.90467	4.98189
2.90304	5.09682
2.90142	5.00424
2.89979	5.00722
2.89817	5.1367
2.89656	5.01854
2.89494	4.78215
2.89332	4.79147
2.89171	4.97052
2.8901	5.02398
2.88849	5.1029
2.88688	5.17354
2.88527	5.09225
2.88367	4.97336
2.88206	4.98948
2.88046	4.96405
2.87886	4.96482
2.87727	4.9298
2.87567	4.83236
2.87408	4.85216
2.87248	4.87502
2.87089	4.97495
2.8693	4.91791
2.86772	4.88927
2.86613	4.94211
2.86455	4.98241
2.86297	4.95156
2.86139	4.92261
2.85981	4.95077
2.85823	5.06527
2.85666	5.02663
2.85508	4.864
2.85351	5.02377
2.85194	5.21365
2.85038	5.10205
2.84881	5.15198
2.84724	5.24975
2.84568	5.00485
2.84412	4.74725
2.84256	4.91396
2.841	5.06046
2.83945	5.13844
2.83789	4.96026
2.83634	4.88894
2.83479	5.00548
2.83324	5.19962
2.83169	5.29595
2.83015	5.32552
2.82861	5.28033
2.82706	5.04002
2.82552	4.84694
2.82398	4.85419
2.82245	5.04655
2.82091	5.11817
2.81938	4.81781
2.81784	4.69384
2.81631	4.73255
2.81479	4.70951
2.81326	4.77417
2.81173	5.016
2.81021	5.05988
2.80869	4.81561
2.80716	4.79398
2.80565	4.91042
2.80413	4.84413
2.80261	4.75016
2.8011	4.68573
2.79959	4.83336
2.79808	5.15813
2.79657	5.13636
2.79506	4.82714
2.79355	4.85397
2.79205	5.25437
2.79055	5.23304
2.78904	5.08147
2.78754	4.91031
2.78605	4.88993
2.78455	4.76795
2.78306	4.69572
2.78156	4.86295
2.78007	4.82178
2.77858	4.87972
2.77709	5.11368
2.77561	5.13238
2.77412	4.88904
2.77264	4.85599
2.77116	4.89981
2.76968	4.7571
2.7682	4.78587
2.76672	4.76195
2.76524	4.78158
2.76377	4.8963
2.7623	4.95114
2.76083	5.07602
2.75936	5.05755
2.75789	4.89834
2.75642	5.02597
2.75496	5.07757
2.7535	4.94053
2.75203	4.8277
2.75057	4.87772
2.74912	4.97242
2.74766	5.03864
2.7462	5.04254
2.74475	4.95838
2.7433	4.79568
2.74185	4.7921
2.7404	4.86386
2.73895	4.91572
2.7375	5.10084
2.73606	5.16944
2.73462	5.01234
2.73318	4.91082
2.73174	5.07303
2.7303	4.99836
2.72886	4.85709
2.72742	4.92347
2.72599	5.11105
2.72456	5.10242
2.72313	4.81899
2.7217	4.80689
2.72027	4.93843
2.71884	4.99735
2.71742	5.04831
2.71599	4.99262
2.71457	4.99039
2.71315	5.04634
2.71173	5.1394
2.71032	5.16271
2.7089	5.19188
2.70748	5.23419
2.70607	5.26275
2.70466	5.41164
2.70325	5.37729
2.70184	5.3376
2.70043	5.35288
2.69903	5.31535
2.69762	5.24272
2.69622	5.18112
2.69482	5.23156
2.69342	5.40341
2.69202	5.49655
2.69062	5.45668
2.68923	5.53996
2.68783	5.79394
2.68644	5.81224
2.68505	5.76255
2.68366	5.78174
2.68227	5.76466
2.68089	5.75709
2.6795	5.78395
2.67812	5.68358
2.67673	5.61997
2.67535	5.63958
2.67397	5.75382
2.6726	5.89002
2.67122	5.92586
2.66984	5.8459
2.66847	5.76963
2.6671	5.74402
2.66572	5.80197
2.66435	5.87409
2.66299	5.79161
2.66162	5.71378
2.66025	5.7341
2.65889	5.83301
2.65753	5.90164
2.65616	5.82092
2.65481	5.79518
2.65345	5.83243
2.65209	5.80496
2.65073	5.81918
2.64938	5.8446
2.64803	5.80455
2.64667	5.69108
2.64532	5.64439
2.64397	5.8629
2.64263	5.93466
2.64128	5.79276
2.63994	5.75217
2.63859	5.78296
2.63725	5.85132
2.63591	5.79784
2.63457	5.7049
2.63323	5.69129
2.6319	5.82445
2.63056	5.79179
2.62923	5.75091
2.62789	5.82568
2.62656	5.83931
2.62523	5.87045
2.6239	5.90698
2.62258	5.73615
2.62125	5.67197
2.61993	5.77958
2.6186	5.79612
2.61728	5.76306
2.61596	5.87765
2.61464	5.94593
2.61332	5.81456
2.61201	5.78292
2.61069	5.9105
2.60938	5.79898
2.60807	5.86034
2.60675	5.97015
2.60544	5.78351
2.60414	5.59764
2.60283	5.76967
2.60152	5.97114
2.60022	5.86881
2.59891	5.73112
2.59761	5.78935
2.59631	5.76987
2.59501	5.72294
2.59371	5.73913
2.59242	5.67326
2.59112	5.75762
2.58983	5.87941
2.58853	5.772
2.58724	5.70644
2.58595	5.75353
2.58466	5.74664
2.58338	5.79859
2.58209	5.93578
2.5808	5.82191
2.57952	5.76487
2.57824	5.75763
2.57695	5.84171
2.57567	5.89308
2.5744	5.73148
2.57312	5.73128
2.57184	5.79388
2.57057	5.73305
2.56929	5.65495
2.56802	5.75298
2.56675	5.83746
2.56548	5.73808
2.56421	5.68433
2.56294	5.74473
2.56168	5.90986
2.56041	5.92143
2.55915	5.81285
2.55789	5.75018
2.55662	5.79969
2.55536	5.78194
2.5541	5.71964
2.55285	5.74238
2.55159	5.77565
2.55034	5.6612
2.54908	5.74377
2.54783	5.69555
2.54658	5.70634
2.54533	5.86281
2.54408	5.7142
2.54283	5.61667
2.54159	5.66423
2.54034	5.71929
2.5391	5.7603
2.53785	5.84419
2.53661	5.98415
2.53537	5.9256
2.53413	5.76309
2.53289	5.80221
2.53166	5.70977
2.53042	5.54149
2.52919	5.64787
2.52795	5.85705
2.52672	5.86799
2.52549	5.73133
2.52426	5.63917
2.52303	5.64801
2.52181	5.67673
2.52058	5.78624
2.51936	5.88847
2.51813	5.75377
2.51691	5.64762
2.51569	5.76416
2.51447	5.76438
2.51325	5.76751
2.51203	5.78018
2.51082	5.7431
2.5096	5.74533
2.50839	5.75865
2.50717	5.7486
2.50596	5.73237
2.50475	5.76758
2.50354	5.87367
2.50233	5.80378
2.50113	5.7451
2.49992	5.78968
2.49872	5.84684
2.49751	5.82543
2.49631	5.8118
2.49511	5.78127
2.49391	5.82937
2.49271	5.90398
2.49151	5.86774
2.49031	5.74391
2.48912	5.71661
2.48792	5.84182
2.48673	5.82876
2.48554	5.6497
2.48435	5.63795
2.48316	5.63286
2.48197	5.62471
2.48078	5.75078
2.4796	5.81602
2.47841	5.84749
2.47723	5.85198
2.47604	5.73926
2.47486	5.77956
2.47368	5.9107
2.4725	5.87218
2.47132	5.81048
2.47014	5.64112
2.46897	5.62305
2.46779	5.87338
2.46662	5.98782
2.46545	5.93348
2.46427	5.8837
2.4631	5.81172
2.46193	5.80818
2.46077	5.74785
2.4596	5.70518
2.45843	5.62511
2.45727	5.52487
2.4561	5.54929
2.45494	5.6252
2.45378	5.73768
2.45262	5.9021
2.45146	5.82826
2.4503	5.87432
2.44914	5.84641
2.44799	5.74965
2.44683	5.77305
2.44568	5.85145
2.44452	5.94674
2.44337	5.88622
2.44222	5.84968
2.44107	5.83252
2.43992	5.84667
2.43877	5.86744
2.43763	5.82155
2.43648	5.89632
2.43534	5.80946
2.43419	5.6239
2.43305	5.57217
2.43191	5.62734
2.43077	5.82555
2.42963	5.81697
2.42849	5.68141
2.42736	5.73434
2.42622	5.80725
2.42509	5.73648
2.42395	5.80062
2.42282	5.79078
2.42169	5.69902
2.42056	5.63916
2.41943	5.50879
2.4183	5.47942
2.41717	5.69926
2.41605	5.86722
2.41492	5.86845
2.4138	5.8167
2.41267	5.75354
2.41155	5.66805
2.41043	5.74928
2.40931	5.78407
2.40819	5.8184
2.40707	5.86124
2.40595	5.89375
2.40484	5.80044
2.40372	5.76605
2.40261	5.78204
2.4015	5.67198
2.40039	5.57523
2.39928	5.56727
2.39817	5.82963
2.39706	5.8853
2.39595	5.82205
2.39484	5.94568
2.39374	5.9066
2.39263	5.8034
2.39153	5.8149
2.39043	5.76971
2.38932	5.8208
2.38822	5.74438
2.38712	5.68154
2.38603	5.61517
2.38493	5.58528
2.38383	5.69509
2.38274	5.83849
2.38164	5.84446
2.38055	5.82789
2.37946	5.77765
2.37836	5.76519
2.37727	5.70477
2.37618	5.83999
2.3751	5.8876
2.37401	5.75164
2.37292	5.7605
2.37184	5.85398
2.37075	5.81817
2.36967	5.92388
2.36859	5.85568
2.3675	5.62161
2.36642	5.5342
2.36534	5.5974
2.36427	5.71949
2.36319	5.79508
2.36211	5.75472
2.36104	5.71815
2.35996	5.78718
2.35889	5.84182
2.35781	5.7904
2.35674	5.67072
2.35567	5.56046
2.3546	5.70807
2.35353	5.82844
2.35247	5.784
2.3514	5.75319
2.35033	5.94649
2.34927	5.93694
2.3482	5.54975
2.34714	5.40661
2.34608	5.74552
2.34502	5.96738
2.34396	5.91302
2.3429	5.90474
2.34184	5.86086
2.34078	5.89715
2.33973	5.67605
2.33867	5.59488
2.33762	5.6613
2.33656	5.74671
2.33551	5.65946
2.33446	5.68521
2.33341	5.91083
2.33236	5.9396
2.33131	5.83698
2.33026	5.69271
2.32922	5.63081
2.32817	5.37563
2.32712	5.4816
2.32608	5.78153
2.32504	5.86135
2.324	5.85781
2.32295	5.89858
2.32191	5.76694
2.32087	5.92991
2.31984	5.88775
2.3188	5.67726
2.31776	5.78857
2.31673	5.7514
2.31569	5.55904
2.31466	5.61265
2.31362	5.68983
2.31259	5.66128
2.31156	5.68694
2.31053	5.5992
2.3095	5.61375
2.30847	5.78146
2.30745	5.74202
2.30642	5.6396
2.3054	5.61792
2.30437	5.78413
2.30335	5.756
2.30232	5.47182
2.3013	5.50369
2.30028	5.68739
2.29926	5.78483
2.29824	5.91116
2.29722	5.82954
2.29621	5.61055
2.29519	5.48905
2.29417	5.62671
2.29316	5.81785
2.29215	5.614
2.29113	5.4652
2.29012	5.60896
2.28911	5.78367
2.2881	5.8038
2.28709	5.6494
2.28608	5.56417
2.28507	5.64511
2.28407	5.78997
2.28306	5.88924
2.28206	5.75306
2.28105	5.59603
2.28005	5.83101
2.27905	5.98352
2.27805	5.85248
2.27705	5.8305
2.27605	5.83475
2.27505	5.83823
2.27405	5.88233
2.27305	5.93147
2.27206	5.8071
2.27106	5.71064
2.27007	5.8617
2.26907	5.94037
2.26808	5.91388
2.26709	5.89505
2.2661	5.91395
2.26511	5.85273
2.26412	5.78926
2.26313	5.76737
2.26214	5.80698
2.26116	5.8304
2.26017	5.75537
2.25919	5.70438
2.2582	5.6517
2.25722	5.71454
2.25624	5.87555
2.25526	5.93635
2.25428	5.90284
2.2533	5.88085
2.25232	5.73741
2.25134	5.49702
2.25036	5.53993
2.24939	5.7684
2.24841	5.78085
2.24744	5.61142
2.24646	5.5674
2.24549	5.61366
2.24452	5.73592
2.24355	5.74702
2.24257	5.74065
2.24161	5.72259
2.24064	5.76261
2.23967	5.83213
2.2387	5.76223
2.23774	5.6455
2.23677	5.60279
2.23581	5.63474
2.23484	5.69191
2.23388	5.84869
2.23292	5.95419
2.23196	5.81306
2.231	5.81597
2.23004	5.91593
2.22908	5.79302
2.22812	5.73187
2.22716	5.80929
2.22621	5.92522
2.22525	5.94157
2.2243	5.8348
2.22334	5.62654
2.22239	5.70603
2.22144	5.83844
2.22049	5.78066
2.21953	5.83571
2.21859	5.84307
2.21764	5.64254
2.21669	5.5252
2.21574	5.54599
2.21479	5.90265
2.21385	6.13162
2.2129	5.89818
2.21196	5.69705
2.21102	5.71304
2.21007	5.76779
2.20913	5.74376
2.20819	5.60129
2.20725	5.6719
2.20631	5.85358
2.20537	6.00897
2.20444	5.99367
2.2035	5.89872
2.20256	5.77373
2.20163	5.80779
2.20069	5.86565
2.19976	5.67972
2.19883	5.54029
2.19789	5.82767
2.19696	5.98176
2.19603	5.82516
2.1951	5.72757
2.19417	5.70821
2.19325	5.83789
2.19232	5.801
2.19139	5.81491
2.19047	5.90899
2.18954	5.78363
2.18862	5.78819
2.18769	6.0311
2.18677	6.09837
2.18585	6.054
2.18493	6.03275
2.18401	6.11859
2.18309	5.94169
2.18217	5.57254
2.18125	5.61201
2.18033	5.7049
2.17942	5.7595
2.1785	5.77234
2.17759	5.72612
2.17667	5.70624
2.17576	5.78915
2.17485	5.86194
2.17393	5.73302
2.17302	5.78321
2.17211	5.86536
2.1712	5.82296
2.17029	5.89221
2.16939	5.92917
2.16848	5.968
2.16757	6.08044
2.16667	6.2482
2.16576	6.15896
2.16486	6.10872
2.16395	6.06582
2.16305	5.92334
2.16215	5.88936
2.16125	5.757
2.16035	5.56602
2.15945	5.56013
2.15855	5.67233
2.15765	5.79536
2.15675	5.97132
2.15586	6.08205
2.15496	6.02359
2.15406	5.83901
2.15317	5.66098
2.15228	5.55371
2.15138	5.41246
2.15049	5.42251
2.1496	5.69838
2.14871	5.82247
2.14782	5.72674
2.14693	5.84558
2.14604	5.94034
2.14515	6.09201
2.14427	6.43742
2.14338	6.27215
2.14249	5.84053
2.14161	5.60416
2.14072	5.74717
2.13984	5.8242
2.13896	5.84929
2.13808	5.85235
2.13719	5.97671
2.13631	6.0666
2.13543	5.83902
2.13455	5.80046
2.13368	5.70437
2.1328	5.74126
2.13192	5.73872
2.13105	5.80331
2.13017	5.93856
2.1293	5.94702
2.12842	5.97099
2.12755	5.86743
2.12668	5.70136
2.1258	5.50747
2.12493	5.54781
2.12406	5.75053
2.12319	5.76627
2.12232	5.64918
2.12145	5.64267
2.12059	5.74739
2.11972	5.73303
2.11885	5.6143
2.11799	5.64216
2.11712	5.84699
2.11626	5.98757
2.1154	5.93431
2.11453	5.8478
2.11367	5.91104
2.11281	6.02001
2.11195	6.03991
2.11109	5.86889
2.11023	5.82591
2.10937	5.73806
2.10851	5.6828
2.10766	5.67309
2.1068	5.51273
2.10594	5.37536
2.10509	5.71092
2.10423	5.80672
2.10338	5.7384
2.10253	5.76446
2.10168	5.77585
2.10082	5.90928
2.09997	6.14168
2.09912	6.36379
2.09827	6.09962
2.09742	5.95366
2.09658	5.67957
2.09573	5.70271
2.09488	5.92842
2.09404	5.8976
2.09319	5.81873
2.09235	5.7233
2.0915	5.6528
2.09066	5.64858
2.08982	5.71194
2.08897	5.74774
2.08813	5.74111
2.08729	5.72024
2.08645	6.03364
2.08561	6.00522
2.08477	5.94114
2.08394	6.00197
2.0831	5.64677
2.08226	5.69054
2.08143	5.94563
2.08059	5.9958
2.07976	5.84486
2.07892	5.89311
2.07809	5.88949
2.07726	5.62332
2.07643	5.74882
2.07559	5.88802
2.07476	5.75586
2.07393	6.12201
2.0731	5.73133
2.07228	5.10526
2.07145	5.39509
2.07062	5.5416
2.06979	5.60675
2.06897	5.51489
2.06814	5.12871
2.06732	5.41901
2.06649	5.98611
2.06567	5.92544
2.06485	5.58269
2.06403	6.02048
2.0632	6.53332
2.06238	6.27678
2.06156	5.90765
2.06074	5.37374
2.05993	5.36997
2.05911	5.86184
2.05829	5.96805
2.05747	5.74864
2.05666	5.57574
2.05584	5.56851
2.05503	6.15035
2.05421	6.15526
2.0534	5.62807
2.05259	5.46259
2.05177	5.50005
2.05096	5.66925
2.05015	5.9184
2.04934	6.05096
2.04853	6.06489
2.04772	6.01356
2.04691	5.87096
2.04611	5.68313
2.0453	5.66865
2.04449	5.68121
2.04369	5.69972
2.04288	5.75926
2.04208	5.83642
2.04127	5.84567
2.04047	5.82218
2.03967	5.92682
2.03886	5.91192
2.03806	5.6287
2.03726	5.44981
2.03646	5.8158
2.03566	6.0086
2.03486	5.87712
2.03407	5.67945
2.03327	5.59257
2.03247	5.66107
2.03167	5.62466
2.03088	5.52976
2.03008	5.5782
2.02929	5.80906
2.0285	6.04881
2.0277	6.10898
2.02691	6.21108
2.02612	6.10711
2.02533	5.75329
2.02453	5.81055
2.02374	5.86586
2.02295	5.75825
2.02217	5.76103
2.02138	5.75668
2.02059	5.69657
2.0198	5.37449
2.01902	5.46852
2.01823	5.86056
2.01744	5.93339
2.01666	5.54358
2.01588	5.49211
2.01509	5.71683
2.01431	5.86574
2.01353	6.02105
2.01275	5.8706
2.01196	5.85915
2.01118	5.94219
2.0104	6.14021
2.00963	6.18047
2.00885	5.86823
2.00807	5.59276
2.00729	5.70555
2.00651	5.93076
2.00574	6.16354
2.00496	6.19751
2.00419	5.92351
2.00341	5.5941
2.00264	5.52382
2.00187	5.71779
2.00109	5.72366
2.00032	5.53637
