Name: Marcasite FeS_2
Type: Mineral
Class: Sulfides
Subclass: 
Particle Size: 0-45um
Sample No.: S-10A
Owner: JPL
Wavelength range: IR
Origin: USA, Indiana, Jasper County, Rensselaer, Pleasant Ridge Quarry
Collected by Ward's
Description: 





Measurement: Hemispherical reflectance
First Column: X
Second Column: Y
X Units:  Wavelength (micrometers)
Y Units:  Reflectance (percent)
First X Value: 15.3853
Last X Value: 2.00032
Number of X Values: 2256
Additional information: s10aa.txt
 
15.3853	2.34927
15.3397	2.25684
15.2945	2.06728
15.2495	2.14743
15.2048	2.03583
15.1603	2.07439
15.1161	2.01242
15.0722	1.83448
15.0285	1.81326
14.9851	1.72992
14.9419	1.61283
14.8989	1.97173
14.8563	2.29296
14.8138	2.38883
14.7716	2.67066
14.7296	2.74573
14.6879	2.7689
14.6464	2.79542
14.6052	3.00261
14.5641	3.44719
14.5233	3.61517
14.4828	3.58675
14.4424	3.64001
14.4023	3.7879
14.3624	3.72677
14.3227	3.66228
14.2833	3.76977
14.244	3.56577
14.205	3.43671
14.1662	3.68993
14.1276	3.66019
14.0892	3.56657
14.051	3.52415
14.0131	3.53474
13.9753	3.6604
13.9377	3.75744
13.9004	3.75544
13.8632	3.98961
13.8262	3.9655
13.7895	3.88367
13.7529	3.78555
13.7165	3.64744
13.6803	3.72246
13.6443	3.90134
13.6085	3.87571
13.5729	3.81813
13.5374	3.67098
13.5022	3.59567
13.4671	3.77607
13.4322	3.78641
13.3975	3.70241
13.363	3.729
13.3286	3.77452
13.2944	3.61104
13.2604	3.52882
13.2266	3.55756
13.193	3.58054
13.1595	3.57647
13.1262	3.44919
13.093	3.29945
13.06	3.25419
13.0272	3.18486
12.9946	3.30173
12.9621	3.36869
12.9298	3.29031
12.8976	3.22036
12.8656	3.22579
12.8337	3.02985
12.8021	2.88963
12.7705	2.95486
12.7391	3.0368
12.7079	3.07803
12.6769	2.98425
12.6459	2.70816
12.6152	2.49449
12.5845	2.44882
12.5541	2.45215
12.5238	2.38015
12.4936	2.25727
12.4635	2.3446
12.4337	2.37843
12.4039	2.37795
12.3743	2.36192
12.3448	2.23086
12.3155	2.12396
12.2863	2.04712
12.2573	2.12821
12.2284	2.09672
12.1996	2.01095
12.171	2.10398
12.1425	2.16786
12.1141	2.06922
12.0859	2.01184
12.0578	2.0487
12.0298	1.98359
12.0019	1.90385
11.9742	1.97584
11.9466	2.03145
11.9192	2.10721
11.8918	2.09588
11.8646	1.88943
11.8375	1.88723
11.8106	1.98766
11.7837	2.08622
11.757	2.21542
11.7304	2.0252
11.7039	1.90187
11.6776	2.03847
11.6513	2.08324
11.6252	2.17317
11.5992	2.2866
11.5733	2.47427
11.5475	2.54104
11.5219	2.57251
11.4963	2.71961
11.4709	2.87177
11.4455	3.00749
11.4203	3.16872
11.3952	3.32662
11.3702	3.43997
11.3454	3.55751
11.3206	3.74899
11.2959	3.93811
11.2714	3.95085
11.2469	3.9081
11.2226	4.02116
11.1983	4.18391
11.1742	4.20999
11.1502	4.24209
11.1263	4.26005
11.1024	4.20508
11.0787	4.24728
11.0551	4.40864
11.0316	4.51326
11.0081	4.57401
10.9848	4.70474
10.9616	4.82133
10.9385	4.86664
10.9154	4.87649
10.8925	4.87304
10.8697	5.01068
10.8469	5.10626
10.8243	5.11339
10.8017	5.19644
10.7793	5.17839
10.7569	5.2095
10.7346	5.27691
10.7125	5.326
10.6904	5.29889
10.6684	5.26283
10.6465	5.35941
10.6247	5.43208
10.6029	5.38702
10.5813	5.44782
10.5597	5.48781
10.5383	5.39265
10.5169	5.44916
10.4956	5.48688
10.4744	5.36416
10.4533	5.27137
10.4323	5.21811
10.4113	5.13902
10.3904	5.13913
10.3697	5.13609
10.349	5.03013
10.3284	4.87792
10.3078	4.75611
10.2874	4.7026
10.267	4.60221
10.2467	4.52603
10.2265	4.6176
10.2064	4.70148
10.1863	4.58118
10.1663	4.50077
10.1464	4.50456
10.1266	4.39197
10.1069	4.33343
10.0872	4.28824
10.0676	4.19629
10.0481	4.17751
10.0287	4.16508
10.0093	4.03951
9.99005	3.86895
9.97084	3.66547
9.95169	3.40185
9.93263	3.1297
9.91364	2.95763
9.89472	2.88597
9.87587	2.66348
9.8571	2.26693
9.83839	2.00236
9.81976	1.90238
9.80119	1.90416
9.78271	2.10479
9.76428	2.50836
9.74592	3.03156
9.72764	3.39979
9.70943	3.69256
9.69128	3.88367
9.6732	4.04998
9.65518	4.20704
9.63724	4.25962
9.61935	4.15918
9.60155	4.02226
9.5838	3.88623
9.56611	3.77145
9.5485	3.66725
9.53094	3.66835
9.51345	3.55954
9.49604	3.43632
9.47867	3.44281
9.46137	3.43907
9.44414	3.42931
9.42697	3.37087
9.40986	3.17189
9.39281	3.13753
9.37583	3.26609
9.35891	3.29804
9.34204	3.35844
9.32524	3.32373
9.3085	3.36957
9.29182	3.46501
9.27519	3.54949
9.25863	3.51826
9.24213	3.32694
9.22568	3.23765
9.2093	3.17505
9.19297	3.15083
9.17669	3.17223
9.16048	3.16208
9.14433	3.10239
9.12823	3.07361
9.11218	2.98695
9.0962	3.09369
9.08027	3.2327
9.06439	3.16631
9.04858	3.04696
9.03281	3.09551
9.0171	3.20278
9.00145	3.35189
8.98585	3.58338
8.9703	3.56699
8.9548	3.60014
8.93937	3.83446
8.92398	3.77488
8.90865	3.83994
8.89337	4.03879
8.87814	4.09031
8.86296	4.11267
8.84784	4.17806
8.83277	4.31902
8.81774	4.54997
8.80277	4.63075
8.78786	4.6005
8.77298	4.64555
8.75816	4.898
8.7434	5.12998
8.72868	5.2844
8.714	5.36122
8.69938	5.50563
8.68481	5.77243
8.67029	5.86542
8.65581	5.65276
8.64139	5.39225
8.62701	5.18762
8.61268	4.8861
8.5984	4.68778
8.58416	4.72301
8.56997	4.67767
8.55583	4.47985
8.54174	4.48751
8.52769	4.53812
8.51368	4.51737
8.49973	4.54396
8.48582	4.51001
8.47195	4.48474
8.45813	4.55872
8.44436	4.67438
8.43062	4.68025
8.41693	4.57901
8.4033	4.43372
8.3897	4.42322
8.37614	4.4172
8.36264	4.3309
8.34917	4.39135
8.33574	4.44827
8.32236	4.35244
8.30903	4.26171
8.29573	4.33077
8.28248	4.41749
8.26927	4.47689
8.2561	4.42828
8.24298	4.36132
8.2299	4.29646
8.21685	4.31223
8.20385	4.28708
8.19089	4.19118
8.17797	4.19301
8.16509	4.36733
8.15225	4.66103
8.13946	4.76208
8.1267	4.79905
8.11398	4.88629
8.10131	4.97795
8.08867	5.25529
8.07606	5.48809
8.0635	5.68644
8.05099	5.81756
8.0385	5.89977
8.02606	6.02162
8.01366	6.06697
8.00129	6.04105
7.98896	6.09559
7.97667	6.15338
7.96442	6.15969
7.9522	6.28279
7.94002	6.40807
7.92788	6.4298
7.91578	6.51643
7.90371	6.61247
7.89168	6.74549
7.87969	6.80472
7.86773	6.73643
7.85581	6.88524
7.84392	7.16558
7.83207	7.2172
7.82026	7.17991
7.80849	7.12109
7.79674	7.13825
7.78503	7.22669
7.77337	7.39965
7.76173	7.54173
7.75012	7.56772
7.73856	7.63513
7.72703	7.72668
7.71553	7.82254
7.70406	7.91012
7.69263	8.00153
7.68123	8.04824
7.66987	8.19646
7.65855	8.33204
7.64725	8.28351
7.63598	8.32596
7.62475	8.46955
7.61356	8.49954
7.60239	8.5132
7.59126	8.66969
7.58017	8.8212
7.5691	8.82476
7.55806	8.8491
7.54707	8.91587
7.5361	8.98541
7.52516	8.97382
7.51425	9.0141
7.50338	9.18131
7.49253	9.36249
7.48172	9.53918
7.47094	9.53503
7.46019	9.48737
7.44947	9.44599
7.43879	9.37093
7.42813	9.34412
7.4175	9.42727
7.4069	9.5082
7.39634	9.60437
7.3858	9.66364
7.37529	9.64933
7.36482	9.61123
7.35437	9.61319
7.34396	9.62631
7.33357	9.64597
7.32321	9.66526
7.31288	9.72601
7.30258	9.73698
7.29231	9.73529
7.28207	9.82704
7.27185	9.91544
7.26167	9.86216
7.25152	9.80541
7.24139	9.85021
7.23129	9.88701
7.22122	9.79397
7.21117	9.90314
7.20116	9.99641
7.19117	9.97288
7.18121	10.0067
7.17128	10.0556
7.16137	9.96982
7.1515	9.95903
7.14164	10.0276
7.13182	9.99002
7.12203	9.9937
7.11225	9.976
7.10251	9.81789
7.0928	9.7288
7.08311	9.77785
7.07344	9.74824
7.06381	9.69569
7.0542	9.85822
7.04461	9.91428
7.03506	9.68805
7.02552	9.5603
7.01601	9.4668
7.00653	9.42692
6.99708	9.40116
6.98765	9.2869
6.97824	9.15192
6.96886	9.02607
6.95951	9.01261
6.95018	8.89727
6.94087	8.69652
6.9316	8.42481
6.92234	8.25398
6.91311	8.12341
6.90391	7.87627
6.89473	7.59995
6.88557	7.3745
6.87644	7.2354
6.86733	7.2841
6.85824	7.02848
6.84918	6.59037
6.84015	6.18236
6.83114	5.86134
6.82215	5.57449
6.81319	5.29773
6.80424	5.08157
6.79532	4.88878
6.78643	4.67022
6.77756	4.42472
6.76871	4.16493
6.75989	4.0002
6.75109	3.88433
6.74231	3.741
6.73355	3.56335
6.72482	3.44155
6.71611	3.41496
6.70742	3.35724
6.69875	3.23697
6.69011	3.19034
6.68149	3.32001
6.67289	3.473
6.66431	3.56375
6.65576	3.62964
6.64722	3.78411
6.63871	4.08498
6.63022	4.17844
6.62175	4.26919
6.61331	4.45726
6.60488	4.62449
6.59648	4.82746
6.5881	5.02177
6.57974	5.29942
6.5714	5.54208
6.56308	5.61472
6.55478	5.78748
6.54651	6.0161
6.53825	6.18576
6.53001	6.46733
6.5218	6.79544
6.51361	6.94889
6.50544	7.18353
6.49729	7.62016
6.48915	7.82485
6.48104	7.79126
6.47295	7.7936
6.46488	7.78513
6.45683	7.84907
6.4488	7.98456
6.44079	7.99298
6.4328	8.06691
6.42482	8.25907
6.41687	8.62963
6.40894	8.56862
6.40103	8.14039
6.39314	8.04838
6.38526	8.08018
6.37741	8.17167
6.36957	8.18011
6.36176	8.08218
6.35396	8.14552
6.34618	8.28563
6.33843	8.15633
6.33069	7.90167
6.32297	7.87005
6.31527	7.83454
6.30758	7.77148
6.29992	7.67985
6.29227	7.58011
6.28465	7.5162
6.27704	7.39815
6.26945	7.28962
6.26188	7.23131
6.25432	7.1906
6.24679	7.03299
6.23927	6.80377
6.23177	6.65121
6.22429	6.57769
6.21683	6.39926
6.20938	6.10089
6.20195	5.9802
6.19454	5.91063
6.18715	5.89512
6.17978	5.69964
6.17242	5.45116
6.16508	5.31598
6.15776	5.21618
6.15045	5.05581
6.14317	4.95117
6.1359	4.93027
6.12864	4.85673
6.12141	4.84184
6.11419	4.89398
6.10699	4.7944
6.0998	4.68395
6.09263	4.72963
6.08549	4.77611
6.07835	4.87984
6.07123	4.86705
6.06413	4.76903
6.05705	4.9868
6.04998	5.36162
6.04293	5.2459
6.0359	5.11572
6.02888	5.24963
6.02187	5.43028
6.01489	5.56103
6.00792	5.60778
6.00096	5.69408
5.99403	5.89591
5.98711	6.01073
5.9802	6.02873
5.97331	6.12036
5.96644	6.22578
5.95958	6.30435
5.95274	6.41138
5.94591	6.57427
5.9391	6.98035
5.9323	7.00659
5.92552	6.92687
5.91876	7.04382
5.91201	7.1722
5.90528	7.50546
5.89856	7.94176
5.89186	8.00594
5.88517	8.21854
5.8785	8.53951
5.87184	8.43465
5.8652	8.58246
5.85857	8.7088
5.85196	8.773
5.84536	8.92139
5.83878	9.15304
5.83221	9.35325
5.82566	9.63509
5.81912	9.75448
5.81259	9.61515
5.80608	9.614
5.79959	9.78606
5.79311	9.94206
5.78665	10.0752
5.78019	10.1493
5.77376	10.3155
5.76734	10.5952
5.76093	10.4269
5.75453	10.3672
5.74815	10.4961
5.74179	10.4572
5.73543	10.4647
5.7291	10.5654
5.72277	10.6756
5.71646	10.7571
5.71017	10.7563
5.70389	10.6761
5.69762	10.7583
5.69136	10.942
5.68513	11.0354
5.6789	11.2349
5.67268	11.3066
5.66648	11.2723
5.6603	11.4392
5.65413	11.6608
5.64797	11.8563
5.64182	11.9604
5.63569	11.9765
5.62957	12.0167
5.62347	12.0406
5.61737	12.1363
5.61129	12.2854
5.60522	12.413
5.59917	12.484
5.59313	12.5871
5.5871	12.7912
5.58109	12.996
5.57509	13.068
5.5691	13.0294
5.56312	13.0695
5.55716	13.1099
5.55121	13.1783
5.54528	13.2006
5.53935	13.243
5.53344	13.2639
5.52754	13.3752
5.52166	13.5083
5.51578	13.5714
5.50992	13.5621
5.50407	13.5831
5.49823	13.6215
5.49241	13.7001
5.4866	13.7487
5.4808	13.8723
5.47501	13.9107
5.46923	13.9879
5.46347	14.0596
5.45772	14.0056
5.45198	13.9868
5.44625	14.038
5.44054	14.0719
5.43484	14.0777
5.42914	14.1511
5.42347	14.4229
5.4178	14.4169
5.41214	14.2565
5.4065	14.3195
5.40087	14.4651
5.39525	14.5397
5.38964	14.5577
5.38404	14.5362
5.37846	14.4944
5.37288	14.4735
5.36732	14.5512
5.36177	14.6769
5.35623	14.7324
5.35071	14.8016
5.34519	14.8251
5.33968	14.8421
5.33419	14.8738
5.32871	14.7848
5.32324	14.7066
5.31778	14.7868
5.31233	14.9213
5.30689	14.9296
5.30147	14.8631
5.29605	14.877
5.29065	14.9187
5.28525	14.8792
5.27987	14.8675
5.2745	14.9143
5.26914	14.8947
5.26379	14.9232
5.25845	14.9457
5.25312	14.9134
5.24781	14.8633
5.2425	14.8605
5.23721	14.8667
5.23192	14.8532
5.22665	14.799
5.22138	14.7973
5.21613	14.8506
5.21089	14.7842
5.20566	14.6734
5.20044	14.6974
5.19522	14.6563
5.19002	14.6402
5.18483	14.6071
5.17965	14.5234
5.17448	14.5543
5.16933	14.5676
5.16418	14.494
5.15904	14.4176
5.15391	14.3528
5.14879	14.2984
5.14368	14.3093
5.13859	14.272
5.1335	14.2127
5.12842	14.0913
5.12335	14.0065
5.1183	13.9753
5.11325	13.8685
5.10821	13.7866
5.10318	13.7522
5.09817	13.7091
5.09316	13.6435
5.08816	13.5847
5.08317	13.5101
5.07819	13.3823
5.07322	13.199
5.06826	13.1383
5.06331	13.142
5.05837	13.1342
5.05344	12.9948
5.04852	12.9259
5.04361	12.9633
5.03871	12.8763
5.03382	12.7624
5.02894	12.6527
5.02406	12.6219
5.0192	12.6262
5.01435	12.6265
5.0095	12.6227
5.00467	12.5232
4.99984	12.4297
4.99502	12.4507
4.99021	12.4977
4.98542	12.4594
4.98063	12.386
4.97585	12.3865
4.97108	12.3194
4.96632	12.213
4.96156	12.1579
4.95682	12.0983
4.95209	12.086
4.94736	12.0984
4.94264	12.0982
4.93794	12.0876
4.93324	12.1148
4.92855	12.1255
4.92387	12.0883
4.9192	12.1774
4.91453	12.3139
4.90988	12.3027
4.90524	12.2071
4.9006	12.1619
4.89597	12.1752
4.89135	12.1833
4.88674	12.2715
4.88214	12.3181
4.87755	12.2624
4.87296	12.2778
4.86839	12.2465
4.86382	12.2291
4.85926	12.2248
4.85471	12.1487
4.85017	12.0732
4.84564	11.996
4.84111	11.8971
4.8366	11.8513
4.83209	11.7778
4.82759	11.716
4.8231	11.6481
4.81862	11.6139
4.81415	11.6545
4.80968	11.6608
4.80522	11.5967
4.80077	11.6217
4.79633	11.7768
4.7919	11.909
4.78747	11.9668
4.78306	11.9765
4.77865	12.1111
4.77425	12.2201
4.76986	12.2364
4.76547	12.3348
4.7611	12.4265
4.75673	12.4338
4.75237	12.4354
4.74802	12.508
4.74367	12.5059
4.73934	12.4501
4.73501	12.3643
4.73069	12.3126
4.72638	12.2503
4.72207	12.153
4.71777	12.0408
4.71348	11.914
4.7092	11.8882
4.70493	11.956
4.70066	11.8743
4.69641	11.7668
4.69216	11.7468
4.68791	11.7641
4.68368	11.786
4.67945	11.7272
4.67523	11.7205
4.67102	11.8482
4.66682	11.8778
4.66262	11.8168
4.65843	11.8026
4.65425	11.7996
4.65007	11.8326
4.64591	11.861
4.64175	11.7598
4.6376	11.7131
4.63345	11.6821
4.62932	11.6764
4.62519	11.7259
4.62106	11.6998
4.61695	11.6423
4.61284	11.6278
4.60874	11.5731
4.60465	11.4534
4.60056	11.3929
4.59648	11.3393
4.59241	11.2148
4.58835	11.1273
4.58429	11.1081
4.58024	11.2055
4.5762	11.2506
4.57216	11.1923
4.56814	11.1457
4.56411	11.1874
4.5601	11.2652
4.55609	11.2922
4.55209	11.2277
4.5481	11.1677
4.54411	11.0763
4.54013	11.0854
4.53616	11.156
4.5322	11.2293
4.52824	11.2259
4.52429	11.1153
4.52034	11.0798
4.51641	11.1323
4.51247	11.1405
4.50855	11.1512
4.50463	11.1625
4.50072	11.2264
4.49682	11.2174
4.49292	11.2038
4.48903	11.1835
4.48515	11.1122
4.48127	11.1755
4.4774	11.3127
4.47354	11.3095
4.46968	11.2289
4.46584	11.2005
4.46199	11.2422
4.45815	11.2944
4.45432	11.2666
4.4505	11.2913
4.44668	11.4052
4.44287	11.4733
4.43907	11.4181
4.43527	11.4228
4.43148	11.5481
4.4277	11.5983
4.42392	11.5539
4.42015	11.5084
4.41638	11.5055
4.41262	11.5459
4.40887	11.5937
4.40513	11.5805
4.40139	11.5748
4.39765	11.5845
4.39393	11.5667
4.39021	11.5961
4.38649	11.5728
4.38278	11.462
4.37908	11.4288
4.37539	11.4817
4.3717	11.5053
4.36801	11.4878
4.36434	11.4584
4.36067	11.414
4.357	11.3132
4.35335	11.2567
4.34969	11.2331
4.34605	11.2122
4.34241	11.2415
4.33877	11.2639
4.33514	11.2328
4.33152	11.2894
4.32791	11.3316
4.3243	11.3002
4.32069	11.3042
4.3171	11.2924
4.31351	11.1742
4.30992	11.1801
4.30634	11.3514
4.30277	11.3623
4.2992	11.3184
4.29564	11.2933
4.29208	11.2378
4.28853	11.2176
4.28499	11.2178
4.28145	11.2962
4.27792	11.359
4.27439	11.3016
4.27087	11.341
4.26735	11.4588
4.26384	11.4631
4.26034	11.5343
4.25684	11.6265
4.25335	11.5931
4.24986	11.5257
4.24638	11.465
4.24291	11.4535
4.23944	11.4334
4.23598	11.3981
4.23252	11.3799
4.22906	11.443
4.22562	11.502
4.22218	11.5633
4.21874	11.6459
4.21531	11.711
4.21189	11.748
4.20847	11.8375
4.20506	11.8992
4.20165	11.8716
4.19825	11.7682
4.19485	11.7911
4.19146	11.8975
4.18807	11.9099
4.18469	11.8225
4.18132	11.8527
4.17795	11.9653
4.17458	11.9896
4.17123	11.986
4.16787	12.068
4.16453	12.059
4.16118	11.9691
4.15785	12.0077
4.15451	12.163
4.15119	12.1901
4.14787	12.0932
4.14455	12.0305
4.14124	12.0337
4.13794	12.0212
4.13464	12.0721
4.13134	12.1787
4.12805	12.2239
4.12477	12.1954
4.12149	12.1786
4.11822	12.2334
4.11495	12.2008
4.11168	12.1586
4.10843	12.2051
4.10517	12.2217
4.10192	12.1992
4.09868	12.1918
4.09545	12.2337
4.09221	12.1917
4.08899	12.0744
4.08576	12.1333
4.08255	12.1758
4.07933	12.1822
4.07613	12.2066
4.07292	12.2764
4.06973	12.218
4.06654	12.1363
4.06335	12.1916
4.06017	12.1958
4.05699	12.2442
4.05382	12.2567
4.05065	12.2498
4.04749	12.3614
4.04433	12.344
4.04118	12.3211
4.03803	12.3764
4.03489	12.3226
4.03175	12.2802
4.02862	12.3154
4.02549	12.4008
4.02237	12.4584
4.01925	12.4298
4.01614	12.4412
4.01303	12.4507
4.00993	12.3841
4.00683	12.39
4.00373	12.3827
4.00064	12.3561
3.99756	12.4354
3.99448	12.5425
3.9914	12.5277
3.98833	12.4738
3.98527	12.5146
3.98221	12.5636
3.97915	12.5602
3.9761	12.557
3.97305	12.6834
3.97001	12.6634
3.96697	12.583
3.96394	12.5776
3.96091	12.5972
3.95789	12.6265
3.95487	12.7045
3.95186	12.683
3.94885	12.5748
3.94584	12.5909
3.94284	12.6395
3.93984	12.5709
3.93685	12.5082
3.93386	12.5997
3.93088	12.6657
3.9279	12.5989
3.92493	12.5909
3.92196	12.6214
3.919	12.6208
3.91604	12.6099
3.91308	12.5927
3.91013	12.5175
3.90718	12.5032
3.90424	12.4836
3.9013	12.4642
3.89837	12.5005
3.89544	12.5093
3.89252	12.4858
3.8896	12.524
3.88668	12.4813
3.88377	12.4373
3.88086	12.4103
3.87796	12.3822
3.87506	12.362
3.87217	12.3864
3.86928	12.4134
3.86639	12.3626
3.86351	12.3356
3.86064	12.2658
3.85776	12.2651
3.8549	12.3231
3.85203	12.307
3.84917	12.2937
3.84631	12.1948
3.84346	12.1534
3.84062	12.1859
3.83777	12.0831
3.83494	12.0249
3.8321	12.0643
3.82927	12.0197
3.82644	12.055
3.82362	12.059
3.82081	11.9721
3.81799	11.9197
3.81518	11.9094
3.81238	11.8048
3.80958	11.7783
3.80678	11.9168
3.80399	11.8756
3.8012	11.687
3.79841	11.6238
3.79563	11.651
3.79286	11.64
3.79008	11.6196
3.78731	11.6027
3.78455	11.61
3.78179	11.573
3.77903	11.4268
3.77628	11.3574
3.77353	11.3981
3.77079	11.4243
3.76805	11.4125
3.76531	11.303
3.76258	11.2417
3.75985	11.2255
3.75713	11.266
3.7544	11.253
3.75169	11.0757
3.74898	10.9785
3.74627	10.9827
3.74356	10.9863
3.74086	10.9568
3.73816	10.9194
3.73547	10.8902
3.73278	10.7378
3.7301	10.6988
3.72741	10.7653
3.72474	10.7381
3.72206	10.6576
3.71939	10.5491
3.71673	10.5307
3.71406	10.5561
3.71141	10.4517
3.70875	10.3544
3.7061	10.2675
3.70345	10.2437
3.70081	10.2376
3.69817	10.2326
3.69553	10.1807
3.6929	10.1565
3.69027	10.1533
3.68765	10.1164
3.68503	10.0799
3.68241	9.96932
3.6798	9.81283
3.67719	9.79045
3.67458	9.81737
3.67198	9.76094
3.66938	9.71854
3.66678	9.75545
3.66419	9.59548
3.66161	9.53903
3.65902	9.55761
3.65644	9.47388
3.65387	9.47433
3.65129	9.47164
3.64872	9.41117
3.64616	9.37593
3.64359	9.3186
3.64103	9.24775
3.63848	9.16365
3.63593	9.09056
3.63338	9.10857
3.63084	9.07306
3.6283	8.96471
3.62576	8.96071
3.62322	8.99358
3.62069	8.87818
3.61817	8.80864
3.61564	8.74644
3.61312	8.75009
3.61061	8.73496
3.6081	8.64575
3.60559	8.5939
3.60308	8.53662
3.60058	8.45654
3.59808	8.43954
3.59558	8.43167
3.59309	8.35491
3.59061	8.33997
3.58812	8.32361
3.58564	8.31094
3.58316	8.32052
3.58069	8.25135
3.57822	8.17882
3.57575	8.0873
3.57328	7.96483
3.57082	7.9605
3.56836	8.01726
3.56591	8.07532
3.56346	8.05692
3.56101	7.95906
3.55857	7.8668
3.55613	7.74629
3.55369	7.66178
3.55126	7.61184
3.54883	7.61502
3.5464	7.62103
3.54397	7.61233
3.54155	7.51276
3.53914	7.43907
3.53672	7.44899
3.53431	7.42479
3.5319	7.25906
3.5295	7.22458
3.5271	7.26506
3.5247	7.29294
3.52231	7.31554
3.51991	7.34437
3.51753	7.27513
3.51514	7.12413
3.51276	7.04269
3.51038	7.02976
3.50801	7.0219
3.50563	6.98411
3.50327	6.93994
3.5009	6.82246
3.49854	6.71534
3.49618	6.68529
3.49382	6.66974
3.49147	6.63565
3.48912	6.57871
3.48677	6.54244
3.48443	6.60552
3.48209	6.6159
3.47975	6.49263
3.47742	6.38299
3.47509	6.36749
3.47276	6.4161
3.47044	6.3939
3.46812	6.31889
3.4658	6.25177
3.46348	6.20205
3.46117	6.12761
3.45886	6.10847
3.45656	6.06771
3.45425	6.03523
3.45195	5.99542
3.44966	5.93608
3.44736	5.88745
3.44507	5.8598
3.44279	5.71209
3.4405	5.68867
3.43822	5.68363
3.43594	5.75784
3.43367	5.69045
3.43139	5.6174
3.42912	5.5231
3.42686	5.48238
3.42459	5.54135
3.42233	5.44953
3.42007	5.38097
3.41782	5.35823
3.41557	5.25695
3.41332	5.21463
3.41108	5.17564
3.40883	5.15788
3.40659	5.22276
3.40435	5.1491
3.40212	5.04674
3.39989	5.0178
3.39766	5.0341
3.39544	5.01487
3.39322	4.89344
3.391	4.73499
3.38878	4.72857
3.38657	4.7662
3.38436	4.7515
3.38215	4.6532
3.37994	4.67891
3.37774	4.68083
3.37554	4.54476
3.37335	4.47248
3.37115	4.45695
3.36896	4.36586
3.36678	4.37984
3.36459	4.44567
3.36241	4.39959
3.36023	4.29163
3.35805	4.249
3.35588	4.19111
3.35371	4.17695
3.35154	4.1561
3.34938	4.12945
3.34721	4.14991
3.34505	4.17439
3.3429	4.12151
3.34074	3.9911
3.33859	3.90914
3.33644	3.88755
3.3343	3.86363
3.33215	3.82207
3.33001	3.80502
3.32788	3.80714
3.32574	3.73488
3.32361	3.70957
3.32148	3.77785
3.31936	3.7688
3.31723	3.59123
3.31511	3.4508
3.31299	3.56077
3.31088	3.66258
3.30876	3.52573
3.30665	3.38479
3.30455	3.41074
3.30244	3.41159
3.30034	3.32406
3.29824	3.26715
3.29614	3.28835
3.29405	3.20561
3.29196	3.19264
3.28987	3.27086
3.28778	3.28094
3.2857	3.1043
3.28362	2.9444
3.28154	2.93092
3.27946	2.9402
3.27739	2.91999
3.27532	2.89385
3.27325	2.97655
3.27119	3.09965
3.26913	3.00683
3.26707	2.88262
3.26501	3.01711
3.26295	3.07379
3.2609	3.0639
3.25885	3.05779
3.2568	2.93781
3.25476	2.88821
3.25272	2.87603
3.25068	2.87989
3.24864	2.80768
3.24661	2.7427
3.24458	2.81301
3.24255	2.80337
3.24052	2.7938
3.2385	2.88502
3.23648	2.87958
3.23446	2.72493
3.23244	2.6138
3.23043	2.73443
3.22841	2.82715
3.2264	2.78439
3.2244	2.64166
3.22239	2.63033
3.22039	2.70933
3.21839	2.73752
3.2164	2.65113
3.2144	2.63165
3.21241	2.62698
3.21042	2.60057
3.20844	2.6554
3.20645	2.61386
3.20447	2.55676
3.20249	2.44002
3.20051	2.47654
3.19854	2.57382
3.19657	2.49523
3.1946	2.4818
3.19263	2.47912
3.19067	2.37063
3.1887	2.35527
3.18674	2.35482
3.18479	2.28918
3.18283	2.36999
3.18088	2.4727
3.17893	2.4388
3.17698	2.42618
3.17504	2.29886
3.17309	2.21166
3.17115	2.24423
3.16921	2.27215
3.16728	2.20631
3.16534	2.21579
3.16341	2.30929
3.16148	2.33066
3.15956	2.26374
3.15763	2.22875
3.15571	2.22333
3.15379	2.13666
3.15187	1.99663
3.14996	2.09326
3.14805	2.09675
3.14614	2.03542
3.14423	2.23244
3.14232	2.21666
3.14042	2.09974
3.13852	1.96839
3.13662	1.84449
3.13472	1.95297
3.13283	2.04752
3.13094	2.01107
3.12905	1.99556
3.12716	2.01826
3.12528	1.9609
3.12339	1.83933
3.12151	1.81159
3.11964	1.76826
3.11776	1.6926
3.11589	1.75676
3.11401	1.78689
3.11214	1.75788
3.11028	1.74772
3.10841	1.73016
3.10655	1.6301
3.10469	1.64031
3.10283	1.67032
3.10098	1.62012
3.09912	1.56391
3.09727	1.58846
3.09542	1.56549
3.09358	1.5116
3.09173	1.54353
3.08989	1.6207
3.08805	1.58911
3.08621	1.52337
3.08437	1.45921
3.08254	1.39306
3.08071	1.45183
3.07888	1.49928
3.07705	1.44103
3.07523	1.47361
3.0734	1.52518
3.07158	1.49404
3.06977	1.50669
3.06795	1.44043
3.06613	1.2928
3.06432	1.17799
3.06251	1.36983
3.0607	1.42108
3.0589	1.421
3.0571	1.45829
3.05529	1.36751
3.05349	1.31859
3.0517	1.45353
3.0499	1.50743
3.04811	1.46117
3.04632	1.39701
3.04453	1.32113
3.04274	1.2741
3.04096	1.31528
3.03918	1.43157
3.0374	1.45079
3.03562	1.35755
3.03384	1.35406
3.03207	1.38239
3.03029	1.41622
3.02852	1.41356
3.02676	1.44369
3.02499	1.49255
3.02323	1.2894
3.02146	1.3327
3.0197	1.49038
3.01795	1.43692
3.01619	1.37453
3.01444	1.38861
3.01269	1.37568
3.01094	1.33854
3.00919	1.4536
3.00744	1.58196
3.0057	1.59226
3.00396	1.56023
3.00222	1.54452
3.00048	1.60148
2.99875	1.64919
2.99701	1.62571
2.99528	1.60408
2.99355	1.49607
2.99183	1.42949
2.9901	1.54471
2.98838	1.60464
2.98666	1.59736
2.98494	1.57576
2.98322	1.54089
2.9815	1.44853
2.97979	1.46773
2.97808	1.57496
2.97637	1.50933
2.97466	1.49455
2.97295	1.54224
2.97125	1.54416
2.96955	1.56547
2.96785	1.61224
2.96615	1.64113
2.96446	1.60269
2.96276	1.65603
2.96107	1.73303
2.95938	1.72885
2.95769	1.70656
2.95601	1.63984
2.95432	1.61831
2.95264	1.51284
2.95096	1.41283
2.94928	1.63884
2.9476	1.709
2.94593	1.42829
2.94425	1.4975
2.94258	1.83136
2.94092	1.97661
2.93925	1.875
2.93758	1.85764
2.93592	1.85017
2.93426	1.77456
2.9326	1.79859
2.93094	1.73828
2.92928	1.72469
2.92763	1.91854
2.92598	1.94672
2.92433	1.79535
2.92268	1.79793
2.92103	1.69861
2.91939	1.79579
2.91775	1.92303
2.9161	1.92645
2.91447	1.83731
2.91283	1.81906
2.91119	1.93734
2.90956	2.10149
2.90793	2.04804
2.9063	1.94816
2.90467	1.96153
2.90304	2.014
2.90142	2.1252
2.89979	2.15481
2.89817	2.23559
2.89656	2.2726
2.89494	2.21047
2.89332	2.3665
2.89171	2.52694
2.8901	2.56834
2.88849	2.62698
2.88688	2.6728
2.88527	2.66157
2.88367	2.67069
2.88206	2.71017
2.88046	2.85899
2.87886	2.83109
2.87727	2.98401
2.87567	3.1591
2.87408	3.26056
2.87248	3.28226
2.87089	3.2967
2.8693	3.35351
2.86772	3.31696
2.86613	3.36916
2.86455	3.59535
2.86297	3.66964
2.86139	3.62683
2.85981	3.77938
2.85823	3.8061
2.85666	3.78089
2.85508	3.86652
2.85351	3.91456
2.85194	3.93185
2.85038	4.05336
2.84881	4.08744
2.84724	4.17342
2.84568	4.24273
2.84412	4.17866
2.84256	4.38901
2.841	4.60445
2.83945	4.52206
2.83789	4.44401
2.83634	4.43253
2.83479	4.50055
2.83324	4.67329
2.83169	4.74281
2.83015	4.72166
2.82861	4.82915
2.82706	5.05121
2.82552	5.20158
2.82398	5.19419
2.82245	5.27574
2.82091	5.28826
2.81938	5.25799
2.81784	5.25392
2.81631	5.21128
2.81479	5.36956
2.81326	5.55187
2.81173	5.70112
2.81021	5.81713
2.80869	5.797
2.80716	5.80912
2.80565	5.91683
2.80413	6.09085
2.80261	6.19185
2.8011	6.2223
2.79959	6.21873
2.79808	6.22223
2.79657	6.28273
2.79506	6.28612
2.79355	6.43301
2.79205	6.37772
2.79055	6.4444
2.78904	6.6428
2.78754	6.78097
2.78605	6.95944
2.78455	7.14613
2.78306	7.26906
2.78156	7.29215
2.78007	7.22296
2.77858	7.28181
2.77709	7.4256
2.77561	7.52738
2.77412	7.59687
2.77264	7.78935
2.77116	7.93936
2.76968	7.96666
2.7682	8.12967
2.76672	8.26375
2.76524	8.33167
2.76377	8.57405
2.7623	8.76766
2.76083	8.78082
2.75936	8.85874
2.75789	9.1167
2.75642	9.39517
2.75496	9.24803
2.7535	9.29728
2.75203	9.65019
2.75057	9.76154
2.74912	10.0323
2.74766	10.3397
2.7462	10.4213
2.74475	10.4036
2.7433	10.7978
2.74185	11.1375
2.7404	11.3847
2.73895	11.3876
2.7375	11.4043
2.73606	11.7558
2.73462	11.8857
2.73318	11.8065
2.73174	12.0572
2.7303	12.3716
2.72886	12.5493
2.72742	12.5992
2.72599	12.839
2.72456	13.1333
2.72313	13.2364
2.7217	13.5174
2.72027	13.8654
2.71884	13.7674
2.71742	13.7644
2.71599	13.9044
2.71457	14.1129
2.71315	14.2017
2.71173	14.592
2.71032	14.7957
2.7089	14.6859
2.70748	14.5605
2.70607	14.5723
2.70466	14.7405
2.70325	14.8649
2.70184	15.0377
2.70043	15.1259
2.69903	15.1705
2.69762	15.2819
2.69622	15.4783
2.69482	15.9113
2.69342	15.9349
2.69202	15.6111
2.69062	15.5356
2.68923	15.775
2.68783	15.9124
2.68644	15.9409
2.68505	15.9889
2.68366	15.9802
2.68227	15.9785
2.68089	16.038
2.6795	16.3211
2.67812	16.5489
2.67673	16.6887
2.67535	16.6104
2.67397	16.367
2.6726	16.356
2.67122	16.8354
2.66984	16.8416
2.66847	16.5658
2.6671	16.8852
2.66572	16.9469
2.66435	16.756
2.66299	16.5686
2.66162	16.4895
2.66025	16.5203
2.65889	16.6539
2.65753	16.5305
2.65616	16.5559
2.65481	16.5707
2.65345	16.6197
2.65209	16.7167
2.65073	16.5408
2.64938	16.3747
2.64803	16.3733
2.64667	16.498
2.64532	16.5667
2.64397	16.5839
2.64263	16.5664
2.64128	16.4162
2.63994	16.3278
2.63859	16.3462
2.63725	16.3773
2.63591	16.3671
2.63457	16.3758
2.63323	16.4043
2.6319	16.6582
2.63056	17.0281
2.62923	16.8083
2.62789	16.6333
2.62656	16.6785
2.62523	16.5024
2.6239	16.4598
2.62258	16.5404
2.62125	16.7859
2.61993	16.9173
2.6186	16.7968
2.61728	16.9405
2.61596	16.8418
2.61464	16.4791
2.61332	16.4073
2.61201	16.4935
2.61069	16.621
2.60938	16.6906
2.60807	16.7121
2.60675	16.9888
2.60544	17.2181
2.60414	17.169
2.60283	17.0233
2.60152	16.8616
2.60022	16.734
2.59891	16.6746
2.59761	16.873
2.59631	17.3326
2.59501	17.8252
2.59371	17.4896
2.59242	16.8946
2.59112	16.6515
2.58983	16.729
2.58853	17.0183
2.58724	17.1642
2.58595	17.1089
2.58466	17.2162
2.58338	17.311
2.58209	17.1082
2.5808	17.0402
2.57952	16.927
2.57824	16.992
2.57695	17.2546
2.57567	17.2422
2.5744	17.2801
2.57312	17.2776
2.57184	17.0585
2.57057	17.1777
2.56929	17.2646
2.56802	17.1843
2.56675	17.1153
2.56548	17.1318
2.56421	17.1957
2.56294	17.3513
2.56168	17.368
2.56041	17.191
2.55915	17.1411
2.55789	17.1452
2.55662	17.0633
2.55536	17.0835
2.5541	17.0812
2.55285	17.3163
2.55159	17.3975
2.55034	17.2494
2.54908	17.1944
2.54783	17.2444
2.54658	17.1769
2.54533	17.3061
2.54408	17.4285
2.54283	17.4421
2.54159	17.3931
2.54034	17.3129
2.5391	17.3669
2.53785	17.3303
2.53661	17.2022
2.53537	17.2469
2.53413	17.3914
2.53289	17.3901
2.53166	17.3369
2.53042	17.4248
2.52919	17.3766
2.52795	17.3376
2.52672	17.3869
2.52549	17.424
2.52426	17.4128
2.52303	17.3629
2.52181	17.3348
2.52058	17.4683
2.51936	17.5693
2.51813	17.5038
2.51691	17.5323
2.51569	17.5343
2.51447	17.5615
2.51325	17.5663
2.51203	17.5451
2.51082	17.657
2.5096	17.7424
2.50839	17.7765
2.50717	17.8595
2.50596	17.9415
2.50475	17.7908
2.50354	17.7626
2.50233	17.7971
2.50113	17.7053
2.49992	17.8503
2.49872	18.0098
2.49751	17.8978
2.49631	17.9311
2.49511	17.9843
2.49391	18.0542
2.49271	18.0621
2.49151	18.045
2.49031	18.0825
2.48912	18.1509
2.48792	18.1322
2.48673	18.092
2.48554	18.1184
2.48435	18.1276
2.48316	18.2495
2.48197	18.4215
2.48078	18.3905
2.4796	18.3532
2.47841	18.369
2.47723	18.2686
2.47604	18.1926
2.47486	18.296
2.47368	18.4218
2.4725	18.431
2.47132	18.5322
2.47014	18.5208
2.46897	18.5254
2.46779	18.5815
2.46662	18.5932
2.46545	18.505
2.46427	18.4512
2.4631	18.403
2.46193	18.5063
2.46077	18.5722
2.4596	18.576
2.45843	18.5765
2.45727	18.6257
2.4561	18.6391
2.45494	18.6484
2.45378	18.6867
2.45262	18.7033
2.45146	18.7782
2.4503	18.817
2.44914	18.7001
2.44799	18.59
2.44683	18.7248
2.44568	18.7432
2.44452	18.688
2.44337	18.823
2.44222	18.9718
2.44107	18.9896
2.43992	18.8651
2.43877	18.8389
2.43763	18.7749
2.43648	18.6146
2.43534	18.6936
2.43419	18.9014
2.43305	18.8406
2.43191	18.7993
2.43077	18.9683
2.42963	18.9694
2.42849	18.8539
2.42736	18.861
2.42622	18.9156
2.42509	18.9395
2.42395	18.8562
2.42282	18.7714
2.42169	18.645
2.42056	18.6714
2.41943	18.9645
2.4183	19.1134
2.41717	18.9937
2.41605	18.9091
2.41492	18.9042
2.4138	18.946
2.41267	18.8571
2.41155	18.6363
2.41043	18.5648
2.40931	18.6178
2.40819	18.73
2.40707	18.6736
2.40595	18.4316
2.40484	18.4293
2.40372	18.6155
2.40261	18.6806
2.4015	18.7945
2.40039	18.716
2.39928	18.6715
2.39817	18.8264
2.39706	18.9024
2.39595	18.8192
2.39484	18.8047
2.39374	18.7859
2.39263	18.8567
2.39153	18.9234
2.39043	19.0509
2.38932	19.2033
2.38822	19.2948
2.38712	19.1169
2.38603	19.0363
2.38493	19.219
2.38383	19.3337
2.38274	19.2975
2.38164	19.1668
2.38055	19.1501
2.37946	19.2982
2.37836	19.4136
2.37727	19.4734
2.37618	19.5364
2.3751	19.514
2.37401	19.4612
2.37292	19.3471
2.37184	19.2706
2.37075	19.3851
2.36967	19.5263
2.36859	19.5951
2.3675	19.7251
2.36642	19.8369
2.36534	19.7629
2.36427	19.6374
2.36319	19.6163
2.36211	19.6223
2.36104	19.5155
2.35996	19.5589
2.35889	19.8152
2.35781	19.7805
2.35674	19.7678
2.35567	19.7768
2.3546	19.7759
2.35353	19.78
2.35247	19.8261
2.3514	19.8833
2.35033	19.8334
2.34927	19.7835
2.3482	19.8133
2.34714	19.6826
2.34608	19.7117
2.34502	19.7366
2.34396	19.7621
2.3429	19.9708
2.34184	19.9574
2.34078	20.0171
2.33973	20.0164
2.33867	19.8853
2.33762	19.8317
2.33656	19.8513
2.33551	20.0196
2.33446	20.1023
2.33341	20.0112
2.33236	20.0391
2.33131	20.1073
2.33026	20.0555
2.32922	20.0868
2.32817	20.1133
2.32712	19.9345
2.32608	19.8914
2.32504	20.0286
2.324	20.0396
2.32295	20.0274
2.32191	20.1514
2.32087	20.1159
2.31984	20.0525
2.3188	20.0731
2.31776	20.1061
2.31673	20.2504
2.31569	20.3593
2.31466	20.1892
2.31362	20.0567
2.31259	20.1577
2.31156	20.2315
2.31053	20.1704
2.3095	20.126
2.30847	20.1892
2.30745	20.1177
2.30642	20.1722
2.3054	20.2472
2.30437	20.2064
2.30335	20.1488
2.30232	20.1812
2.3013	20.1471
2.30028	20.2329
2.29926	20.2612
2.29824	20.2029
2.29722	20.3154
2.29621	20.3571
2.29519	20.2229
2.29417	20.1805
2.29316	20.2314
2.29215	20.1223
2.29113	20.0313
2.29012	20.18
2.28911	20.2795
2.2881	20.2997
2.28709	20.3709
2.28608	20.4086
2.28507	20.4147
2.28407	20.4598
2.28306	20.4418
2.28206	20.3867
2.28105	20.4043
2.28005	20.329
2.27905	20.2982
2.27805	20.2533
2.27705	20.2109
2.27605	20.3013
2.27505	20.3745
2.27405	20.4157
2.27305	20.4605
2.27206	20.4578
2.27106	20.3348
2.27007	20.2226
2.26907	20.2222
2.26808	20.2289
2.26709	20.3549
2.2661	20.4565
2.26511	20.2563
2.26412	20.3076
2.26313	20.421
2.26214	20.4093
2.26116	20.3442
2.26017	20.4325
2.25919	20.5124
2.2582	20.3466
2.25722	20.3349
2.25624	20.475
2.25526	20.3099
2.25428	20.0941
2.2533	20.0881
2.25232	20.1875
2.25134	20.2536
2.25036	20.3632
2.24939	20.466
2.24841	20.4352
2.24744	20.3976
2.24646	20.3439
2.24549	20.313
2.24452	20.2718
2.24355	20.213
2.24257	20.2014
2.24161	20.38
2.24064	20.4328
2.23967	20.205
2.2387	20.167
2.23774	20.2952
2.23677	20.252
2.23581	20.251
2.23484	20.3118
2.23388	20.2254
2.23292	20.2249
2.23196	20.2251
2.231	20.1706
2.23004	20.1574
2.22908	20.2065
2.22812	20.2707
2.22716	20.2075
2.22621	20.1003
2.22525	20.0508
2.2243	20.1357
2.22334	20.0886
2.22239	20.0897
2.22144	20.1858
2.22049	20.1271
2.21953	20.0744
2.21859	20.1613
2.21764	20.2104
2.21669	20.2661
2.21574	20.1953
2.21479	20.1462
2.21385	20.1639
2.2129	20.0655
2.21196	19.9616
2.21102	20.1202
2.21007	20.1573
2.20913	20.202
2.20819	20.2221
2.20725	20.0117
2.20631	19.9596
2.20537	20.1297
2.20444	20.3549
2.2035	20.355
2.20256	20.1021
2.20163	20.082
2.20069	20.0396
2.19976	19.9592
2.19883	19.9386
2.19789	20.0106
2.19696	20.0556
2.19603	20.1911
2.1951	20.1019
2.19417	19.9098
2.19325	19.9165
2.19232	19.9761
2.19139	19.9655
2.19047	19.9044
2.18954	20.0561
2.18862	20.1665
2.18769	19.8638
2.18677	19.7961
2.18585	19.9151
2.18493	19.9112
2.18401	20.0762
2.18309	20.0677
2.18217	19.8757
2.18125	19.8531
2.18033	19.7549
2.17942	19.6773
2.1785	19.8014
2.17759	19.9632
2.17667	19.8284
2.17576	19.6917
2.17485	19.7916
2.17393	19.8912
2.17302	19.833
2.17211	19.8862
2.1712	20.0106
2.17029	19.8481
2.16939	19.8227
2.16848	19.9489
2.16757	19.9694
2.16667	19.9818
2.16576	19.8146
2.16486	19.7209
2.16395	19.8011
2.16305	19.7679
2.16215	19.8095
2.16125	19.8305
2.16035	19.8055
2.15945	19.7197
2.15855	19.7257
2.15765	19.7855
2.15675	19.5976
2.15586	19.5135
2.15496	19.6048
2.15406	19.8219
2.15317	19.7026
2.15228	19.4788
2.15138	19.4268
2.15049	19.4882
2.1496	19.4248
2.14871	19.4056
2.14782	19.4651
2.14693	19.5208
2.14604	19.4
2.14515	19.4215
2.14427	19.6895
2.14338	19.5607
2.14249	19.2996
2.14161	19.2624
2.14072	19.2945
2.13984	19.1527
2.13896	19.1946
2.13808	19.2638
2.13719	19.1894
2.13631	19.0137
2.13543	18.9813
2.13455	19.1178
2.13368	19.1711
2.1328	19.0292
2.13192	18.99
2.13105	18.9801
2.13017	19.06
2.1293	19.1239
2.12842	19.0214
2.12755	18.8261
2.12668	18.9304
2.1258	19.0564
2.12493	18.9058
2.12406	18.7414
2.12319	18.4971
2.12232	18.4655
2.12145	18.6324
2.12059	18.8506
2.11972	18.8153
2.11885	18.6584
2.11799	18.579
2.11712	18.7551
2.11626	18.7942
2.1154	18.7687
2.11453	18.6871
2.11367	18.5869
2.11281	18.5301
2.11195	18.2742
2.11109	18.3391
2.11023	18.4035
2.10937	18.3978
2.10851	18.5586
2.10766	18.6621
2.1068	18.6376
2.10594	18.5205
2.10509	18.4846
2.10423	18.6052
2.10338	18.5917
2.10253	18.4571
2.10168	18.2265
2.10082	18.1224
2.09997	18.133
2.09912	18.1448
2.09827	18.2705
2.09742	18.3548
2.09658	18.648
2.09573	18.8462
2.09488	18.6383
2.09404	18.59
2.09319	18.3935
2.09235	18.214
2.0915	18.2563
2.09066	18.0817
2.08982	18.1288
2.08897	18.1815
2.08813	18.2893
2.08729	18.4222
2.08645	18.4176
2.08561	18.5027
2.08477	18.3824
2.08394	18.4569
2.0831	18.4031
2.08226	18.334
2.08143	18.0542
2.08059	17.8268
2.07976	18.1454
2.07892	18.3329
2.07809	18.2669
2.07726	18.3194
2.07643	18.4214
2.07559	18.3307
2.07476	18.1142
2.07393	17.9223
2.0731	18.0688
2.07228	18.3908
2.07145	18.4961
2.07062	18.2247
2.06979	18.4287
2.06897	18.9783
2.06814	18.8941
2.06732	18.6156
2.06649	18.539
2.06567	18.4545
2.06485	18.3266
2.06403	18.4131
2.0632	18.4928
2.06238	18.5661
2.06156	18.5181
2.06074	18.479
2.05993	18.3783
2.05911	18.5371
2.05829	18.5751
2.05747	18.4538
2.05666	18.4624
2.05584	18.6416
2.05503	18.787
2.05421	18.955
2.0534	19.0568
2.05259	18.9966
2.05177	18.931
2.05096	18.8415
2.05015	18.6905
2.04934	18.5511
2.04853	18.4996
2.04772	18.6781
2.04691	18.9018
2.04611	18.7707
2.0453	18.5978
2.04449	18.4507
2.04369	18.4983
2.04288	18.7294
2.04208	18.8326
2.04127	18.7094
2.04047	18.6796
2.03967	18.6562
2.03886	18.5027
2.03806	18.6714
2.03726	18.7125
2.03646	18.8672
2.03566	18.8922
2.03486	18.9062
2.03407	18.7533
2.03327	18.7847
2.03247	18.9249
2.03167	18.6733
2.03088	18.4722
2.03008	18.5812
2.02929	18.4514
2.0285	18.375
2.0277	18.7934
2.02691	18.8428
2.02612	18.9199
2.02533	18.8757
2.02453	18.8266
2.02374	18.767
2.02295	18.7199
2.02217	18.9279
2.02138	19.0839
2.02059	18.8027
2.0198	18.6538
2.01902	18.6728
2.01823	18.8744
2.01744	18.9877
2.01666	18.964
2.01588	18.7931
2.01509	18.6324
2.01431	18.6411
2.01353	18.8587
2.01275	18.9351
2.01196	18.8228
2.01118	18.8638
2.0104	18.9636
2.00963	19.0712
2.00885	18.9618
2.00807	18.7946
2.00729	18.6021
2.00651	18.4778
2.00574	18.6386
2.00496	18.816
2.00419	18.6655
2.00341	18.4876
2.00264	18.6173
2.00187	18.7373
2.00109	18.8413
2.00032	19.0767
