Name: Alkali Granite
Type: Rock
Class: Igneous
Subclass:  Felsic 
Particle Size: Solid surface
Sample No.: Ward13.txt
Owner: JPL
Wavelength range:  VNIR SWIR IR 
Origin: Ward's Collection of American Rocks.  Sample locality - Quincy, Norfolk County, Massachusetts.
Collected by:  Ward's Natural Science
Description: A dark gray granular rock consisting of feldspar, quartz and
black pryibole.
Geologic age - Carboniferous (probably Mississippian).



Measurement: Hemispherical reflectance
First Column: X
Second Column: Y
X Units: Wavelength (micrometers)
Y Units: Reflectance (percent)
First X Value: 2.500
Last X Value: 0.400
Number of X Values: 2101
Additional information: None

2.500  26.736019
2.499  26.245353
2.498  26.686041
2.497  26.538421
2.496  26.444293
2.495  26.606342
2.494  26.730238
2.493  26.587958
2.492  26.716146
2.491  26.638694
2.490  26.743568
2.489  26.633068
2.488  27.001447
2.487  26.700445
2.486  26.838215
2.485  26.834154
2.484  26.947354
2.483  27.019424
2.482  27.163735
2.481  26.834208
2.480  27.366253
2.479  27.154414
2.478  27.302045
2.477  27.149477
2.476  27.371002
2.475  27.304379
2.474  27.358720
2.473  27.189672
2.472  27.383459
2.471  27.431246
2.470  27.677182
2.469  27.442610
2.468  27.646456
2.467  27.582335
2.466  27.697222
2.465  27.647773
2.464  27.801826
2.463  27.763245
2.462  27.917841
2.461  27.698121
2.460  27.994575
2.459  27.929817
2.458  27.930770
2.457  27.933072
2.456  28.114967
2.455  28.064245
2.454  28.224780
2.453  28.107805
2.452  28.368196
2.451  28.210243
2.450  28.402123
2.449  28.212582
2.448  28.354890
2.447  28.138972
2.446  28.268781
2.445  28.341338
2.444  28.516033
2.443  28.502964
2.442  28.476724
2.441  28.429399
2.440  28.531797
2.439  28.561274
2.438  28.703435
2.437  28.578655
2.436  28.613072
2.435  28.509810
2.434  28.718661
2.433  28.646743
2.432  28.760685
2.431  28.662848
2.430  28.863020
2.429  28.747163
2.428  28.847265
2.427  28.797843
2.426  28.825759
2.425  28.801111
2.424  28.854203
2.423  28.815193
2.422  28.905657
2.421  28.857892
2.420  28.911630
2.419  28.938466
2.418  29.005856
2.417  28.888952
2.416  29.030300
2.415  29.029939
2.414  29.133786
2.413  29.099412
2.412  29.173378
2.411  29.165650
2.410  29.306433
2.409  29.175514
2.408  29.325673
2.407  29.333692
2.406  29.459559
2.405  29.384642
2.404  29.507052
2.403  29.543306
2.402  29.609415
2.401  29.606902
2.400  29.667605
2.399  29.732325
2.398  29.778443
2.397  29.848157
2.396  29.888033
2.395  29.872538
2.394  30.031968
2.393  30.005706
2.392  30.094406
2.391  30.120517
2.390  30.203332
2.389  30.282383
2.388  30.404003
2.387  30.451962
2.386  30.489208
2.385  30.562463
2.384  30.572842
2.383  30.550512
2.382  30.613476
2.381  30.635380
2.380  30.702104
2.379  30.716935
2.378  30.735800
2.377  30.819433
2.376  30.853984
2.375  30.832439
2.374  30.903759
2.373  30.891713
2.372  30.876671
2.371  30.878648
2.370  30.945404
2.369  30.945106
2.368  30.992000
2.367  30.965737
2.366  30.961727
2.365  30.973107
2.364  30.964713
2.363  30.964715
2.362  30.937228
2.361  30.918866
2.360  30.925974
2.359  30.875085
2.358  30.781647
2.357  30.755984
2.356  30.720997
2.355  30.693965
2.354  30.667675
2.353  30.598260
2.352  30.507708
2.351  30.430010
2.350  30.381411
2.349  30.375891
2.348  30.319199
2.347  30.256316
2.346  30.201261
2.345  30.200415
2.344  30.188655
2.343  30.157889
2.342  30.098413
2.341  30.131614
2.340  30.118691
2.339  30.149196
2.338  30.132410
2.337  30.150541
2.336  30.196579
2.335  30.269228
2.334  30.253015
2.333  30.229331
2.332  30.302996
2.331  30.424232
2.330  30.450461
2.329  30.535488
2.328  30.590954
2.327  30.684137
2.326  30.600186
2.325  30.777345
2.324  30.843291
2.323  30.880908
2.322  30.966129
2.321  31.056350
2.320  31.058068
2.319  31.195862
2.318  31.271360
2.317  31.409404
2.316  31.551902
2.315  31.687583
2.314  31.701977
2.313  31.822937
2.312  31.846717
2.311  31.958353
2.310  31.967586
2.309  32.087082
2.308  32.082840
2.307  32.146099
2.306  32.277783
2.305  32.334351
2.304  32.332407
2.303  32.388361
2.302  32.413265
2.301  32.498132
2.300  32.479166
2.299  32.517759
2.298  32.536252
2.297  32.657974
2.296  32.661386
2.295  32.738315
2.294  32.707394
2.293  32.757452
2.292  32.762897
2.291  32.889784
2.290  32.872594
2.289  33.017298
2.288  33.042029
2.287  33.054920
2.286  33.083846
2.285  33.115671
2.284  33.086826
2.283  33.199151
2.282  33.198416
2.281  33.223834
2.280  33.242792
2.279  33.284847
2.278  33.261493
2.277  33.306281
2.276  33.280703
2.275  33.390800
2.274  33.281741
2.273  33.349357
2.272  33.297326
2.271  33.401375
2.270  33.342266
2.269  33.531365
2.268  33.502032
2.267  33.475390
2.266  33.460159
2.265  33.476440
2.264  33.445806
2.263  33.493064
2.262  33.514538
2.261  33.516626
2.260  33.470701
2.259  33.491524
2.258  33.546351
2.257  33.578915
2.256  33.623779
2.255  33.654711
2.254  33.589250
2.253  33.663828
2.252  33.617271
2.251  33.671690
2.250  33.681567
2.249  33.817772
2.248  33.657219
2.247  33.721010
2.246  33.666674
2.245  33.755761
2.244  33.750479
2.243  33.839802
2.242  33.777190
2.241  33.802284
2.240  33.704785
2.239  33.832483
2.238  33.810377
2.237  33.895181
2.236  33.852711
2.235  34.018430
2.234  33.864330
2.233  33.900947
2.232  33.854555
2.231  33.917412
2.230  33.912140
2.229  34.025912
2.228  33.896782
2.227  34.064183
2.226  33.992244
2.225  34.071195
2.224  33.959562
2.223  34.079111
2.222  34.016049
2.221  34.180242
2.220  34.072035
2.219  34.286366
2.218  34.028351
2.217  34.148337
2.216  34.108212
2.215  34.165372
2.214  34.160416
2.213  34.222006
2.212  34.195647
2.211  34.129867
2.210  34.300631
2.209  34.366240
2.208  34.181347
2.207  34.381586
2.206  34.270506
2.205  34.389247
2.204  34.345625
2.203  34.317238
2.202  34.410000
2.201  34.536501
2.200  34.444605
2.199  34.524129
2.198  34.475892
2.197  34.613364
2.196  34.537644
2.195  34.602673
2.194  34.493746
2.193  34.599064
2.192  34.550213
2.191  34.568083
2.190  34.515893
2.189  34.654272
2.188  34.640780
2.187  34.629710
2.186  34.528972
2.185  34.734268
2.184  34.597623
2.183  34.610082
2.182  34.584268
2.181  34.797273
2.180  34.622977
2.179  34.819799
2.178  34.729131
2.177  34.833773
2.176  34.742893
2.175  34.798301
2.174  34.797292
2.173  34.832354
2.172  34.786989
2.171  34.819417
2.170  34.810263
2.169  34.910881
2.168  34.841389
2.167  34.871291
2.166  34.889231
2.165  34.947568
2.164  34.886782
2.163  34.997394
2.162  34.888373
2.161  34.944845
2.160  34.954808
2.159  35.024664
2.158  34.943349
2.157  35.021907
2.156  34.960100
2.155  34.969178
2.154  34.910445
2.153  35.016817
2.152  34.942073
2.151  35.036434
2.150  35.009797
2.149  35.051806
2.148  34.987372
2.147  35.084430
2.146  35.021562
2.145  35.053575
2.144  35.030490
2.143  35.027598
2.142  35.071282
2.141  35.050844
2.140  34.954801
2.139  34.981587
2.138  34.994374
2.137  35.051246
2.136  34.936144
2.135  34.989255
2.134  34.981358
2.133  35.047183
2.132  34.943881
2.131  34.932765
2.130  34.942161
2.129  34.951949
2.128  34.889730
2.127  34.878057
2.126  34.912421
2.125  34.906249
2.124  34.851248
2.123  34.836011
2.122  34.831460
2.121  34.808961
2.120  34.804082
2.119  34.842817
2.118  34.763747
2.117  34.790033
2.116  34.722828
2.115  34.727661
2.114  34.706899
2.113  34.723543
2.112  34.658343
2.111  34.687519
2.110  34.634335
2.109  34.602008
2.108  34.588062
2.107  34.586913
2.106  34.502658
2.105  34.504381
2.104  34.459476
2.103  34.445220
2.102  34.428700
2.101  34.497451
2.100  34.457967
2.099  34.421221
2.098  34.367105
2.097  34.426960
2.096  34.413966
2.095  34.386511
2.094  34.420915
2.093  34.445104
2.092  34.393124
2.091  34.396152
2.090  34.415481
2.089  34.422553
2.088  34.347260
2.087  34.375007
2.086  34.354239
2.085  34.327210
2.084  34.353445
2.083  34.387942
2.082  34.382014
2.081  34.315346
2.080  34.317842
2.079  34.327502
2.078  34.293817
2.077  34.304780
2.076  34.246547
2.075  34.230496
2.074  34.258764
2.073  34.271031
2.072  34.246004
2.071  34.210189
2.070  34.241461
2.069  34.217460
2.068  34.172416
2.067  34.167782
2.066  34.166648
2.065  34.169067
2.064  34.146807
2.063  34.121071
2.062  34.134411
2.061  34.095555
2.060  34.047592
2.059  34.009776
2.058  34.007623
2.057  34.012003
2.056  33.974883
2.055  33.977514
2.054  33.984990
2.053  33.987212
2.052  33.973869
2.051  33.878160
2.050  33.863910
2.049  33.842814
2.048  33.818258
2.047  33.751312
2.046  33.762576
2.045  33.767162
2.044  33.785356
2.043  33.734335
2.042  33.729897
2.041  33.673513
2.040  33.643967
2.039  33.588144
2.038  33.603197
2.037  33.537310
2.036  33.491958
2.035  33.457240
2.034  33.418835
2.033  33.388669
2.032  33.386153
2.031  33.330111
2.030  33.330506
2.029  33.268888
2.028  33.234540
2.027  33.177643
2.026  33.154476
2.025  33.095492
2.024  33.088465
2.023  33.001724
2.022  33.035502
2.021  32.943798
2.020  32.967258
2.019  32.910580
2.018  32.836787
2.017  32.798943
2.016  32.791511
2.015  32.672535
2.014  32.702478
2.013  32.610563
2.012  32.618765
2.011  32.474366
2.010  32.419253
2.009  32.355103
2.008  32.349848
2.007  32.290266
2.006  32.224756
2.005  32.166871
2.004  32.183180
2.003  32.060398
2.002  32.011000
2.001  31.993205
2.000  31.872297
1.999  31.815402
1.998  31.798282
1.997  31.638827
1.996  31.596799
1.995  31.546554
1.994  31.527743
1.993  31.384944
1.992  31.422185
1.991  31.264881
1.990  31.193527
1.989  31.122110
1.988  31.068885
1.987  30.970644
1.986  30.960400
1.985  30.788711
1.984  30.792778
1.983  30.675424
1.982  30.676760
1.981  30.556547
1.980  30.546613
1.979  30.433985
1.978  30.387510
1.977  30.309400
1.976  30.209677
1.975  30.074504
1.974  30.145753
1.973  29.993308
1.972  29.992371
1.971  29.837948
1.970  29.925526
1.969  29.751828
1.968  29.757595
1.967  29.672188
1.966  29.631717
1.965  29.513711
1.964  29.572523
1.963  29.471760
1.962  29.464772
1.961  29.248931
1.960  29.352371
1.959  29.212395
1.958  29.207215
1.957  29.056421
1.956  29.166816
1.955  29.001188
1.954  28.977960
1.953  28.800407
1.952  28.784269
1.951  28.762978
1.950  28.692604
1.949  28.692550
1.948  28.747166
1.947  28.632236
1.946  28.622747
1.945  28.551406
1.944  28.615945
1.943  28.336565
1.942  28.458590
1.941  28.364755
1.940  28.431618
1.939  28.361880
1.938  28.393657
1.937  28.252160
1.936  28.338597
1.935  28.286900
1.934  28.335111
1.933  28.290887
1.932  28.362689
1.931  28.297118
1.930  28.330606
1.929  28.217045
1.928  28.410049
1.927  28.400122
1.926  28.373842
1.925  28.406044
1.924  28.357333
1.923  28.342571
1.922  28.469820
1.921  28.462069
1.920  28.542991
1.919  28.603678
1.918  28.671152
1.917  28.679677
1.916  28.759734
1.915  28.840980
1.914  28.983039
1.913  28.999585
1.912  29.076624
1.911  29.267994
1.910  29.400860
1.909  29.386763
1.908  29.644859
1.907  29.686227
1.906  29.923485
1.905  29.967717
1.904  30.256757
1.903  30.415383
1.902  30.720213
1.901  30.821021
1.900  31.049739
1.899  31.266106
1.898  31.583844
1.897  31.768619
1.896  32.124663
1.895  32.309898
1.894  32.554158
1.893  32.755105
1.892  33.073457
1.891  33.202428
1.890  33.462914
1.889  33.742574
1.888  33.883150
1.887  34.017800
1.886  34.315931
1.885  34.439980
1.884  34.709350
1.883  34.796907
1.882  35.029360
1.881  35.150229
1.880  35.340481
1.879  35.363710
1.878  35.630661
1.877  35.682219
1.876  35.755524
1.875  35.815354
1.874  35.933788
1.873  35.999100
1.872  36.072500
1.871  36.110647
1.870  36.158702
1.869  36.182981
1.868  36.259933
1.867  36.359917
1.866  36.453809
1.865  36.508701
1.864  36.625835
1.863  36.696905
1.862  36.754405
1.861  36.753792
1.860  36.833491
1.859  36.780343
1.858  36.798893
1.857  36.801004
1.856  36.851766
1.855  36.853399
1.854  36.967024
1.853  36.930941
1.852  36.947944
1.851  36.931440
1.850  37.001755
1.849  36.983960
1.848  37.029865
1.847  37.005474
1.846  37.055358
1.845  37.004033
1.844  37.043510
1.843  37.017277
1.842  37.099250
1.841  37.056887
1.840  37.092340
1.839  37.067341
1.838  37.077318
1.837  36.992570
1.836  37.048862
1.835  37.041494
1.834  37.105111
1.833  37.075857
1.832  37.111936
1.831  37.057007
1.830  37.158448
1.829  37.108601
1.828  37.126609
1.827  37.130396
1.826  37.122546
1.825  37.131386
1.824  37.156839
1.823  37.076852
1.822  37.096125
1.821  37.112381
1.820  37.115342
1.819  37.109171
1.818  37.129374
1.817  37.124798
1.816  37.096565
1.815  37.101591
1.814  37.177831
1.813  37.166400
1.812  37.154756
1.811  37.128331
1.810  37.141700
1.809  37.111833
1.808  37.165477
1.807  37.137482
1.806  37.136765
1.805  37.162993
1.804  37.170038
1.803  37.177972
1.802  37.173037
1.801  37.152740
1.800  37.187778
1.799  37.171901
1.798  37.188165
1.797  37.149236
1.796  37.160838
1.795  37.151373
1.794  37.145586
1.793  37.182953
1.792  37.203578
1.791  37.181274
1.790  37.209542
1.789  37.236731
1.788  37.231941
1.787  37.207483
1.786  37.192562
1.785  37.173454
1.784  37.127793
1.783  37.134520
1.782  37.181556
1.781  37.117428
1.780  37.136329
1.779  37.188026
1.778  37.177311
1.777  37.189003
1.776  37.149448
1.775  37.130355
1.774  37.138486
1.773  37.173809
1.772  37.161483
1.771  37.109492
1.770  37.105855
1.769  37.146152
1.768  37.114159
1.767  37.171038
1.766  37.172627
1.765  37.168641
1.764  37.157445
1.763  37.177096
1.762  37.153022
1.761  37.189885
1.760  37.154302
1.759  37.198377
1.758  37.198540
1.757  37.243653
1.756  37.223088
1.755  37.268436
1.754  37.236320
1.753  37.214162
1.752  37.225404
1.751  37.272898
1.750  37.244801
1.749  37.243970
1.748  37.198385
1.747  37.197021
1.746  37.218585
1.745  37.302496
1.744  37.214326
1.743  37.227482
1.742  37.247251
1.741  37.285482
1.740  37.237046
1.739  37.261114
1.738  37.281295
1.737  37.289446
1.736  37.277624
1.735  37.323233
1.734  37.263490
1.733  37.271673
1.732  37.220200
1.731  37.253320
1.730  37.262512
1.729  37.256781
1.728  37.219923
1.727  37.337530
1.726  37.279428
1.725  37.311746
1.724  37.239353
1.723  37.251175
1.722  37.291379
1.721  37.342748
1.720  37.306322
1.719  37.352046
1.718  37.281446
1.717  37.330834
1.716  37.263949
1.715  37.317871
1.714  37.223036
1.713  37.291867
1.712  37.194346
1.711  37.293219
1.710  37.227769
1.709  37.297183
1.708  37.286163
1.707  37.338898
1.706  37.152981
1.705  37.182247
1.704  37.187131
1.703  37.329733
1.702  37.272129
1.701  37.326669
1.700  37.200087
1.699  37.318914
1.698  37.267973
1.697  37.312137
1.696  37.187612
1.695  37.313776
1.694  37.268532
1.693  37.277889
1.692  37.201889
1.691  37.266577
1.690  37.139012
1.689  37.245665
1.688  37.213316
1.687  37.200051
1.686  37.168206
1.685  37.208562
1.684  37.181599
1.683  37.229334
1.682  37.146878
1.681  37.294276
1.680  37.235243
1.679  37.213039
1.678  37.122722
1.677  37.228717
1.676  37.140360
1.675  37.217128
1.674  37.119702
1.673  37.156376
1.672  37.101764
1.671  37.178797
1.670  37.108959
1.669  37.158221
1.668  37.037069
1.667  37.229464
1.666  37.049764
1.665  37.119545
1.664  37.142530
1.663  37.160992
1.662  37.076221
1.661  37.226092
1.660  37.189485
1.659  37.085442
1.658  37.088622
1.657  37.075556
1.656  37.078753
1.655  37.110427
1.654  37.018629
1.653  37.060757
1.652  36.997932
1.651  37.058048
1.650  37.008582
1.649  37.090734
1.648  36.995070
1.647  36.982198
1.646  36.976189
1.645  37.004875
1.644  36.875369
1.643  37.005993
1.642  37.093488
1.641  36.997953
1.640  37.051822
1.639  37.052124
1.638  36.885515
1.637  37.093897
1.636  36.888106
1.635  36.971535
1.634  36.944112
1.633  36.902840
1.632  36.869389
1.631  36.964551
1.630  36.874041
1.629  36.907846
1.628  36.900725
1.627  36.934247
1.626  36.956695
1.625  36.995132
1.624  36.829381
1.623  36.877131
1.622  36.849182
1.621  36.866363
1.620  36.790769
1.619  36.919861
1.618  36.800950
1.617  36.856914
1.616  36.772032
1.615  36.883902
1.614  36.750583
1.613  36.863310
1.612  36.685195
1.611  36.741135
1.610  36.715721
1.609  36.784727
1.608  36.723697
1.607  36.725469
1.606  36.662065
1.605  36.758251
1.604  36.605956
1.603  36.721778
1.602  36.653288
1.601  36.688939
1.600  36.615897
1.599  36.647241
1.598  36.605500
1.597  36.734654
1.596  36.562599
1.595  36.581316
1.594  36.549561
1.593  36.638529
1.592  36.522105
1.591  36.543516
1.590  36.521050
1.589  36.544958
1.588  36.505938
1.587  36.539282
1.586  36.514600
1.585  36.513515
1.584  36.432455
1.583  36.513861
1.582  36.402661
1.581  36.514260
1.580  36.388437
1.579  36.457361
1.578  36.402854
1.577  36.458675
1.576  36.410016
1.575  36.418806
1.574  36.400870
1.573  36.406695
1.572  36.330399
1.571  36.377033
1.570  36.277953
1.569  36.267502
1.568  36.217190
1.567  36.225832
1.566  36.230492
1.565  36.224885
1.564  36.169541
1.563  36.191155
1.562  36.207177
1.561  36.244787
1.560  36.164844
1.559  36.126829
1.558  36.105917
1.557  36.110516
1.556  36.097330
1.555  36.151141
1.554  36.025397
1.553  36.012464
1.552  36.017965
1.551  36.010689
1.550  35.971674
1.549  35.958066
1.548  35.955586
1.547  35.993118
1.546  35.873540
1.545  35.893370
1.544  35.882769
1.543  35.858753
1.542  35.820112
1.541  35.871210
1.540  35.803581
1.539  35.781323
1.538  35.724018
1.537  35.738754
1.536  35.750184
1.535  35.745209
1.534  35.686867
1.533  35.608188
1.532  35.591790
1.531  35.650931
1.530  35.625802
1.529  35.629466
1.528  35.577769
1.527  35.594805
1.526  35.608800
1.525  35.608976
1.524  35.500929
1.523  35.451111
1.522  35.495494
1.521  35.508718
1.520  35.427468
1.519  35.389174
1.518  35.381851
1.517  35.411849
1.516  35.375462
1.515  35.315641
1.514  35.288323
1.513  35.281660
1.512  35.242968
1.511  35.216248
1.510  35.156136
1.509  35.080626
1.508  35.100853
1.507  35.136142
1.506  35.092684
1.505  35.049677
1.504  34.992449
1.503  35.026607
1.502  35.040263
1.501  34.986745
1.500  35.002188
1.499  34.965898
1.498  34.906187
1.497  34.876564
1.496  34.822879
1.495  34.758737
1.494  34.754472
1.493  34.719784
1.492  34.691328
1.491  34.720603
1.490  34.703587
1.489  34.606720
1.488  34.576824
1.487  34.570084
1.486  34.540658
1.485  34.465811
1.484  34.472132
1.483  34.472428
1.482  34.462144
1.481  34.395576
1.480  34.350558
1.479  34.315392
1.478  34.307996
1.477  34.289752
1.476  34.287128
1.475  34.259346
1.474  34.234153
1.473  34.157054
1.472  34.151473
1.471  34.103828
1.470  34.068092
1.469  34.051714
1.468  34.048022
1.467  33.978507
1.466  33.967488
1.465  33.975620
1.464  33.957032
1.463  33.892477
1.462  33.891993
1.461  33.814334
1.460  33.840935
1.459  33.837194
1.458  33.870889
1.457  33.793183
1.456  33.815417
1.455  33.742786
1.454  33.718023
1.453  33.746249
1.452  33.720774
1.451  33.653804
1.450  33.737754
1.449  33.650444
1.448  33.717841
1.447  33.601508
1.446  33.616352
1.445  33.585126
1.444  33.657395
1.443  33.585701
1.442  33.599665
1.441  33.614340
1.440  33.562372
1.439  33.529127
1.438  33.510033
1.437  33.497608
1.436  33.631504
1.435  33.536690
1.434  33.538068
1.433  33.480967
1.432  33.515253
1.431  33.483140
1.430  33.463114
1.429  33.455373
1.428  33.470733
1.427  33.429136
1.426  33.435988
1.425  33.377254
1.424  33.392122
1.423  33.377691
1.422  33.401803
1.421  33.236493
1.420  33.171774
1.419  32.800247
1.418  32.447767
1.417  31.933770
1.416  31.540346
1.415  31.513520
1.414  31.948136
1.413  32.471689
1.412  33.062594
1.411  33.258170
1.410  33.436369
1.409  33.461633
1.408  33.541743
1.407  33.564799
1.406  33.662720
1.405  33.652756
1.404  33.731631
1.403  33.709004
1.402  33.814813
1.401  33.836446
1.400  33.891654
1.399  33.838366
1.398  33.992028
1.397  33.986871
1.396  34.085147
1.395  33.961467
1.394  34.067111
1.393  34.117220
1.392  34.205603
1.391  34.249792
1.390  34.399727
1.389  34.221966
1.388  34.331085
1.387  34.240174
1.386  34.319042
1.385  34.338537
1.384  34.488425
1.383  34.276216
1.382  34.318700
1.381  34.228071
1.380  34.286980
1.379  34.229844
1.378  34.417929
1.377  34.293660
1.376  34.287311
1.375  34.239625
1.374  34.295701
1.373  34.288438
1.372  34.351908
1.371  34.225552
1.370  34.334172
1.369  34.158862
1.368  34.244665
1.367  34.187909
1.366  34.324275
1.365  34.189723
1.364  34.181288
1.363  34.084668
1.362  34.195260
1.361  34.015585
1.360  34.147746
1.359  34.020209
1.358  34.127082
1.357  34.076684
1.356  34.066319
1.355  34.171480
1.354  33.988580
1.353  33.909349
1.352  34.043361
1.351  33.911373
1.350  33.957729
1.349  33.837050
1.348  33.893366
1.347  33.756910
1.346  33.788291
1.345  33.767741
1.344  33.891928
1.343  33.732605
1.342  33.788098
1.341  33.727852
1.340  33.734691
1.339  33.679766
1.338  33.739150
1.337  33.697677
1.336  33.754651
1.335  33.695926
1.334  33.654777
1.333  33.608099
1.332  33.634172
1.331  33.571931
1.330  33.605935
1.329  33.484247
1.328  33.531182
1.327  33.505805
1.326  33.512770
1.325  33.458882
1.324  33.471198
1.323  33.358076
1.322  33.467290
1.321  33.363235
1.320  33.534228
1.319  33.344657
1.318  33.362069
1.317  33.283378
1.316  33.340008
1.315  33.243253
1.314  33.265614
1.313  33.201703
1.312  33.233714
1.311  33.089894
1.310  33.177570
1.309  33.116924
1.308  33.165005
1.307  33.081519
1.306  33.077227
1.305  33.088301
1.304  33.066993
1.303  32.971657
1.302  33.092902
1.301  32.952038
1.300  32.942490
1.299  32.864299
1.298  32.991124
1.297  32.864835
1.296  32.814525
1.295  32.769813
1.294  32.809516
1.293  32.762469
1.292  32.723721
1.291  32.698574
1.290  32.712016
1.289  32.674291
1.288  32.711315
1.287  32.656708
1.286  32.619795
1.285  32.553154
1.284  32.589346
1.283  32.530716
1.282  32.530521
1.281  32.413960
1.280  32.524551
1.279  32.444911
1.278  32.419343
1.277  32.367797
1.276  32.390349
1.275  32.316874
1.274  32.229017
1.273  32.113793
1.272  32.298588
1.271  32.200986
1.270  32.240822
1.269  32.170992
1.268  32.199957
1.267  32.168887
1.266  32.111536
1.265  32.052533
1.264  32.043706
1.263  31.938222
1.262  31.945525
1.261  31.916683
1.260  31.948939
1.259  31.941618
1.258  31.916352
1.257  31.829088
1.256  31.791038
1.255  31.757966
1.254  31.827640
1.253  31.728052
1.252  31.710133
1.251  31.697214
1.250  31.703369
1.249  31.622185
1.248  31.612191
1.247  31.578445
1.246  31.533988
1.245  31.537569
1.244  31.552330
1.243  31.470585
1.242  31.445637
1.241  31.418618
1.240  31.390240
1.239  31.363824
1.238  31.329224
1.237  31.291755
1.236  31.271416
1.235  31.213528
1.234  31.187872
1.233  31.167178
1.232  31.178881
1.231  31.147025
1.230  31.118526
1.229  31.117188
1.228  31.110966
1.227  31.007799
1.226  30.974958
1.225  30.932912
1.224  30.884946
1.223  30.898104
1.222  30.911568
1.221  30.830619
1.220  30.839208
1.219  30.818107
1.218  30.759287
1.217  30.699383
1.216  30.680301
1.215  30.696229
1.214  30.623127
1.213  30.591200
1.212  30.571796
1.211  30.548926
1.210  30.512048
1.209  30.496488
1.208  30.460652
1.207  30.462068
1.206  30.450295
1.205  30.391033
1.204  30.335992
1.203  30.297452
1.202  30.248388
1.201  30.247280
1.200  30.221541
1.199  30.155585
1.198  30.168479
1.197  30.170056
1.196  30.125571
1.195  30.086916
1.194  29.993197
1.193  29.967888
1.192  29.994686
1.191  29.977969
1.190  29.894601
1.189  29.871918
1.188  29.723538
1.187  29.803040
1.186  29.820614
1.185  29.783646
1.184  29.737599
1.183  29.707710
1.182  29.665351
1.181  29.694571
1.180  29.600391
1.179  29.553468
1.178  29.484141
1.177  29.462104
1.176  29.439301
1.175  29.531431
1.174  29.400233
1.173  29.406421
1.172  29.368789
1.171  29.377928
1.170  29.320102
1.169  29.280523
1.168  29.206414
1.167  29.224141
1.166  29.144595
1.165  29.164241
1.164  29.113429
1.163  29.123834
1.162  28.993550
1.161  29.032494
1.160  28.976646
1.159  29.013325
1.158  28.960950
1.157  28.919319
1.156  28.884093
1.155  28.939540
1.154  28.819341
1.153  28.854168
1.152  28.790951
1.151  28.772354
1.150  28.681990
1.149  28.682041
1.148  28.594927
1.147  28.706468
1.146  28.618802
1.145  28.602319
1.144  28.517861
1.143  28.498691
1.142  28.413986
1.141  28.479207
1.140  28.356905
1.139  28.456599
1.138  28.320133
1.137  28.441369
1.136  28.279756
1.135  28.291303
1.134  28.250463
1.133  28.189302
1.132  28.183273
1.131  28.198342
1.130  28.123736
1.129  28.182105
1.128  28.030245
1.127  28.066337
1.126  28.072025
1.125  28.047097
1.124  27.922890
1.123  28.025297
1.122  27.910217
1.121  27.868099
1.120  27.857690
1.119  27.901966
1.118  27.787043
1.117  27.877956
1.116  27.794778
1.115  27.811025
1.114  27.669668
1.113  27.694142
1.112  27.627842
1.111  27.638291
1.110  27.584475
1.109  27.581821
1.108  27.483672
1.107  27.509625
1.106  27.489814
1.105  27.487081
1.104  27.396213
1.103  27.483468
1.102  27.363147
1.101  27.436919
1.100  27.253901
1.099  27.421886
1.098  27.221694
1.097  27.332263
1.096  27.177303
1.095  27.214051
1.094  27.172172
1.093  27.212710
1.092  27.114906
1.091  27.125403
1.090  27.186965
1.089  27.148292
1.088  27.019045
1.087  27.150593
1.086  26.932611
1.085  27.034240
1.084  26.950173
1.083  27.066486
1.082  26.964357
1.081  26.996469
1.080  26.916992
1.079  26.898699
1.078  26.797865
1.077  26.864509
1.076  26.784750
1.075  26.871837
1.074  26.781435
1.073  26.761082
1.072  26.668726
1.071  26.787282
1.070  26.554140
1.069  26.828371
1.068  26.641895
1.067  26.704812
1.066  26.688519
1.065  26.698466
1.064  26.498223
1.063  26.552075
1.062  26.494135
1.061  26.644632
1.060  26.469021
1.059  26.557170
1.058  26.481716
1.057  26.513175
1.056  26.384277
1.055  26.496840
1.054  26.432788
1.053  26.433205
1.052  26.372027
1.051  26.433022
1.050  26.283007
1.049  26.362363
1.048  26.283732
1.047  26.371211
1.046  26.206119
1.045  26.414803
1.044  26.201745
1.043  26.269360
1.042  26.228332
1.041  26.270165
1.040  26.144746
1.039  26.154639
1.038  26.030957
1.037  26.295890
1.036  26.134518
1.035  26.092254
1.034  26.099165
1.033  26.075136
1.032  26.044641
1.031  26.088037
1.030  25.967521
1.029  26.073656
1.028  26.034535
1.027  26.050127
1.026  25.938051
1.025  26.030009
1.024  25.932673
1.023  25.985011
1.022  25.975020
1.021  25.928484
1.020  25.823399
1.019  25.996245
1.018  25.862217
1.017  25.909754
1.016  25.851662
1.015  25.873708
1.014  25.799546
1.013  25.852727
1.012  25.782349
1.011  25.815722
1.010  25.781484
1.009  25.777055
1.008  25.741865
1.007  25.757112
1.006  25.673039
1.005  25.795092
1.004  25.659855
1.003  25.690285
1.002  25.712793
1.001  25.761248
1.000  25.674645
0.999  25.668951
0.998  25.621799
0.997  25.674026
0.996  25.586820
0.995  25.600642
0.994  25.548350
0.993  25.632433
0.992  25.601405
0.991  25.556816
0.990  25.534203
0.989  25.614983
0.988  25.527281
0.987  25.560548
0.986  25.494762
0.985  25.536210
0.984  25.435643
0.983  25.487730
0.982  25.457878
0.981  25.439484
0.980  25.396072
0.979  25.442895
0.978  25.370322
0.977  25.412009
0.976  25.341163
0.975  25.367903
0.974  25.426734
0.973  25.433053
0.972  25.251630
0.971  25.321424
0.970  25.343125
0.969  25.289214
0.968  25.258799
0.967  25.267287
0.966  25.227017
0.965  25.279601
0.964  25.280352
0.963  25.225311
0.962  25.214410
0.961  25.199398
0.960  25.214951
0.959  25.203875
0.958  25.134955
0.957  25.191591
0.956  25.161447
0.955  25.160729
0.954  25.142614
0.953  25.115613
0.952  25.074292
0.951  25.070941
0.950  25.063677
0.949  25.045309
0.948  25.005672
0.947  25.005551
0.946  24.953542
0.945  24.887900
0.944  24.922329
0.943  24.936509
0.942  24.903800
0.941  24.921499
0.940  24.850671
0.939  24.883600
0.938  24.828382
0.937  24.824887
0.936  24.876810
0.935  24.841084
0.934  24.785575
0.933  24.749168
0.932  24.722111
0.931  24.758963
0.930  24.750568
0.929  24.723951
0.928  24.657997
0.927  24.602332
0.926  24.616828
0.925  24.647842
0.924  24.687648
0.923  24.606089
0.922  24.538980
0.921  24.539585
0.920  24.502214
0.919  24.478116
0.918  24.459220
0.917  24.451594
0.916  24.441699
0.915  24.442870
0.914  24.489027
0.913  24.389249
0.912  24.327176
0.911  24.274727
0.910  24.259338
0.909  24.262922
0.908  24.276919
0.907  24.196399
0.906  24.155322
0.905  24.140113
0.904  24.128439
0.903  24.090957
0.902  24.131326
0.901  24.035503
0.900  24.059941
0.899  24.030135
0.898  24.018100
0.897  23.955972
0.896  23.959418
0.895  23.924728
0.894  23.943120
0.893  23.892688
0.892  23.913145
0.891  23.800814
0.890  23.827463
0.889  23.785735
0.888  23.746891
0.887  23.671731
0.886  23.737099
0.885  23.645703
0.884  23.599717
0.883  23.599832
0.882  23.594302
0.881  23.490914
0.880  23.532350
0.879  23.424434
0.878  23.483299
0.877  23.468528
0.876  23.446343
0.875  23.365759
0.874  23.393952
0.873  23.352566
0.872  23.350387
0.871  23.254873
0.870  23.277363
0.869  23.184675
0.868  23.228562
0.867  23.130745
0.866  23.162294
0.865  23.065094
0.864  23.135683
0.863  22.982753
0.862  23.099041
0.861  23.012666
0.860  22.918483
0.859  22.859845
0.858  22.836929
0.857  22.834653
0.856  22.801940
0.855  22.806254
0.854  22.811655
0.853  22.749033
0.852  22.794253
0.851  22.799708
0.850  22.762377
0.849  22.743084
0.848  22.767876
0.847  22.773400
0.846  22.752050
0.845  22.743302
0.844  22.728668
0.843  22.728503
0.842  22.708906
0.841  22.718793
0.840  22.706498
0.839  22.686013
0.838  22.669475
0.837  22.643928
0.836  22.644858
0.835  22.646414
0.834  22.628052
0.833  22.637091
0.832  22.627351
0.831  22.621232
0.830  22.605750
0.829  22.578634
0.828  22.582289
0.827  22.559515
0.826  22.561069
0.825  22.541243
0.824  22.532557
0.823  22.515947
0.822  22.519101
0.821  22.495671
0.820  22.489241
0.819  22.471352
0.818  22.469672
0.817  22.447397
0.816  22.447251
0.815  22.420888
0.814  22.417470
0.813  22.390484
0.812  22.389378
0.811  22.369533
0.810  22.373421
0.809  22.359967
0.808  22.329631
0.807  22.329251
0.806  22.304437
0.805  22.298689
0.804  22.274899
0.803  22.256912
0.802  22.220947
0.801  22.229686
0.800  22.220409
0.799  22.178943
0.798  22.160586
0.797  22.146219
0.796  22.116003
0.795  22.105766
0.794  22.080678
0.793  22.048410
0.792  22.044439
0.791  22.035966
0.790  22.015008
0.789  21.995632
0.788  21.989169
0.787  21.984026
0.786  21.957295
0.785  21.944707
0.784  21.925114
0.783  21.895435
0.782  21.884540
0.781  21.884409
0.780  21.840085
0.779  21.833505
0.778  21.801133
0.777  21.792154
0.776  21.761691
0.775  21.761376
0.774  21.723272
0.773  21.715827
0.772  21.670507
0.771  21.651868
0.770  21.628537
0.769  21.600074
0.768  21.593502
0.767  21.585819
0.766  21.548643
0.765  21.519359
0.764  21.514215
0.763  21.470114
0.762  21.467288
0.761  21.440296
0.760  21.419192
0.759  21.397382
0.758  21.369722
0.757  21.341291
0.756  21.335461
0.755  21.324000
0.754  21.287955
0.753  21.260127
0.752  21.252015
0.751  21.223547
0.750  21.196524
0.749  21.177121
0.748  21.152220
0.747  21.144994
0.746  21.125515
0.745  21.099244
0.744  21.083842
0.743  21.054799
0.742  21.026832
0.741  21.017700
0.740  20.995156
0.739  20.975282
0.738  20.959724
0.737  20.948599
0.736  20.933927
0.735  20.925304
0.734  20.893089
0.733  20.880637
0.732  20.865024
0.731  20.856964
0.730  20.826695
0.729  20.816728
0.728  20.801965
0.727  20.785173
0.726  20.775203
0.725  20.761731
0.724  20.750899
0.723  20.739713
0.722  20.720791
0.721  20.703829
0.720  20.688560
0.719  20.676712
0.718  20.663717
0.717  20.653991
0.716  20.640423
0.715  20.629190
0.714  20.616770
0.713  20.601504
0.712  20.593955
0.711  20.578463
0.710  20.565105
0.709  20.559802
0.708  20.552726
0.707  20.536042
0.706  20.521851
0.705  20.518309
0.704  20.508046
0.703  20.495020
0.702  20.477588
0.701  20.463732
0.700  20.454585
0.699  20.447288
0.698  20.432806
0.697  20.427532
0.696  20.419576
0.695  20.406470
0.694  20.402192
0.693  20.385706
0.692  20.378824
0.691  20.372322
0.690  20.355338
0.689  20.342212
0.688  20.336363
0.687  20.331520
0.686  20.323683
0.685  20.314992
0.684  20.301090
0.683  20.295237
0.682  20.285382
0.681  20.269441
0.680  20.267063
0.679  20.257389
0.678  20.254177
0.677  20.249507
0.676  20.234367
0.675  20.225829
0.674  20.220727
0.673  20.216597
0.672  20.212360
0.671  20.207241
0.670  20.199514
0.669  20.188823
0.668  20.193986
0.667  20.192140
0.666  20.176379
0.665  20.172801
0.664  20.173552
0.663  20.170796
0.662  20.164153
0.661  20.160483
0.660  20.159360
0.659  20.157223
0.658  20.154174
0.657  20.147057
0.656  20.140875
0.655  20.135543
0.654  20.139800
0.653  20.137674
0.652  20.135503
0.651  20.143022
0.650  20.140568
0.649  20.136552
0.648  20.138641
0.647  20.140892
0.646  20.137900
0.645  20.137947
0.644  20.136698
0.643  20.131908
0.642  20.132134
0.641  20.133322
0.640  20.137227
0.639  20.141854
0.638  20.142608
0.637  20.139022
0.636  20.140102
0.635  20.148335
0.634  20.151655
0.633  20.152931
0.632  20.154432
0.631  20.155955
0.630  20.156594
0.629  20.154824
0.628  20.157183
0.627  20.163220
0.626  20.166177
0.625  20.165072
0.624  20.172271
0.623  20.173402
0.622  20.170558
0.621  20.177423
0.620  20.183965
0.619  20.180503
0.618  20.185735
0.617  20.192555
0.616  20.196082
0.615  20.193840
0.614  20.197140
0.613  20.203685
0.612  20.208651
0.611  20.212788
0.610  20.207821
0.609  20.208809
0.608  20.214617
0.607  20.217145
0.606  20.218276
0.605  20.223670
0.604  20.226982
0.603  20.226054
0.602  20.228304
0.601  20.234933
0.600  20.234715
0.599  20.237249
0.598  20.242486
0.597  20.250000
0.596  20.258011
0.595  20.261544
0.594  20.258370
0.593  20.257323
0.592  20.259592
0.591  20.263642
0.590  20.263826
0.589  20.258500
0.588  20.254874
0.587  20.256882
0.586  20.257676
0.585  20.255726
0.584  20.253134
0.583  20.251017
0.582  20.246110
0.581  20.244075
0.580  20.239137
0.579  20.235570
0.578  20.232327
0.577  20.229696
0.576  20.227948
0.575  20.227897
0.574  20.223343
0.573  20.218835
0.572  20.223233
0.571  20.220317
0.570  20.219606
0.569  20.218074
0.568  20.208384
0.567  20.204099
0.566  20.202948
0.565  20.197884
0.564  20.189812
0.563  20.186007
0.562  20.181060
0.561  20.191861
0.560  20.187153
0.559  20.180674
0.558  20.175928
0.557  20.171039
0.556  20.166471
0.555  20.158518
0.554  20.155354
0.553  20.144495
0.552  20.142336
0.551  20.136798
0.550  20.135375
0.549  20.126409
0.548  20.122623
0.547  20.115589
0.546  20.110306
0.545  20.104759
0.544  20.099008
0.543  20.091834
0.542  20.088240
0.541  20.083189
0.540  20.077331
0.539  20.071306
0.538  20.072216
0.537  20.062577
0.536  20.056271
0.535  20.041895
0.534  20.031340
0.533  20.032070
0.532  20.028230
0.531  20.019977
0.530  20.014746
0.529  20.004932
0.528  19.997053
0.527  19.990928
0.526  19.983344
0.525  19.985903
0.524  19.971185
0.523  19.966862
0.522  19.963185
0.521  19.956964
0.520  19.948204
0.519  19.943072
0.518  19.941146
0.517  19.932185
0.516  19.924225
0.515  19.926993
0.514  19.915492
0.513  19.905567
0.512  19.892653
0.511  19.891581
0.510  19.885479
0.509  19.877867
0.508  19.866983
0.507  19.861117
0.506  19.853032
0.505  19.846417
0.504  19.840699
0.503  19.827515
0.502  19.814405
0.501  19.800823
0.500  19.795679
0.499  19.779569
0.498  19.768552
0.497  19.747473
0.496  19.724359
0.495  19.716831
0.494  19.695399
0.493  19.679935
0.492  19.657574
0.491  19.642992
0.490  19.640183
0.489  19.622174
0.488  19.619685
0.487  19.610365
0.486  19.594058
0.485  19.573191
0.484  19.555628
0.483  19.542488
0.482  19.529527
0.481  19.514394
0.480  19.499908
0.479  19.468260
0.478  19.433504
0.477  19.400510
0.476  19.368429
0.475  19.340340
0.474  19.310897
0.473  19.280470
0.472  19.252244
0.471  19.218828
0.470  19.188009
0.469  19.154686
0.468  19.124300
0.467  19.087243
0.466  19.053834
0.465  19.011190
0.464  18.972296
0.463  18.930109
0.462  18.891193
0.461  18.854119
0.460  18.820138
0.459  18.772167
0.458  18.736313
0.457  18.688930
0.456  18.646712
0.455  18.604455
0.454  18.560583
0.453  18.507765
0.452  18.461473
0.451  18.406994
0.450  18.350751
0.449  18.296291
0.448  18.245099
0.447  18.207621
0.446  18.160955
0.445  18.095504
0.444  18.039027
0.443  17.978963
0.442  17.925770
0.441  17.868047
0.440  17.821807
0.439  17.780459
0.438  17.740119
0.437  17.710188
0.436  17.673717
0.435  17.634309
0.434  17.601933
0.433  17.552073
0.432  17.506844
0.431  17.453850
0.430  17.399456
0.429  17.346809
0.428  17.286378
0.427  17.228861
0.426  17.175377
0.425  17.115873
0.424  17.052557
0.423  16.992568
0.422  16.941074
0.421  16.884140
0.420  16.831657
0.419  16.768110
0.418  16.718965
0.417  16.667265
0.416  16.617362
0.415  16.570675
0.414  16.521820
0.413  16.482330
0.412  16.438701
0.411  16.396381
0.410  16.351039
0.409  16.298004
0.408  16.256602
0.407  16.212404
0.406  16.157170
0.405  16.110689
0.404  16.073264
0.403  16.021463
0.402  15.971401
0.401  15.918621
0.400  15.870183
