Name: Arenaceous Shale
Type: Rock
Class: Sedimentary
Subclass:  Shale 
Particle Size: Solid surface
Sample No.: Ward53.txt
Owner: JPL
Wavelength range:  IR
Origin: Ward's Collection of American Rocks.  Sample locality - Greene County, New York.
Collected by:  Ward's Natural Science
Description: A dark gray, gritty rock with irregular shaly partings.
Geologic age - Devonian.




Measurement: Hemispherical reflectance
First Column: X
Second Column: Y
X Units: Wavelength (micrometers)
Y Units: Reflectance (percent)
First X Value: 15.3871
Last X Value: 1.9998
Number of X Values: 2257
Additional information: None

15.3871   3.73217
15.3416   3.82926
15.2964   3.64137
15.2514   3.36957
15.2066   3.45739
15.1622   3.66713
15.1180   3.68509
15.0740   3.72603
15.0303   3.77726
14.9869   3.69886
14.9437   3.60562
14.9008   3.75719
14.8581   4.14734
14.8156   4.15533
14.7734   4.17038
14.7314   4.26697
14.6897   4.28706
14.6482   4.18827
14.6069   4.40523
14.5659   4.46032
14.5251   4.58889
14.4845   4.58482
14.4442   4.40515
14.4041   4.22762
14.3642   3.91555
14.3245   3.60139
14.2850   3.81866
14.2458   3.99761
14.2068   3.91695
14.1679   3.88179
14.1293   3.80150
14.0909   3.85475
14.0528   4.22988
14.0148   4.51070
13.9770   4.43214
13.9394   4.21877
13.9021   4.17087
13.8649   4.42372
13.8279   4.63545
13.7911   4.72925
13.7546   4.81858
13.7182   4.91843
13.6820   4.96313
13.6460   4.93873
13.6101   4.98693
13.5745   5.11697
13.5391   5.14666
13.5038   5.38290
13.4687   5.42618
13.4339   5.39915
13.3991   5.58008
13.3646   5.60882
13.3302   5.51448
13.2961   5.51605
13.2621   5.70006
13.2282   5.86394
13.1946   5.82985
13.1611   5.90854
13.1278   6.03692
13.0946   6.09354
13.0616   6.18575
13.0288   6.33174
12.9962   6.39324
12.9637   6.78043
12.9313   7.22247
12.8992   7.37526
12.8672   7.34144
12.8353   7.20458
12.8036   6.87472
12.7721   6.46838
12.7407   6.14448
12.7095   5.82211
12.6784   5.99596
12.6475   6.25785
12.6167   6.43407
12.5861   6.71744
12.5556   6.95392
12.5253   6.70546
12.4951   6.04893
12.4651   5.29442
12.4352   4.40488
12.4054   3.68027
12.3758   3.39747
12.3463   3.34730
12.3170   3.31630
12.2878   3.37294
12.2588   3.58305
12.2299   3.84611
12.2011   4.16138
12.1725   4.38175
12.1439   4.56705
12.1156   4.53281
12.0873   4.48833
12.0592   4.56028
12.0312   4.81882
12.0034   4.90734
11.9757   4.87833
11.9481   4.76231
11.9206   4.94343
11.8933   5.15175
11.8661   5.16836
11.8390   5.20159
11.8120   5.25702
11.7852   5.21372
11.7584   5.30734
11.7318   5.42141
11.7053   5.58716
11.6790   5.69527
11.6527   5.82930
11.6266   5.86501
11.6006   5.94124
11.5747   6.07100
11.5489   6.17495
11.5233   6.39672
11.4977   6.61943
11.4723   6.67686
11.4469   6.70923
11.4217   6.74180
11.3966   6.71689
11.3716   6.81004
11.3468   6.99101
11.3220   7.14751
11.2973   7.24774
11.2728   7.33291
11.2483   7.45705
11.2240   7.57625
11.1997   7.56088
11.1756   7.62764
11.1515   7.77069
11.1276   7.94446
11.1038   7.97900
11.0801   8.06872
11.0564   8.06587
11.0329   8.07808
11.0095   8.17364
10.9862   8.17965
10.9629   8.20286
10.9398   8.25387
10.9168   8.30310
10.8938   8.25457
10.8710   8.18965
10.8483   8.29915
10.8256   8.38779
10.8031   8.25395
10.7806   8.13807
10.7582   8.28967
10.7360   8.48987
10.7138   8.54392
10.6917   8.66370
10.6697   8.77895
10.6478   8.81888
10.6260   9.00264
10.6042   9.06050
10.5826   9.13564
10.5610   9.23497
10.5396   9.32050
10.5182   9.50948
10.4969   9.78843
10.4757  10.08470
10.4546  10.38530
10.4335  10.71610
10.4126  10.98930
10.3917  11.27220
10.3709  11.46100
10.3502  11.68360
10.3296  11.90450
10.3091  12.21240
10.2886  12.64330
10.2683  12.95920
10.2480  13.35630
10.2277  13.70330
10.2076  13.83650
10.1876  14.08330
10.1676  14.35840
10.1477  14.67450
10.1279  14.90650
10.1081  15.21390
10.0885  15.40260
10.0689  15.51980
10.0494  15.65770
10.0299  15.78710
10.0106  16.01000
 9.9913  16.15880
 9.9720  16.32840
 9.9529  16.63000
 9.9338  16.77000
 9.9148  16.87580
 9.8959  16.95800
 9.8771  17.08940
 9.8583  17.36490
 9.8396  17.56840
 9.8210  17.61100
 9.8024  17.78230
 9.7839  18.07600
 9.7655  18.25220
 9.7471  18.46590
 9.7288  18.70250
 9.7106  18.91040
 9.6925  19.14670
 9.6744  19.30870
 9.6564  19.54590
 9.6384  19.77920
 9.6205  19.95580
 9.6027  19.92570
 9.5850  19.87520
 9.5673  20.09040
 9.5497  20.29450
 9.5321  20.23560
 9.5146  20.22260
 9.4972  20.23150
 9.4798  20.24220
 9.4625  20.31280
 9.4453  20.48540
 9.4281  20.80290
 9.4110  21.38520
 9.3940  22.06670
 9.3770  22.72400
 9.3600  23.25850
 9.3432  23.48840
 9.3264  23.65000
 9.3096  23.83920
 9.2930  23.94380
 9.2763  23.72940
 9.2598  23.51300
 9.2432  23.41510
 9.2268  23.40650
 9.2104  23.33790
 9.1941  23.11400
 9.1778  22.87520
 9.1616  22.67380
 9.1454  22.57710
 9.1293  22.45570
 9.1133  22.39220
 9.0973  22.19980
 9.0814  21.93400
 9.0655  21.78530
 9.0497  21.61810
 9.0339  21.45940
 9.0182  21.30280
 9.0025  21.19730
 8.9870  21.31540
 8.9714  21.27760
 8.9559  21.16080
 8.9405  20.89870
 8.9251  20.74910
 8.9097  20.79540
 8.8945  20.79970
 8.8792  20.73300
 8.8641  20.59330
 8.8489  20.51620
 8.8338  20.33460
 8.8188  20.19680
 8.8039  20.12960
 8.7889  19.97820
 8.7741  19.78330
 8.7592  19.53700
 8.7445  19.39700
 8.7297  19.19230
 8.7151  18.75460
 8.7005  18.30190
 8.6859  17.90820
 8.6714  17.17750
 8.6569  16.22030
 8.6425  15.04580
 8.6281  14.40790
 8.6137  14.77030
 8.5994  15.78900
 8.5852  16.83650
 8.5710  17.64830
 8.5569  17.96430
 8.5428  17.99400
 8.5287  17.90540
 8.5147  17.85860
 8.5008  17.84330
 8.4869  17.59470
 8.4730  17.35570
 8.4592  17.25820
 8.4454  16.93800
 8.4316  16.58030
 8.4180  16.32230
 8.4043  16.04590
 8.3907  15.82550
 8.3772  15.66260
 8.3637  15.48010
 8.3502  15.24690
 8.3368  14.97130
 8.3234  14.86170
 8.3100  14.97150
 8.2967  14.86660
 8.2835  14.65020
 8.2703  14.61910
 8.2571  14.49390
 8.2440  14.31160
 8.2309  14.14490
 8.2179  14.12320
 8.2049  13.99450
 8.1919  13.87340
 8.1790  13.62060
 8.1661  13.37530
 8.1532  13.10760
 8.1404  12.73340
 8.1277  12.34110
 8.1150  11.77650
 8.1023  11.17850
 8.0897  10.78810
 8.0770  10.36990
 8.0645   9.95164
 8.0520   9.62388
 8.0395   9.23153
 8.0270   8.85941
 8.0146   8.78581
 8.0023   8.72475
 7.9899   8.50722
 7.9776   8.23102
 7.9654   7.99494
 7.9532   7.73654
 7.9410   7.54946
 7.9288   7.26363
 7.9167   6.98507
 7.9047   6.89703
 7.8926   6.74341
 7.8807   6.61300
 7.8687   6.52242
 7.8568   6.38222
 7.8449   6.28049
 7.8330   6.04203
 7.8212   5.92844
 7.8094   6.03138
 7.7977   6.01848
 7.7860   6.00484
 7.7743   6.02365
 7.7627   6.10238
 7.7511   6.19472
 7.7395   6.18815
 7.7280   6.13865
 7.7165   6.17557
 7.7050   6.22203
 7.6936   6.13029
 7.6822   6.10993
 7.6708   6.09945
 7.6595   6.08302
 7.6482   6.01669
 7.6369   5.87975
 7.6257   5.75519
 7.6145   5.62420
 7.6033   5.60905
 7.5922   5.76615
 7.5811   5.80104
 7.5700   5.73224
 7.5590   5.69001
 7.5480   5.73146
 7.5370   5.76860
 7.5261   5.79981
 7.5152   5.92926
 7.5043   6.01589
 7.4935   6.03043
 7.4826   5.90575
 7.4718   5.83179
 7.4611   5.82390
 7.4504   5.77782
 7.4397   5.75130
 7.4290   5.80022
 7.4184   5.87778
 7.4078   5.90854
 7.3972   5.83004
 7.3867   5.75185
 7.3762   5.65205
 7.3657   5.50477
 7.3553   5.49332
 7.3449   5.44301
 7.3345   5.36666
 7.3241   5.31401
 7.3138   5.22734
 7.3035   5.17619
 7.2932   5.07311
 7.2830   4.97433
 7.2727   4.85347
 7.2626   4.81795
 7.2524   4.81320
 7.2423   4.72820
 7.2322   4.75908
 7.2221   4.80591
 7.2120   4.72260
 7.2020   4.60556
 7.1921   4.56429
 7.1821   4.52053
 7.1722   4.45483
 7.1623   4.40764
 7.1524   4.40730
 7.1425   4.44460
 7.1327   4.45825
 7.1229   4.49238
 7.1131   4.55067
 7.1034   4.62292
 7.0937   4.65203
 7.0840   4.76197
 7.0743   4.89512
 7.0647   5.03690
 7.0551   5.06395
 7.0455   5.01257
 7.0359   5.09921
 7.0264   5.23106
 7.0169   5.17522
 7.0074   5.14416
 6.9979   5.08793
 6.9885   5.09823
 6.9791   5.05113
 6.9697   5.00603
 6.9604   5.09208
 6.9510   5.06643
 6.9417   5.08842
 6.9324   5.09960
 6.9232   5.00006
 6.9140   4.96183
 6.9047   5.02342
 6.8956   5.06512
 6.8864   5.15263
 6.8773   5.17830
 6.8682   5.23928
 6.8591   5.31942
 6.8500   5.29859
 6.8410   5.23348
 6.8320   5.24102
 6.8230   5.41177
 6.8140   5.49594
 6.8051   5.59679
 6.7962   5.65599
 6.7873   5.67445
 6.7784   5.71032
 6.7695   5.70757
 6.7607   5.61628
 6.7519   5.68640
 6.7431   5.81318
 6.7344   5.68795
 6.7256   5.69366
 6.7169   5.88004
 6.7082   5.92998
 6.6996   5.92068
 6.6909   6.00776
 6.6823   6.15462
 6.6737   6.26821
 6.6651   6.37231
 6.6566   6.39137
 6.6480   6.43398
 6.6395   6.52030
 6.6310   6.49439
 6.6226   6.41725
 6.6141   6.45785
 6.6057   6.46029
 6.5973   6.44176
 6.5889   6.46777
 6.5805   6.43972
 6.5722   6.46639
 6.5639   6.33556
 6.5556   6.26298
 6.5473   6.30387
 6.5390   6.31135
 6.5308   6.36298
 6.5226   6.47571
 6.5144   6.54251
 6.5062   6.57407
 6.4981   6.65765
 6.4900   6.69480
 6.4818   6.73362
 6.4737   6.76672
 6.4657   6.70986
 6.4576   6.58719
 6.4496   6.51998
 6.4416   6.53753
 6.4336   6.50459
 6.4256   6.42795
 6.4177   6.32485
 6.4097   6.15739
 6.4018   5.99989
 6.3939   5.93188
 6.3860   5.87837
 6.3782   5.72289
 6.3704   5.57335
 6.3625   5.45286
 6.3547   5.21807
 6.3470   5.04518
 6.3392   4.91143
 6.3315   4.65825
 6.3237   4.41179
 6.3160   4.30385
 6.3083   4.22638
 6.3007   4.15055
 6.2930   4.01667
 6.2854   3.80924
 6.2778   3.67165
 6.2702   3.56383
 6.2626   3.43158
 6.2551   3.38895
 6.2476   3.39327
 6.2400   3.30271
 6.2325   3.19348
 6.2251   3.16309
 6.2176   3.13415
 6.2101   3.09546
 6.2027   3.09868
 6.1953   3.04883
 6.1879   3.04687
 6.1805   3.06911
 6.1732   3.11780
 6.1658   3.13880
 6.1585   3.09686
 6.1512   3.18879
 6.1439   3.20730
 6.1367   3.07255
 6.1294   3.02176
 6.1222   2.94663
 6.1149   2.94218
 6.1077   3.02126
 6.1006   3.01724
 6.0934   3.00582
 6.0862   3.02527
 6.0791   3.00653
 6.0720   3.04526
 6.0649   3.09206
 6.0578   3.10146
 6.0507   3.13283
 6.0437   3.08837
 6.0366   3.08030
 6.0296   3.13795
 6.0226   3.11035
 6.0156   3.03339
 6.0087   3.03322
 6.0017   3.03241
 5.9948   3.07203
 5.9878   3.05922
 5.9809   2.94492
 5.9740   2.94553
 5.9672   3.05018
 5.9603   3.03481
 5.9535   3.02687
 5.9466   3.02730
 5.9398   3.08184
 5.9330   3.09443
 5.9262   3.01963
 5.9195   2.98135
 5.9127   2.99726
 5.9060   3.07998
 5.8993   3.16192
 5.8926   3.20731
 5.8859   3.26720
 5.8792   3.27218
 5.8726   3.25679
 5.8659   3.25585
 5.8593   3.29323
 5.8527   3.29106
 5.8461   3.32003
 5.8395   3.32594
 5.8329   3.33233
 5.8264   3.51164
 5.8198   3.60481
 5.8133   3.58097
 5.8068   3.54182
 5.8003   3.48560
 5.7938   3.50299
 5.7874   3.58627
 5.7809   3.61872
 5.7745   3.67042
 5.7680   3.70270
 5.7616   3.64519
 5.7552   3.70127
 5.7489   3.79380
 5.7425   3.80220
 5.7361   3.79502
 5.7298   3.73397
 5.7235   3.71758
 5.7172   3.75378
 5.7109   3.90878
 5.7046   3.94656
 5.6983   3.90385
 5.6921   3.93657
 5.6858   3.86368
 5.6796   3.80005
 5.6734   3.87144
 5.6672   3.82363
 5.6610   3.75655
 5.6548   3.78379
 5.6487   3.77469
 5.6425   3.74649
 5.6364   3.63239
 5.6303   3.60610
 5.6242   3.58484
 5.6181   3.52910
 5.6120   3.47695
 5.6059   3.50485
 5.5999   3.52650
 5.5938   3.51306
 5.5878   3.55751
 5.5818   3.64049
 5.5758   3.56906
 5.5698   3.50152
 5.5638   3.48702
 5.5578   3.56956
 5.5519   3.63739
 5.5460   3.57909
 5.5400   3.50686
 5.5341   3.57271
 5.5282   3.65131
 5.5223   3.64878
 5.5164   3.63478
 5.5106   3.60115
 5.5047   3.58045
 5.4989   3.60099
 5.4931   3.70255
 5.4873   3.76684
 5.4815   3.77101
 5.4757   3.81572
 5.4699   3.90219
 5.4641   3.95562
 5.4584   3.92815
 5.4527   3.96698
 5.4469   4.01733
 5.4412   3.97284
 5.4355   3.89260
 5.4298   3.89884
 5.4241   3.88891
 5.4185   3.83784
 5.4128   3.88873
 5.4072   3.92556
 5.4015   3.83551
 5.3959   3.71977
 5.3903   3.73583
 5.3847   3.75621
 5.3791   3.70988
 5.3735   3.61264
 5.3680   3.57678
 5.3624   3.57153
 5.3569   3.50543
 5.3514   3.44410
 5.3458   3.47986
 5.3403   3.59341
 5.3348   3.62855
 5.3294   3.62060
 5.3239   3.56465
 5.3184   3.51187
 5.3130   3.55505
 5.3075   3.68640
 5.3021   3.68830
 5.2967   3.68086
 5.2913   3.66666
 5.2859   3.69144
 5.2805   3.68799
 5.2751   3.73786
 5.2698   3.83761
 5.2644   3.87899
 5.2591   3.94580
 5.2538   3.94381
 5.2485   3.96040
 5.2431   4.05165
 5.2378   4.11102
 5.2326   4.12839
 5.2273   4.14883
 5.2220   4.25490
 5.2168   4.31746
 5.2115   4.32335
 5.2063   4.36514
 5.2011   4.39350
 5.1959   4.44833
 5.1907   4.44287
 5.1855   4.46739
 5.1803   4.41166
 5.1751   4.32073
 5.1700   4.30282
 5.1648   4.41550
 5.1597   4.49939
 5.1545   4.50736
 5.1494   4.45316
 5.1443   4.45807
 5.1392   4.43526
 5.1341   4.44269
 5.1291   4.52165
 5.1240   4.55192
 5.1189   4.54753
 5.1139   4.58864
 5.1088   4.60581
 5.1038   4.50534
 5.0988   4.40485
 5.0938   4.35636
 5.0888   4.34250
 5.0838   4.38665
 5.0788   4.40433
 5.0738   4.31370
 5.0689   4.34737
 5.0639   4.42552
 5.0590   4.43854
 5.0541   4.44347
 5.0491   4.44243
 5.0442   4.51081
 5.0393   4.50879
 5.0344   4.44909
 5.0296   4.37912
 5.0247   4.36130
 5.0198   4.44540
 5.0150   4.44334
 5.0101   4.39568
 5.0053   4.42006
 5.0004   4.47403
 4.9956   4.57426
 4.9908   4.54565
 4.9860   4.50699
 4.9812   4.59338
 4.9765   4.69933
 4.9717   4.77721
 4.9669   4.76125
 4.9622   4.77905
 4.9574   4.83306
 4.9527   4.85219
 4.9480   4.88792
 4.9432   4.93191
 4.9385   4.89063
 4.9338   4.94025
 4.9291   5.00528
 4.9245   5.05302
 4.9198   5.17501
 4.9151   5.17289
 4.9105   5.17656
 4.9058   5.31642
 4.9012   5.54920
 4.8966   5.58620
 4.8919   5.54420
 4.8873   5.64001
 4.8827   5.76946
 4.8781   5.83908
 4.8736   5.87895
 4.8690   5.87695
 4.8644   5.92034
 4.8599   5.96439
 4.8553   5.95742
 4.8508   5.90151
 4.8462   5.96349
 4.8417   6.06956
 4.8372   6.10370
 4.8327   6.07428
 4.8282   6.08001
 4.8237   6.21933
 4.8192   6.29829
 4.8147   6.25428
 4.8103   6.22696
 4.8058   6.16516
 4.8014   6.15603
 4.7969   6.29395
 4.7925   6.35847
 4.7881   6.25354
 4.7836   6.17607
 4.7792   6.25727
 4.7748   6.28626
 4.7704   6.30082
 4.7660   6.30736
 4.7617   6.26588
 4.7573   6.30250
 4.7530   6.45646
 4.7486   6.49524
 4.7443   6.48903
 4.7399   6.44265
 4.7356   6.38517
 4.7313   6.39002
 4.7270   6.45507
 4.7226   6.43707
 4.7184   6.40022
 4.7141   6.48141
 4.7098   6.53617
 4.7055   6.58317
 4.7012   6.51973
 4.6970   6.55455
 4.6927   6.63556
 4.6885   6.59975
 4.6842   6.58448
 4.6800   6.51473
 4.6758   6.47658
 4.6716   6.48024
 4.6674   6.52230
 4.6632   6.63449
 4.6590   6.78986
 4.6548   6.86708
 4.6506   6.80908
 4.6465   6.72819
 4.6423   6.67394
 4.6382   6.70772
 4.6340   6.79220
 4.6299   6.85901
 4.6258   6.90200
 4.6216   6.95034
 4.6175   6.98340
 4.6134   6.86310
 4.6093   6.81692
 4.6052   6.84361
 4.6011   6.93858
 4.5971   7.06090
 4.5930   6.95751
 4.5889   6.99736
 4.5849   7.10587
 4.5808   7.05853
 4.5768   7.01245
 4.5727   7.04262
 4.5687   7.07576
 4.5647   7.09328
 4.5607   7.13361
 4.5567   7.17748
 4.5526   7.20263
 4.5487   7.19909
 4.5447   7.21404
 4.5407   7.20523
 4.5367   7.12540
 4.5328   7.15986
 4.5288   7.19121
 4.5248   7.15370
 4.5209   7.19213
 4.5170   7.24023
 4.5130   7.19434
 4.5091   7.07075
 4.5052   6.98641
 4.5013   6.98924
 4.4974   7.00640
 4.4935   7.07760
 4.4896   7.10454
 4.4857   7.10378
 4.4818   7.16184
 4.4779   7.15734
 4.4741   7.03072
 4.4702   6.95007
 4.4664   7.03741
 4.4625   7.17205
 4.4587   7.29825
 4.4549   7.27163
 4.4510   7.09821
 4.4472   7.11562
 4.4434   7.27174
 4.4396   7.20037
 4.4358   7.14187
 4.4320   7.25780
 4.4282   7.33627
 4.4245   7.34483
 4.4207   7.38204
 4.4169   7.32440
 4.4132   7.29442
 4.4094   7.37488
 4.4057   7.44093
 4.4019   7.50168
 4.3982   7.59440
 4.3945   7.50777
 4.3907   7.48574
 4.3870   7.51822
 4.3833   7.54399
 4.3796   7.50417
 4.3759   7.51564
 4.3722   7.62643
 4.3685   7.71842
 4.3649   7.72750
 4.3612   7.79304
 4.3575   7.80700
 4.3539   7.88529
 4.3502   7.83786
 4.3466   7.68878
 4.3429   7.69852
 4.3393   7.81022
 4.3357   7.90574
 4.3320   7.89184
 4.3284   7.79581
 4.3248   7.65935
 4.3212   7.54817
 4.3176   7.45829
 4.3140   7.46104
 4.3105   7.46765
 4.3069   7.49227
 4.3033   7.51825
 4.2997   7.50725
 4.2962   7.40080
 4.2926   7.37901
 4.2890   7.40948
 4.2855   7.32937
 4.2820   7.25155
 4.2784   7.20288
 4.2749   7.22204
 4.2714   7.30234
 4.2679   7.36679
 4.2644   7.54547
 4.2609   7.70949
 4.2574   7.70103
 4.2539   7.65997
 4.2504   7.53114
 4.2469   7.31001
 4.2434   7.19194
 4.2400   7.18188
 4.2365   7.16769
 4.2330   7.29357
 4.2296   7.42732
 4.2261   7.41037
 4.2227   7.38601
 4.2193   7.52303
 4.2158   7.67638
 4.2124   7.70271
 4.2090   7.74960
 4.2056   7.92169
 4.2022   8.09020
 4.1988   8.12385
 4.1954   8.09304
 4.1920   8.03746
 4.1886   8.10336
 4.1852   8.14717
 4.1818   8.03979
 4.1785   7.92017
 4.1751   7.96934
 4.1717   8.12270
 4.1684   8.21203
 4.1650   8.26568
 4.1617   8.29299
 4.1584   8.23353
 4.1550   8.12180
 4.1517   8.07828
 4.1484   8.07796
 4.1451   8.22252
 4.1418   8.32964
 4.1384   8.25660
 4.1351   8.24265
 4.1319   8.35211
 4.1286   8.35051
 4.1253   8.17929
 4.1220   8.15545
 4.1187   8.18849
 4.1155   8.13649
 4.1122   8.18962
 4.1089   8.23812
 4.1057   8.22491
 4.1024   8.22937
 4.0992   8.18969
 4.0959   8.30051
 4.0927   8.37806
 4.0895   8.28511
 4.0863   8.34085
 4.0830   8.36317
 4.0798   8.34041
 4.0766   8.24959
 4.0734   8.21631
 4.0702   8.29997
 4.0670   8.35493
 4.0639   8.31522
 4.0607   8.38761
 4.0575   8.42142
 4.0543   8.29701
 4.0511   8.11112
 4.0480   8.19432
 4.0448   8.37004
 4.0417   8.25753
 4.0385   8.06381
 4.0354   8.11229
 4.0323   8.13135
 4.0291   8.03591
 4.0260   8.02253
 4.0229   7.95069
 4.0197   8.06002
 4.0166   7.99706
 4.0135   7.73975
 4.0104   7.73020
 4.0073   7.70839
 4.0042   7.60306
 4.0011   7.58839
 3.9981   7.48616
 3.9950   7.30360
 3.9919   7.28835
 3.9888   7.22284
 3.9857   7.14176
 3.9827   7.00147
 3.9796   6.82192
 3.9766   6.80003
 3.9735   6.80473
 3.9705   6.70382
 3.9675   6.54233
 3.9644   6.56369
 3.9614   6.74022
 3.9584   6.79405
 3.9554   6.83510
 3.9523   6.79418
 3.9493   6.75538
 3.9463   6.82248
 3.9433   6.90407
 3.9403   6.85526
 3.9373   6.78630
 3.9343   6.89978
 3.9314   6.94700
 3.9284   6.95038
 3.9254   6.97397
 3.9224   6.95679
 3.9195   7.06112
 3.9165   7.20494
 3.9136   7.34104
 3.9106   7.36372
 3.9077   7.43849
 3.9047   7.48066
 3.9018   7.56594
 3.8988   7.66018
 3.8959   7.71093
 3.8930   7.60911
 3.8901   7.44404
 3.8872   7.45403
 3.8842   7.43925
 3.8813   7.47627
 3.8784   7.46559
 3.8755   7.40096
 3.8726   7.37223
 3.8697   7.41007
 3.8669   7.60227
 3.8640   7.83139
 3.8611   7.83047
 3.8582   7.74094
 3.8554   7.87663
 3.8525   8.00089
 3.8496   8.05838
 3.8468   7.95652
 3.8439   7.85131
 3.8411   7.85941
 3.8382   7.82091
 3.8354   7.92327
 3.8326   7.94489
 3.8297   7.85750
 3.8269   7.82239
 3.8241   7.83850
 3.8213   7.87575
 3.8185   7.84265
 3.8157   7.68484
 3.8128   7.67003
 3.8100   7.69071
 3.8072   7.62249
 3.8045   7.57306
 3.8017   7.70462
 3.7989   7.76217
 3.7961   7.68328
 3.7933   7.75295
 3.7906   7.86621
 3.7878   7.80711
 3.7850   7.78542
 3.7822   7.88036
 3.7795   7.93130
 3.7767   7.91782
 3.7740   7.92471
 3.7713   7.99688
 3.7685   8.10882
 3.7658   8.14497
 3.7630   8.09737
 3.7603   8.06962
 3.7576   8.08949
 3.7549   8.19239
 3.7521   8.23877
 3.7494   8.33114
 3.7467   8.26938
 3.7440   8.29570
 3.7413   8.25601
 3.7386   8.03853
 3.7359   8.01564
 3.7332   8.13377
 3.7306   8.09045
 3.7279   8.04085
 3.7252   8.10731
 3.7225   8.14670
 3.7199   8.11611
 3.7172   8.08282
 3.7145   8.07314
 3.7119   8.01839
 3.7092   8.01512
 3.7066   8.04233
 3.7039   8.06255
 3.7013   8.16709
 3.6986   8.18938
 3.6960   8.13519
 3.6934   8.11548
 3.6907   7.95800
 3.6881   8.00278
 3.6855   8.15212
 3.6829   8.31809
 3.6803   8.16203
 3.6776   7.90741
 3.6750   7.90587
 3.6724   7.93977
 3.6698   7.91620
 3.6672   7.95479
 3.6646   7.94758
 3.6620   7.98995
 3.6595   7.85837
 3.6569   7.86050
 3.6543   7.99734
 3.6517   7.96934
 3.6492   7.93501
 3.6466   7.86308
 3.6440   7.92219
 3.6415   7.90148
 3.6389   7.86017
 3.6364   7.79730
 3.6338   7.73654
 3.6313   7.79958
 3.6287   7.78546
 3.6262   7.70453
 3.6237   7.62073
 3.6211   7.65038
 3.6186   7.59931
 3.6161   7.52589
 3.6136   7.69708
 3.6111   7.92931
 3.6085   7.94572
 3.6060   7.60904
 3.6035   7.34231
 3.6010   7.50393
 3.5985   7.72678
 3.5960   7.57351
 3.5935   7.38362
 3.5910   7.38114
 3.5886   7.37618
 3.5861   7.38457
 3.5836   7.47513
 3.5811   7.47409
 3.5787   7.56912
 3.5762   7.45985
 3.5737   7.20108
 3.5713   7.19270
 3.5688   7.22205
 3.5663   7.09275
 3.5639   6.95076
 3.5614   7.00127
 3.5590   7.07101
 3.5566   7.19606
 3.5541   7.22683
 3.5517   7.03693
 3.5493   6.99374
 3.5468   7.07145
 3.5444   7.08930
 3.5420   6.97850
 3.5396   6.87092
 3.5372   6.93645
 3.5347   6.96877
 3.5323   6.85321
 3.5299   6.79531
 3.5275   6.76251
 3.5251   6.64825
 3.5227   6.57868
 3.5203   6.59890
 3.5180   6.57638
 3.5156   6.58278
 3.5132   6.52437
 3.5108   6.42275
 3.5084   6.38629
 3.5061   6.36552
 3.5037   6.23334
 3.5013   6.22220
 3.4990   6.20474
 3.4966   6.24946
 3.4943   6.29998
 3.4919   6.13888
 3.4895   5.94519
 3.4872   5.92609
 3.4849   5.95183
 3.4825   6.04269
 3.4802   6.17838
 3.4778   6.27888
 3.4755   6.12443
 3.4732   5.97726
 3.4709   5.94574
 3.4685   5.87603
 3.4662   5.74583
 3.4639   5.90417
 3.4616   6.16622
 3.4593   6.21023
 3.4570   6.17267
 3.4547   6.11666
 3.4524   6.06519
 3.4501   6.01359
 3.4478   6.01686
 3.4455   5.99714
 3.4432   6.05872
 3.4409   6.12271
 3.4386   5.94537
 3.4364   5.82817
 3.4341   5.82113
 3.4318   5.78806
 3.4295   5.81407
 3.4273   5.76064
 3.4250   5.76943
 3.4228   5.63260
 3.4205   5.50577
 3.4182   5.61526
 3.4160   5.72361
 3.4137   5.82260
 3.4115   5.75227
 3.4093   5.65286
 3.4070   5.62676
 3.4048   5.64101
 3.4025   5.50915
 3.4003   5.50703
 3.3981   5.59547
 3.3958   5.73512
 3.3936   5.74447
 3.3914   5.83780
 3.3892   5.59945
 3.3870   5.24263
 3.3848   5.37536
 3.3826   5.59466
 3.3804   5.61063
 3.3782   5.42704
 3.3760   5.45152
 3.3738   5.51980
 3.3716   5.48506
 3.3694   5.71226
 3.3672   5.78350
 3.3650   5.71600
 3.3628   5.77474
 3.3606   5.75266
 3.3585   5.76596
 3.3563   5.67942
 3.3541   5.68768
 3.3520   5.65375
 3.3498   5.47141
 3.3476   5.51981
 3.3455   5.83056
 3.3433   5.71244
 3.3411   5.67815
 3.3390   5.69549
 3.3369   5.70747
 3.3347   5.70322
 3.3326   5.54638
 3.3304   5.50284
 3.3283   5.68928
 3.3262   5.57255
 3.3240   5.41982
 3.3219   5.46922
 3.3198   5.49431
 3.3176   5.46397
 3.3155   5.53359
 3.3134   5.55647
 3.3113   5.46413
 3.3092   5.45484
 3.3071   5.65644
 3.3049   5.50806
 3.3028   5.40957
 3.3007   5.54839
 3.2986   5.58601
 3.2965   5.46929
 3.2944   5.20718
 3.2924   5.46925
 3.2903   5.82688
 3.2882   5.56760
 3.2861   5.39541
 3.2840   5.55805
 3.2819   5.54481
 3.2799   5.42720
 3.2778   5.42194
 3.2757   5.46436
 3.2736   5.27893
 3.2716   5.07093
 3.2695   5.26310
 3.2675   5.27875
 3.2654   5.31086
 3.2634   5.45715
 3.2613   5.34894
 3.2593   5.52246
 3.2572   5.63671
 3.2552   5.56517
 3.2531   5.44607
 3.2511   5.30419
 3.2490   5.20435
 3.2470   5.29247
 3.2450   5.28176
 3.2429   5.48529
 3.2409   5.73137
 3.2389   5.46376
 3.2369   5.20203
 3.2348   5.16867
 3.2328   5.26568
 3.2308   5.41385
 3.2288   5.37214
 3.2268   5.25928
 3.2248   5.38022
 3.2228   5.51341
 3.2208   5.48495
 3.2188   5.50310
 3.2168   5.47890
 3.2148   5.47076
 3.2128   5.59146
 3.2108   5.53923
 3.2088   5.29745
 3.2068   5.04201
 3.2049   4.94921
 3.2029   5.07766
 3.2009   5.25218
 3.1989   5.23537
 3.1970   5.14579
 3.1950   5.18491
 3.1930   5.23500
 3.1911   5.22558
 3.1891   5.29521
 3.1871   5.37330
 3.1852   5.35674
 3.1832   5.10530
 3.1813   4.95796
 3.1793   5.09820
 3.1774   5.39777
 3.1754   5.23581
 3.1735   4.87534
 3.1715   4.90764
 3.1696   4.81880
 3.1677   4.83527
 3.1657   5.07605
 3.1638   4.95843
 3.1619   4.88394
 3.1599   5.08196
 3.1580   4.95447
 3.1561   5.04750
 3.1542   5.01675
 3.1523   4.80937
 3.1503   4.63908
 3.1484   4.76177
 3.1465   4.69612
 3.1446   4.76476
 3.1427   4.78848
 3.1408   4.53678
 3.1389   4.72193
 3.1370   4.93072
 3.1351   4.57706
 3.1332   4.32426
 3.1313   4.72411
 3.1294   5.10187
 3.1275   5.00422
 3.1257   4.78626
 3.1238   4.89514
 3.1219   5.17240
 3.1200   5.11800
 3.1181   4.83448
 3.1163   4.61110
 3.1144   4.63852
 3.1125   4.72479
 3.1107   4.76351
 3.1088   4.50058
 3.1069   4.38367
 3.1051   4.70560
 3.1032   5.03963
 3.1014   5.12924
 3.0995   4.71705
 3.0976   4.63653
 3.0958   4.84012
 3.0940   4.53372
 3.0921   4.07126
 3.0903   4.33206
 3.0884   4.80391
 3.0866   4.91102
 3.0848   4.62170
 3.0829   4.76364
 3.0811   4.71263
 3.0793   4.43101
 3.0774   4.08757
 3.0756   4.14014
 3.0738   4.23236
 3.0720   4.22711
 3.0701   4.17097
 3.0683   4.13898
 3.0665   4.11762
 3.0647   4.08503
 3.0629   4.09622
 3.0611   4.49471
 3.0593   4.89571
 3.0575   4.67929
 3.0557   4.18945
 3.0539   3.97766
 3.0521   4.20474
 3.0503   4.37326
 3.0485   4.62012
 3.0467   4.54935
 3.0449   4.06228
 3.0431   4.43821
 3.0413   4.63333
 3.0396   4.29684
 3.0378   4.24684
 3.0360   4.28052
 3.0342   4.00168
 3.0324   3.90776
 3.0307   3.94168
 3.0289   4.22769
 3.0271   4.55381
 3.0254   4.56874
 3.0236   4.27920
 3.0218   4.08122
 3.0201   4.11603
 3.0183   4.56036
 3.0166   4.66399
 3.0148   4.33521
 3.0130   4.08878
 3.0113   4.26294
 3.0096   4.34580
 3.0078   4.39005
 3.0061   4.36936
 3.0043   4.28251
 3.0026   4.10017
 3.0008   3.95957
 2.9991   4.17060
 2.9974   4.68611
 2.9956   4.68313
 2.9939   4.32203
 2.9922   4.11899
 2.9905   3.84523
 2.9887   3.80907
 2.9870   4.12804
 2.9853   4.11982
 2.9836   3.93975
 2.9819   3.92865
 2.9802   3.89044
 2.9784   4.13898
 2.9767   4.42334
 2.9750   4.55317
 2.9733   4.31994
 2.9716   4.43698
 2.9699   4.58072
 2.9682   4.52191
 2.9665   4.22230
 2.9648   4.13764
 2.9631   4.22406
 2.9614   4.34636
 2.9597   4.59328
 2.9581   4.62501
 2.9564   4.35880
 2.9547   4.22316
 2.9530   4.23570
 2.9513   3.90576
 2.9496   3.98623
 2.9480   3.93970
 2.9463   3.97700
 2.9446   3.71443
 2.9429   3.51673
 2.9413   3.99054
 2.9396   4.38736
 2.9379   4.08977
 2.9363   4.01639
 2.9346   4.22715
 2.9330   4.04211
 2.9313   3.82426
 2.9296   3.88548
 2.9280   3.80023
 2.9263   3.55383
 2.9247   3.85017
 2.9230   4.21621
 2.9214   4.37246
 2.9197   4.44436
 2.9181   4.49943
 2.9165   4.66096
 2.9148   4.26320
 2.9132   3.94206
 2.9116   4.05267
 2.9099   4.22614
 2.9083   4.44259
 2.9067   4.41554
 2.9050   4.44237
 2.9034   4.39816
 2.9018   4.39096
 2.9002   3.97089
 2.8985   3.78221
 2.8969   4.22227
 2.8953   4.15121
 2.8937   4.03932
 2.8921   4.28529
 2.8905   4.09860
 2.8888   4.18926
 2.8872   4.28169
 2.8856   4.22795
 2.8840   4.23502
 2.8824   4.06696
 2.8808   4.07149
 2.8792   4.17637
 2.8776   4.10915
 2.8760   3.95078
 2.8744   3.83938
 2.8728   3.93097
 2.8712   4.04840
 2.8697   4.33918
 2.8681   4.45422
 2.8665   4.29343
 2.8649   4.43565
 2.8633   4.17299
 2.8617   4.11458
 2.8602   4.28818
 2.8586   4.20103
 2.8570   4.26164
 2.8554   4.29315
 2.8539   3.95493
 2.8523   4.09811
 2.8507   4.44971
 2.8492   4.55101
 2.8476   4.57206
 2.8460   4.65882
 2.8445   4.40232
 2.8429   4.29404
 2.8413   4.21402
 2.8398   4.07051
 2.8382   4.22930
 2.8367   4.58214
 2.8351   4.32139
 2.8336   4.08508
 2.8320   4.02572
 2.8305   4.08087
 2.8289   4.26960
 2.8274   4.05305
 2.8259   4.24501
 2.8243   4.40649
 2.8228   4.31154
 2.8213   4.20036
 2.8197   4.33230
 2.8182   4.68771
 2.8167   4.02143
 2.8151   3.28080
 2.8136   3.76034
 2.8121   4.61792
 2.8106   4.50689
 2.8090   3.85298
 2.8075   3.61433
 2.8060   4.05667
 2.8045   4.29077
 2.8030   3.90724
 2.8014   3.77030
 2.7999   3.99642
 2.7984   4.19299
 2.7969   4.17778
 2.7954   4.32470
 2.7939   4.23530
 2.7924   4.29967
 2.7909   4.69630
 2.7894   4.48066
 2.7879   3.92639
 2.7864   4.17864
 2.7849   4.27613
 2.7834   4.21224
 2.7819   4.60221
 2.7804   4.23171
 2.7789   3.90668
 2.7774   3.86227
 2.7759   4.16801
 2.7745   4.25462
 2.7730   4.25417
 2.7715   3.98357
 2.7700   3.59819
 2.7685   3.82836
 2.7671   4.20613
 2.7656   4.09972
 2.7641   3.69356
 2.7626   3.81507
 2.7612   4.07904
 2.7597   4.13462
 2.7582   4.21967
 2.7568   4.41576
 2.7553   4.21088
 2.7538   4.02264
 2.7524   3.78401
 2.7509   4.11467
 2.7494   4.18621
 2.7480   3.66678
 2.7465   3.52828
 2.7451   3.85312
 2.7436   3.80380
 2.7422   3.81608
 2.7407   3.67848
 2.7393   3.72533
 2.7378   4.12293
 2.7364   4.15908
 2.7350   4.20466
 2.7335   4.37393
 2.7321   4.37200
 2.7306   4.34307
 2.7292   4.08743
 2.7278   4.19692
 2.7263   4.23942
 2.7249   4.33443
 2.7235   4.58171
 2.7220   5.02029
 2.7206   5.38832
 2.7192   5.36520
 2.7178   5.26949
 2.7163   5.51644
 2.7149   5.69017
 2.7135   5.73977
 2.7121   5.82931
 2.7106   6.07932
 2.7092   6.43287
 2.7078   6.34548
 2.7064   6.40738
 2.7050   6.81470
 2.7036   6.66159
 2.7022   6.74514
 2.7008   6.92645
 2.6994   7.05344
 2.6980   7.18100
 2.6965   7.38057
 2.6951   7.72045
 2.6938   8.11972
 2.6923   8.24254
 2.6910   8.27271
 2.6896   8.27375
 2.6882   8.23278
 2.6868   8.29292
 2.6854   8.48641
 2.6840   8.70555
 2.6826   8.64282
 2.6812   8.43879
 2.6798   8.54859
 2.6784   8.66409
 2.6771   8.66388
 2.6757   8.96609
 2.6743   9.30256
 2.6729   9.33618
 2.6715   9.20477
 2.6702   9.08056
 2.6688   9.10190
 2.6674   9.10815
 2.6660   9.22934
 2.6647   9.38840
 2.6633   9.02635
 2.6619   9.13254
 2.6606   9.38314
 2.6592   9.40139
 2.6578   9.29342
 2.6565   9.28308
 2.6551   9.31055
 2.6538   9.23842
 2.6524   9.02483
 2.6511   9.23654
 2.6497   9.15663
 2.6484   9.14911
 2.6470   9.33735
 2.6456   9.74952
 2.6443   9.86530
 2.6429   9.87301
 2.6416   9.98210
 2.6403   9.80787
 2.6389   9.65419
 2.6376   9.61494
 2.6362   9.47800
 2.6349   9.38099
 2.6336   8.96405
 2.6322   8.84404
 2.6309   9.06933
 2.6296   9.56166
 2.6282  10.12830
 2.6269  10.16580
 2.6256   9.68529
 2.6242   9.53199
 2.6229   9.39991
 2.6216   8.89744
 2.6203   8.66807
 2.6189   8.89775
 2.6176   9.41050
 2.6163   9.72173
 2.6150   9.71440
 2.6136   9.75864
 2.6123   9.55337
 2.6110   9.86511
 2.6097   9.76477
 2.6084   9.42348
 2.6071   9.10378
 2.6058   9.10898
 2.6044   9.69616
 2.6031   9.62630
 2.6018   9.32881
 2.6005   9.37999
 2.5992   9.55945
 2.5979   9.60858
 2.5966   9.65512
 2.5953  10.04710
 2.5940   9.63325
 2.5927   9.44929
 2.5914   9.68386
 2.5901   9.86717
 2.5888  10.05170
 2.5876  10.02760
 2.5863   9.74991
 2.5850   9.69557
 2.5837   9.73425
 2.5824   9.79805
 2.5811   9.96630
 2.5798   9.67757
 2.5785   9.63753
 2.5773   9.64650
 2.5760   9.45084
 2.5747   9.35818
 2.5734   9.52256
 2.5722   9.43826
 2.5709   9.81294
 2.5696  10.24640
 2.5683   9.77736
 2.5671   9.91627
 2.5658   9.92931
 2.5645   9.94225
 2.5633  10.02890
 2.5620   9.95954
 2.5607   9.76204
 2.5595   9.61587
 2.5582   9.88297
 2.5569   9.73386
 2.5557   9.35341
 2.5544   9.35518
 2.5532   9.49163
 2.5519   9.69141
 2.5507  10.05810
 2.5494  10.19340
 2.5481   9.70248
 2.5469   9.37452
 2.5456   9.75952
 2.5444   9.69774
 2.5431   9.85174
 2.5419  10.12280
 2.5406  10.15650
 2.5394   9.89620
 2.5382   9.37254
 2.5369   9.16765
 2.5357   9.75023
 2.5344  10.26360
 2.5332   9.96427
 2.5320   9.86890
 2.5307   9.82600
 2.5295   9.54715
 2.5283   9.42549
 2.5270   9.35213
 2.5258   9.65496
 2.5246  10.36410
 2.5233  10.37840
 2.5221   9.38622
 2.5209   8.99879
 2.5197   9.54517
 2.5184   9.78595
 2.5172   9.48096
 2.5160   9.61390
 2.5148   9.81322
 2.5136   9.45152
 2.5123   9.43700
 2.5111   9.68224
 2.5099   9.58028
 2.5087   9.60828
 2.5075   9.83674
 2.5063   9.79408
 2.5051   9.81456
 2.5038   9.86531
 2.5026   9.86900
 2.5014   9.75194
 2.5002   9.71320
 2.4990   9.77833
 2.4978  10.19870
 2.4966  10.52800
 2.4954  10.04450
 2.4942   9.45036
 2.4930   9.31027
 2.4918   9.55849
 2.4906   9.53276
 2.4894   9.30927
 2.4882   9.65319
 2.4870  10.27460
 2.4858  10.33430
 2.4846   9.67872
 2.4835   9.64373
 2.4823  10.12040
 2.4811   9.97801
 2.4799   9.68635
 2.4787   9.61323
 2.4775   9.66081
 2.4764   9.50498
 2.4752   9.09930
 2.4740   9.09755
 2.4728   9.48227
 2.4716   9.82434
 2.4705   9.76066
 2.4693   9.56887
 2.4681   9.52773
 2.4669   9.81291
 2.4657  10.06230
 2.4646   9.81626
 2.4634   9.54465
 2.4622   9.48804
 2.4611   9.63988
 2.4599   9.67225
 2.4587   9.60179
 2.4576   9.97832
 2.4564   9.56998
 2.4552   9.71616
 2.4541  10.16010
 2.4529  10.33360
 2.4518   9.81902
 2.4506   9.44724
 2.4494   9.60465
 2.4483  10.00980
 2.4471  10.15430
 2.4460   9.95524
 2.4448  10.04460
 2.4437  10.06310
 2.4425  10.11870
 2.4414   9.47702
 2.4402   9.76769
 2.4391  10.22470
 2.4379   9.82212
 2.4368   9.40949
 2.4356   9.17925
 2.4345   9.37752
 2.4333   9.60336
 2.4322   9.52907
 2.4311   9.86799
 2.4299  10.35010
 2.4288  10.11160
 2.4276   9.38629
 2.4265   9.40056
 2.4254   9.64828
 2.4242   9.82418
 2.4231   9.83414
 2.4220   9.73980
 2.4209   9.44448
 2.4197   9.93958
 2.4186  10.18210
 2.4175  10.21670
 2.4163  10.35380
 2.4152  10.14170
 2.4141  10.26630
 2.4130  10.19020
 2.4118   9.89664
 2.4107   9.68830
 2.4096  10.29820
 2.4085  10.34960
 2.4074  10.15460
 2.4063  10.39740
 2.4051   9.93207
 2.4040   9.66786
 2.4029   9.42121
 2.4018   9.64260
 2.4007   9.88384
 2.3996   9.87511
 2.3985  10.07120
 2.3973  10.49410
 2.3962  10.63630
 2.3951  10.62230
 2.3940  10.44450
 2.3929  10.54740
 2.3918  10.61000
 2.3907  10.48670
 2.3896   9.85300
 2.3885   9.45005
 2.3874   9.56872
 2.3863   9.92856
 2.3852   9.86887
 2.3841   9.93609
 2.3830  10.22300
 2.3819  10.08030
 2.3808  10.36310
 2.3798  10.73520
 2.3786  10.45530
 2.3776   9.70454
 2.3765   9.58074
 2.3754   9.86078
 2.3743  10.02620
 2.3732  10.34240
 2.3721  10.05180
 2.3710   9.77342
 2.3700  10.16000
 2.3689  10.56860
 2.3678  10.39680
 2.3667  10.10320
 2.3656  10.18990
 2.3645  10.60940
 2.3635  10.60970
 2.3624  10.61410
 2.3613  10.35820
 2.3603  10.06580
 2.3592   9.78461
 2.3581   9.48437
 2.3570   9.58275
 2.3560   9.69412
 2.3549  10.08750
 2.3538  10.04350
 2.3527   9.65977
 2.3517  10.22560
 2.3506  10.23440
 2.3495  10.15420
 2.3485  10.22690
 2.3474   9.90191
 2.3464   9.53916
 2.3453   9.41948
 2.3442   9.71784
 2.3432  10.46240
 2.3421  10.58040
 2.3411   9.94934
 2.3400  10.33860
 2.3390   9.80567
 2.3379   9.23411
 2.3369   9.46106
 2.3358  10.05260
 2.3347  10.60550
 2.3337  10.67530
 2.3326  10.71650
 2.3316  10.44010
 2.3306  10.69990
 2.3295  10.77950
 2.3285  10.30300
 2.3274   9.46169
 2.3264   9.17583
 2.3253   9.31935
 2.3243   9.76451
 2.3232  10.14570
 2.3222   9.88144
 2.3212   9.50603
 2.3201   9.43678
 2.3191   9.62620
 2.3180  10.08940
 2.3170  10.65820
 2.3160  10.40400
 2.3149  10.21160
 2.3139  10.90110
 2.3129  11.42360
 2.3118  11.42220
 2.3108  10.88310
 2.3098  10.82790
 2.3088  10.89060
 2.3077  10.39880
 2.3067   9.81476
 2.3057  10.32600
 2.3047  10.75160
 2.3036  10.27610
 2.3026  10.13300
 2.3016  10.45290
 2.3006  10.90670
 2.2995  10.73600
 2.2985  10.92070
 2.2975  11.19270
 2.2965  10.99210
 2.2955  10.88830
 2.2944  10.79100
 2.2934  10.04880
 2.2924   9.51635
 2.2914  10.31820
 2.2904  10.91070
 2.2894  10.44050
 2.2884   9.88605
 2.2874   9.76530
 2.2864  10.19010
 2.2854  10.55650
 2.2843  10.49940
 2.2833  10.72180
 2.2823  10.82980
 2.2813  10.97960
 2.2803  11.79810
 2.2793  11.64020
 2.2783  10.15610
 2.2773   9.48624
 2.2763   9.54858
 2.2753  10.09810
 2.2743  10.27190
 2.2733  10.09960
 2.2723  10.48620
 2.2713  10.84670
 2.2703  10.91690
 2.2694  10.58630
 2.2684  10.38560
 2.2674  10.61780
 2.2664  10.44680
 2.2654  10.20320
 2.2644  10.40860
 2.2634  10.92150
 2.2624  10.46010
 2.2614  10.47460
 2.2605  11.02430
 2.2595  10.90770
 2.2585  10.29310
 2.2575  10.22690
 2.2565  10.44140
 2.2555  10.59380
 2.2546  10.16100
 2.2536   9.80722
 2.2526  10.02350
 2.2516  10.46850
 2.2506  10.95500
 2.2497  10.89020
 2.2487  10.16740
 2.2477   9.69195
 2.2467   9.63948
 2.2458   9.65825
 2.2448  10.18340
 2.2438  10.53110
 2.2428  10.23260
 2.2419  10.12030
 2.2409  10.60310
 2.2399  10.89840
 2.2390  10.74960
 2.2380  10.42050
 2.2370  10.42530
 2.2361  10.62920
 2.2351  10.72740
 2.2342  10.75320
 2.2332  10.16770
 2.2322   9.76501
 2.2313   9.56551
 2.2303   9.40859
 2.2294   9.65191
 2.2284  10.33310
 2.2274  10.09550
 2.2265  10.37080
 2.2255  10.39600
 2.2246  10.41790
 2.2236  10.36820
 2.2227  10.75940
 2.2217  10.57500
 2.2208   9.77767
 2.2198   9.94117
 2.2189  10.27320
 2.2179  10.39010
 2.2170  10.05110
 2.2160  10.27640
 2.2151  10.46230
 2.2141  10.39170
 2.2132  10.54820
 2.2122  10.73160
 2.2113  10.56230
 2.2103   9.66301
 2.2094   9.41777
 2.2085   9.58560
 2.2075   9.41078
 2.2066   9.24595
 2.2056   9.35839
 2.2047   9.71014
 2.2038  10.27100
 2.2028  10.69350
 2.2019  10.17130
 2.2010  10.30940
 2.2000  10.36720
 2.1991  10.08510
 2.1982   9.62118
 2.1972  10.51600
 2.1963  11.12800
 2.1954  10.63150
 2.1944  10.74400
 2.1935  10.70410
 2.1926  10.51630
 2.1917  10.93180
 2.1907  11.20790
 2.1898  10.94260
 2.1889  10.83220
 2.1880  11.12420
 2.1870  11.07060
 2.1861  10.60810
 2.1852  10.58220
 2.1843  11.02390
 2.1833  11.13480
 2.1824  10.92040
 2.1815  11.00760
 2.1806  11.59270
 2.1797  11.36440
 2.1788  10.81630
 2.1778  10.25650
 2.1769  10.57900
 2.1760  11.92910
 2.1751  11.87190
 2.1742  10.55050
 2.1733  10.24840
 2.1724  11.18640
 2.1715  11.17880
 2.1706  10.69070
 2.1696  10.32270
 2.1687   9.70420
 2.1678  10.28180
 2.1669  11.03730
 2.1660  11.42010
 2.1651  11.64950
 2.1642  11.23800
 2.1633  10.94150
 2.1624  11.07060
 2.1615  10.66570
 2.1606  10.63820
 2.1597  11.09200
 2.1588  11.06230
 2.1579  10.37600
 2.1570  10.39210
 2.1561  10.90280
 2.1552  10.72870
 2.1543  10.33990
 2.1534  10.41130
 2.1525  10.77010
 2.1517  11.05740
 2.1507  10.84760
 2.1499  10.70510
 2.1490  10.38130
 2.1481  10.30380
 2.1472  10.42170
 2.1463  10.49460
 2.1454  10.27190
 2.1445  10.99340
 2.1436  12.21070
 2.1428  12.01830
 2.1419  11.29880
 2.1410  10.25250
 2.1401  10.23250
 2.1392  11.89040
 2.1383  12.30600
 2.1375  10.83860
 2.1366  10.14310
 2.1357  10.47950
 2.1348  10.65550
 2.1339  10.56030
 2.1331  11.19020
 2.1322  11.58560
 2.1313  11.03150
 2.1304  10.19310
 2.1296  10.53430
 2.1287  11.08460
 2.1278  10.78110
 2.1269  10.30200
 2.1261   9.46385
 2.1252   9.86282
 2.1243   9.51702
 2.1235   9.89673
 2.1226  11.44550
 2.1217  11.22750
 2.1208  10.62510
 2.1200  10.46930
 2.1191  10.57830
 2.1183  10.31070
 2.1174  10.68780
 2.1165  12.02690
 2.1157  12.54820
 2.1148  11.90990
 2.1139  10.82480
 2.1131  10.75430
 2.1122  10.87210
 2.1113  11.39410
 2.1105  11.09440
 2.1096  10.99750
 2.1088  10.61470
 2.1079  10.30990
 2.1071  10.36350
 2.1062   9.94034
 2.1054  10.14380
 2.1045  11.00740
 2.1036  11.60850
 2.1028  11.56840
 2.1019  11.34320
 2.1011  10.97600
 2.1002  10.31400
 2.0994  10.31780
 2.0985  10.93470
 2.0977  10.88160
 2.0968  10.00160
 2.0960   9.29649
 2.0951  10.39670
 2.0943  12.08700
 2.0934  12.01840
 2.0926  10.52710
 2.0918  10.03670
 2.0909  10.40530
 2.0901  10.27890
 2.0892  10.42450
 2.0884  10.53640
 2.0875  10.16600
 2.0867  10.99950
 2.0859  12.22240
 2.0850  11.53460
 2.0842  10.58940
 2.0833   9.98498
 2.0825  10.19360
 2.0817  10.51070
 2.0808   9.68838
 2.0800   8.47297
 2.0792   9.95548
 2.0783  10.92850
 2.0775  10.61910
 2.0767  11.01150
 2.0759  11.48710
 2.0750  12.27900
 2.0742  12.02420
 2.0734  10.63610
 2.0725   9.42760
 2.0717   9.53893
 2.0709  10.52150
 2.0701  11.26040
 2.0692  10.94430
 2.0684  10.81450
 2.0676  11.71310
 2.0667  11.89640
 2.0659  11.07670
 2.0651  11.38540
 2.0643  10.98180
 2.0635  10.16250
 2.0626  11.65650
 2.0618  11.92170
 2.0610  11.29760
 2.0602  11.77710
 2.0594  12.53140
 2.0585  11.51030
 2.0577  10.33960
 2.0569  11.00580
 2.0561  12.19310
 2.0553   9.65969
 2.0545   6.29012
 2.0537   9.16389
 2.0528  12.88380
 2.0520  11.14100
 2.0512   9.88725
 2.0504  11.31730
 2.0496  12.25940
 2.0488  12.00870
 2.0480  11.47540
 2.0472  11.23160
 2.0464  12.76810
 2.0456  11.85240
 2.0447  10.94870
 2.0439  10.88670
 2.0431  10.79550
 2.0423  10.80910
 2.0415  10.65700
 2.0407  10.71750
 2.0399   9.73788
 2.0391   8.52748
 2.0383   9.40171
 2.0375  10.05860
 2.0367  11.24370
 2.0359  12.44470
 2.0351  11.68880
 2.0343  11.77850
 2.0335  12.54620
 2.0327  11.93810
 2.0319  11.36890
 2.0311  11.32390
 2.0303  10.95340
 2.0295  11.52230
 2.0287  11.25490
 2.0280   8.70606
 2.0272   8.82307
 2.0264  12.85650
 2.0256  12.18820
 2.0248   9.66945
 2.0240  10.02710
 2.0232  10.04430
 2.0224   8.98442
 2.0216   9.64252
 2.0208  11.64660
 2.0200  11.99630
 2.0193  11.14560
 2.0185  11.22760
 2.0177  11.05370
 2.0169  10.63950
 2.0161  11.26210
 2.0153  10.78500
 2.0146   9.59014
 2.0138   9.59854
 2.0130  10.81310
 2.0122  11.20980
 2.0114  12.12470
 2.0107  12.15170
 2.0099  12.40300
 2.0091  11.54270
 2.0083  10.09180
 2.0075  10.27580
 2.0068  10.33660
 2.0060  10.27530
 2.0052  12.67600
 2.0044  14.16410
 2.0037  12.04100
 2.0029  10.25560
 2.0021  10.59310
 2.0013  11.59720
 2.0006  11.98190
 1.9998  10.86980
