Name: Kernite Na_2B_4O_6(OH)_2.3H_2O
Type: Mineral
Class: Borates
Subclass: 
Particle Size: 45-125um
Sample No.: B-2A
Owner: JPL
Wavelength range: IR
Origin: USA, California, Kern County, Boron
Collected by JPL
Description: 





Measurement: Hemispherical reflectance
First Column: X
Second Column: Y
X Units:  Wavelength (micrometers)
Y Units:  Reflectance (percent)
First X Value: 15.3853
Last X Value: 2.00032
Number of X Values: 2256
Additional information: b02aa.txt
 
15.3853	4.45004
15.3397	4.15514
15.2945	4.05245
15.2495	4.25436
15.2048	4.32708
15.1603	4.15984
15.1161	3.93203
15.0722	3.88754
15.0285	3.80559
14.9851	3.97823
14.9419	4.04492
14.8989	4.30527
14.8563	4.5094
14.8138	4.61361
14.7716	4.73029
14.7296	4.76192
14.6879	4.96693
14.6464	5.31137
14.6052	5.41611
14.5641	5.26493
14.5233	5.2143
14.4828	5.07404
14.4424	4.63244
14.4023	4.25
14.3624	4.16307
14.3227	3.99109
14.2833	3.81883
14.244	3.69507
14.205	3.60549
14.1662	3.5005
14.1276	3.61836
14.0892	3.91046
14.051	4.16841
14.0131	4.21473
13.9753	4.20236
13.9377	4.35151
13.9004	4.50633
13.8632	4.58155
13.8262	4.59093
13.7895	4.40396
13.7529	4.03584
13.7165	3.91148
13.6803	3.7735
13.6443	3.6599
13.6085	3.61078
13.5729	3.72468
13.5374	3.74566
13.5022	3.77704
13.4671	3.91141
13.4322	3.99032
13.3975	4.04239
13.363	3.91609
13.3286	3.78752
13.2944	3.66004
13.2604	3.8232
13.2266	4.00132
13.193	3.98827
13.1595	3.92088
13.1262	3.91649
13.093	3.91001
13.06	3.71044
13.0272	3.57578
12.9946	3.69179
12.9621	3.75992
12.9298	3.70941
12.8976	3.68115
12.8656	3.71595
12.8337	3.93169
12.8021	4.13435
12.7705	4.19721
12.7391	4.02904
12.7079	3.90958
12.6769	4.11744
12.6459	4.48855
12.6152	4.53063
12.5845	4.48463
12.5541	4.54651
12.5238	4.57594
12.4936	4.49297
12.4635	4.35326
12.4337	4.26983
12.4039	4.28035
12.3743	4.41028
12.3448	4.37032
12.3155	4.44883
12.2863	4.63861
12.2573	4.73163
12.2284	4.81972
12.1996	4.89099
12.171	4.93463
12.1425	4.86678
12.1141	4.90651
12.0859	4.94614
12.0578	4.9375
12.0298	4.84228
12.0019	4.7526
11.9742	4.62324
11.9466	4.65313
11.9192	4.71192
11.8918	4.6311
11.8646	4.65329
11.8375	4.64474
11.8106	4.54178
11.7837	4.54715
11.757	4.69448
11.7304	4.75725
11.7039	4.72491
11.6776	4.64973
11.6513	4.46522
11.6252	4.35901
11.5992	4.39049
11.5733	4.40933
11.5475	4.30524
11.5219	4.21497
11.4963	4.27632
11.4709	4.29401
11.4455	4.13329
11.4203	3.8925
11.3952	3.78626
11.3702	3.85238
11.3454	3.90819
11.3206	3.86505
11.2959	3.74645
11.2714	3.71685
11.2469	3.72975
11.2226	3.88482
11.1983	4.13171
11.1742	4.29518
11.1502	4.29154
11.1263	4.40299
11.1024	4.68207
11.0787	4.8404
11.0551	5.02595
11.0316	5.4545
11.0081	5.6757
10.9848	5.81777
10.9616	6.03372
10.9385	6.18224
10.9154	6.28874
10.8925	6.37209
10.8697	6.40117
10.8469	6.3819
10.8243	6.45565
10.8017	6.50253
10.7793	6.476
10.7569	6.54727
10.7346	6.61996
10.7125	6.63257
10.6904	6.71236
10.6684	6.84609
10.6465	6.95881
10.6247	7.06331
10.6029	7.26584
10.5813	7.5373
10.5597	7.7027
10.5383	7.94178
10.5169	8.14531
10.4956	8.26979
10.4744	8.3332
10.4533	8.38663
10.4323	8.33636
10.4113	7.94093
10.3904	7.596
10.3697	7.3465
10.349	7.16048
10.3284	7.32438
10.3078	7.87523
10.2874	8.46391
10.267	9.00219
10.2467	9.23971
10.2265	9.21057
10.2064	9.19609
10.1863	9.1908
10.1663	9.18116
10.1464	9.21174
10.1266	9.26784
10.1069	9.27515
10.0872	9.28012
10.0676	8.96701
10.0481	8.25687
10.0287	7.63743
10.0093	7.20718
9.99005	7.11733
9.97084	7.3876
9.95169	7.76144
9.93263	8.36614
9.91364	9.13218
9.89472	9.83355
9.87587	10.5508
9.8571	11.3088
9.83839	11.9197
9.81976	12.3329
9.80119	12.608
9.78271	12.724
9.76428	12.6548
9.74592	12.5078
9.72764	12.5537
9.70943	12.8778
9.69128	13.2895
9.6732	13.5847
9.65518	13.7947
9.63724	13.9283
9.61935	14.0724
9.60155	14.1586
9.5838	14.1447
9.56611	14.0194
9.5485	13.7528
9.53094	13.5726
9.51345	13.2713
9.49604	12.7935
9.47867	12.4014
9.46137	11.8687
9.44414	11.2135
9.42697	10.5914
9.40986	10.2055
9.39281	9.79777
9.37583	9.1371
9.35891	8.54033
9.34204	8.04587
9.32524	7.43955
9.3085	6.96278
9.29182	6.53523
9.27519	6.05486
9.25863	5.70947
9.24213	5.25372
9.22568	4.77513
9.2093	4.6084
9.19297	4.41875
9.17669	4.15971
9.16048	3.947
9.14433	3.76461
9.12823	3.62758
9.11218	3.43414
9.0962	3.25113
9.08027	3.14235
9.06439	3.09439
9.04858	2.93085
9.03281	2.7768
9.0171	2.5629
9.00145	2.29013
8.98585	2.13579
8.9703	2.00772
8.9548	1.82554
8.93937	1.63858
8.92398	1.54932
8.90865	1.44691
8.89337	1.32772
8.87814	1.21565
8.86296	1.18836
8.84784	1.23834
8.83277	1.19166
8.81774	1.11211
8.80277	1.16263
8.78786	1.36153
8.77298	1.30804
8.75816	1.06081
8.7434	1.03887
8.72868	1.13331
8.714	1.29766
8.69938	1.40143
8.68481	1.39765
8.67029	1.43302
8.65581	1.38363
8.64139	1.25383
8.62701	1.27928
8.61268	1.3293
8.5984	1.31475
8.58416	1.28218
8.56997	1.26629
8.55583	1.29228
8.54174	1.42844
8.52769	1.40313
8.51368	1.28309
8.49973	1.33933
8.48582	1.4221
8.47195	1.60732
8.45813	1.67281
8.44436	1.52677
8.43062	1.44227
8.41693	1.47777
8.4033	1.57924
8.3897	1.56468
8.37614	1.63794
8.36264	1.79841
8.34917	1.862
8.33574	1.89478
8.32236	1.93817
8.30903	1.94456
8.29573	2.01107
8.28248	2.22556
8.26927	2.3522
8.2561	2.3472
8.24298	2.32752
8.2299	2.40399
8.21685	2.47614
8.20385	2.5479
8.19089	2.65155
8.17797	2.70494
8.16509	2.85768
8.15225	2.91271
8.13946	2.91689
8.1267	2.99652
8.11398	3.13328
8.10131	3.11823
8.08867	3.10985
8.07606	3.16851
8.0635	3.2524
8.05099	3.31872
8.0385	3.34339
8.02606	3.47988
8.01366	3.59841
8.00129	3.62676
7.98896	3.68041
7.97667	3.70227
7.96442	3.66976
7.9522	3.75838
7.94002	3.8069
7.92788	3.83309
7.91578	3.87635
7.90371	3.85829
7.89168	3.86003
7.87969	3.97295
7.86773	4.12922
7.85581	4.22011
7.84392	4.19166
7.83207	4.10753
7.82026	4.11188
7.80849	4.20971
7.79674	4.22546
7.78503	4.22906
7.77337	4.28683
7.76173	4.31971
7.75012	4.24603
7.73856	4.22327
7.72703	4.2702
7.71553	4.29862
7.70406	4.27527
7.69263	4.24505
7.68123	4.25816
7.66987	4.31814
7.65855	4.28655
7.64725	4.27605
7.63598	4.27194
7.62475	4.16876
7.61356	4.23243
7.60239	4.30894
7.59126	4.20882
7.58017	4.23734
7.5691	4.31316
7.55806	4.40199
7.54707	4.69373
7.5361	5.05945
7.52516	5.4514
7.51425	5.81784
7.50338	5.95497
7.49253	6.03983
7.48172	6.10618
7.47094	6.18786
7.46019	6.23116
7.44947	6.28309
7.43879	6.24133
7.42813	6.16511
7.4175	6.24908
7.4069	6.5111
7.39634	6.65646
7.3858	6.80559
7.37529	7.09605
7.36482	7.31272
7.35437	7.514
7.34396	7.70195
7.33357	7.72597
7.32321	7.6488
7.31288	7.76485
7.30258	8.02299
7.29231	8.24044
7.28207	8.57891
7.27185	8.97249
7.26167	9.22876
7.25152	9.51609
7.24139	9.82152
7.23129	10.005
7.22122	10.144
7.21117	10.3834
7.20116	10.4659
7.19117	10.4382
7.18121	10.352
7.17128	10.243
7.16137	10.0199
7.1515	9.91901
7.14164	9.77074
7.13182	9.69272
7.12203	9.6725
7.11225	9.53992
7.10251	9.36328
7.0928	9.27772
7.08311	9.18262
7.07344	8.97616
7.06381	8.70971
7.0542	8.42248
7.04461	7.96377
7.03506	7.4578
7.02552	7.06982
7.01601	6.8219
7.00653	6.57709
6.99708	6.38833
6.98765	6.1652
6.97824	5.87029
6.96886	5.62616
6.95951	5.32158
6.95018	4.90496
6.94087	4.48971
6.9316	3.97972
6.92234	3.51741
6.91311	3.23873
6.90391	2.91408
6.89473	2.49664
6.88557	2.23239
6.87644	2.08567
6.86733	2.03023
6.85824	1.96147
6.84918	1.75504
6.84015	1.69663
6.83114	1.78112
6.82215	1.72346
6.81319	1.64552
6.80424	1.59632
6.79532	1.58409
6.78643	1.53726
6.77756	1.48341
6.76871	1.38882
6.75989	1.32749
6.75109	1.25831
6.74231	1.27229
6.73355	1.30623
6.72482	1.24051
6.71611	1.22049
6.70742	1.22467
6.69875	1.10112
6.69011	1.00072
6.68149	1.00788
6.67289	1.03738
6.66431	1.04471
6.65576	1.04124
6.64722	1.05093
6.63871	1.11342
6.63022	1.05113
6.62175	0.991303
6.61331	0.985952
6.60488	0.924614
6.59648	0.974782
6.5881	1.00462
6.57974	0.955665
6.5714	1.02063
6.56308	0.98469
6.55478	0.964429
6.54651	1.04198
6.53825	1.08038
6.53001	1.12398
6.5218	1.14427
6.51361	1.16741
6.50544	1.14721
6.49729	1.09315
6.48915	1.08088
6.48104	1.18705
6.47295	1.27681
6.46488	1.3125
6.45683	1.26303
6.4488	1.2363
6.44079	1.31291
6.4328	1.34619
6.42482	1.34206
6.41687	1.42454
6.40894	1.48425
6.40103	1.45534
6.39314	1.37071
6.38526	1.37328
6.37741	1.48527
6.36957	1.47409
6.36176	1.43883
6.35396	1.50831
6.34618	1.54637
6.33843	1.45438
6.33069	1.42683
6.32297	1.47102
6.31527	1.47283
6.30758	1.52777
6.29992	1.56102
6.29227	1.65199
6.28465	1.68194
6.27704	1.58605
6.26945	1.59303
6.26188	1.68156
6.25432	1.64444
6.24679	1.65025
6.23927	1.714
6.23177	1.69516
6.22429	1.65167
6.21683	1.66934
6.20938	1.69307
6.20195	1.69675
6.19454	1.72486
6.18715	1.83341
6.17978	1.83798
6.17242	1.73854
6.16508	1.80946
6.15776	1.88091
6.15045	1.93286
6.14317	1.91508
6.1359	1.82349
6.12864	1.73295
6.12141	1.82309
6.11419	1.93671
6.10699	1.9406
6.0998	1.90196
6.09263	1.88725
6.08549	1.96622
6.07835	1.98095
6.07123	2.06452
6.06413	2.07605
6.05705	2.09553
6.04998	2.17378
6.04293	2.07661
6.0359	2.02318
6.02888	2.02498
6.02187	2.0093
6.01489	2.0169
6.00792	1.98156
6.00096	1.93551
5.99403	1.97898
5.98711	2.09224
5.9802	2.07622
5.97331	2.12102
5.96644	2.21253
5.95958	2.1674
5.95274	2.17545
5.94591	2.21815
5.9391	2.23578
5.9323	2.17272
5.92552	2.14172
5.91876	2.07377
5.91201	1.97497
5.90528	2.04493
5.89856	2.17073
5.89186	2.13623
5.88517	2.13414
5.8785	2.06029
5.87184	1.88567
5.8652	1.82989
5.85857	1.96368
5.85196	2.12555
5.84536	2.2307
5.83878	2.20543
5.83221	2.15594
5.82566	2.20787
5.81912	2.32075
5.81259	2.35589
5.80608	2.33995
5.79959	2.42019
5.79311	2.66435
5.78665	2.75589
5.78019	2.77764
5.77376	2.91224
5.76734	3.16676
5.76093	3.17788
5.75453	3.14405
5.74815	3.29212
5.74179	3.39094
5.73543	3.37848
5.7291	3.41492
5.72277	3.51223
5.71646	3.73918
5.71017	3.89975
5.70389	3.91314
5.69762	3.99945
5.69136	4.07583
5.68513	4.23501
5.6789	4.41124
5.67268	4.43045
5.66648	4.42007
5.6603	4.61763
5.65413	4.83222
5.64797	5.02336
5.64182	5.15032
5.63569	5.14108
5.62957	5.25421
5.62347	5.42508
5.61737	5.53958
5.61129	5.64676
5.60522	5.73347
5.59917	5.86471
5.59313	5.85237
5.5871	5.94981
5.58109	6.19436
5.57509	6.26928
5.5691	6.23878
5.56312	6.35641
5.55716	6.50336
5.55121	6.58917
5.54528	6.66447
5.53935	6.72541
5.53344	6.83022
5.52754	6.93652
5.52166	7.01236
5.51578	7.0416
5.50992	7.1566
5.50407	7.30976
5.49823	7.38376
5.49241	7.50906
5.4866	7.58644
5.4808	7.71746
5.47501	7.85199
5.46923	7.97247
5.46347	8.0509
5.45772	8.05616
5.45198	8.10875
5.44625	8.19231
5.44054	8.27915
5.43484	8.32663
5.42914	8.48928
5.42347	8.76076
5.4178	8.84128
5.41214	8.83735
5.4065	8.89752
5.40087	8.93598
5.39525	8.96236
5.38964	8.99424
5.38404	9.09496
5.37846	9.20957
5.37288	9.24635
5.36732	9.3352
5.36177	9.47727
5.35623	9.62929
5.35071	9.72251
5.34519	9.77006
5.33968	9.83304
5.33419	9.83998
5.32871	9.91815
5.32324	10.0126
5.31778	10.0357
5.31233	10.0853
5.30689	10.2133
5.30147	10.2906
5.29605	10.3733
5.29065	10.5029
5.28525	10.4987
5.27987	10.4966
5.2745	10.4779
5.26914	10.4928
5.26379	10.5233
5.25845	10.5903
5.25312	10.6138
5.24781	10.4507
5.2425	10.3495
5.23721	10.3611
5.23192	10.3911
5.22665	10.3969
5.22138	10.4034
5.21613	10.4406
5.21089	10.4045
5.20566	10.3691
5.20044	10.4925
5.19522	10.5612
5.19002	10.5074
5.18483	10.5368
5.17965	10.632
5.17448	10.6139
5.16933	10.6383
5.16418	10.7413
5.15904	10.7743
5.15391	10.7443
5.14879	10.77
5.14368	10.8027
5.13859	10.7637
5.1335	10.766
5.12842	10.8417
5.12335	10.8561
5.1183	10.8026
5.11325	10.8163
5.10821	10.8303
5.10318	10.8583
5.09817	10.86
5.09316	10.8396
5.08816	10.8325
5.08317	10.8447
5.07819	10.8983
5.07322	10.9431
5.06826	10.9247
5.06331	10.9123
5.05837	10.9211
5.05344	10.9487
5.04852	10.9031
5.04361	10.7891
5.03871	10.7557
5.03382	10.8424
5.02894	10.8593
5.02406	10.8345
5.0192	10.8216
5.01435	10.8524
5.0095	10.8251
5.00467	10.7472
4.99984	10.6721
4.99502	10.6467
4.99021	10.5787
4.98542	10.5217
4.98063	10.5158
4.97585	10.5114
4.97108	10.4596
4.96632	10.3481
4.96156	10.3047
4.95682	10.3436
4.95209	10.2877
4.94736	10.2146
4.94264	10.1361
4.93794	10.1216
4.93324	10.0771
4.92855	10.0109
4.92387	9.95378
4.9192	9.87502
4.91453	9.86011
4.90988	9.81918
4.90524	9.72179
4.9006	9.7063
4.89597	9.73767
4.89135	9.68525
4.88674	9.53175
4.88214	9.42967
4.87755	9.43927
4.87296	9.49762
4.86839	9.45893
4.86382	9.35038
4.85926	9.30665
4.85471	9.32384
4.85017	9.33429
4.84564	9.32734
4.84111	9.29201
4.8366	9.27968
4.83209	9.28137
4.82759	9.25443
4.8231	9.15274
4.81862	9.07423
4.81415	9.10984
4.80968	9.13512
4.80522	9.10346
4.80077	9.05227
4.79633	9.01211
4.7919	9.03886
4.78747	8.98563
4.78306	8.80652
4.77865	8.61238
4.77425	8.55189
4.76986	8.54077
4.76547	8.46049
4.7611	8.46365
4.75673	8.43119
4.75237	8.29297
4.74802	8.21183
4.74367	8.19832
4.73934	8.16183
4.73501	8.11993
4.73069	8.11879
4.72638	8.02208
4.72207	7.89784
4.71777	7.8353
4.71348	7.8098
4.7092	7.77807
4.70493	7.7801
4.70066	7.80008
4.69641	7.74869
4.69216	7.7344
4.68791	7.68181
4.68368	7.67845
4.67945	7.61828
4.67523	7.48583
4.67102	7.47676
4.66682	7.536
4.66262	7.51777
4.65843	7.49643
4.65425	7.48104
4.65007	7.45863
4.64591	7.34619
4.64175	7.28509
4.6376	7.25444
4.63345	7.22116
4.62932	7.26651
4.62519	7.29096
4.62106	7.21704
4.61695	7.19114
4.61284	7.15308
4.60874	7.04492
4.60465	6.96113
4.60056	6.87952
4.59648	6.80258
4.59241	6.84566
4.58835	6.82013
4.58429	6.82352
4.58024	6.77113
4.5762	6.61886
4.57216	6.59456
4.56814	6.55477
4.56411	6.48928
4.5601	6.48372
4.55609	6.5199
4.55209	6.53253
4.5481	6.44457
4.54411	6.38181
4.54013	6.37285
4.53616	6.39284
4.5322	6.35228
4.52824	6.32547
4.52429	6.30957
4.52034	6.27326
4.51641	6.28714
4.51247	6.3156
4.50855	6.3819
4.50463	6.42878
4.50072	6.41017
4.49682	6.41704
4.49292	6.42746
4.48903	6.42207
4.48515	6.51844
4.48127	6.57662
4.4774	6.57144
4.47354	6.60116
4.46968	6.56726
4.46584	6.557
4.46199	6.554
4.45815	6.54937
4.45432	6.57542
4.4505	6.57009
4.44668	6.59453
4.44287	6.59772
4.43907	6.64562
4.43527	6.67463
4.43148	6.7054
4.4277	6.76129
4.42392	6.73666
4.42015	6.64189
4.41638	6.62442
4.41262	6.67338
4.40887	6.76627
4.40513	6.81996
4.40139	6.79099
4.39765	6.78621
4.39393	6.83296
4.39021	6.84906
4.38649	6.87874
4.38278	6.9244
4.37908	7.08069
4.37539	7.2361
4.3717	7.20946
4.36801	7.19106
4.36434	7.227
4.36067	7.22348
4.357	7.23613
4.35335	7.23501
4.34969	7.32211
4.34605	7.5035
4.34241	7.51672
4.33877	7.37757
4.33514	7.34961
4.33152	7.42405
4.32791	7.43578
4.3243	7.45312
4.32069	7.51389
4.3171	7.51059
4.31351	7.48338
4.30992	7.47969
4.30634	7.49227
4.30277	7.56038
4.2992	7.54214
4.29564	7.45755
4.29208	7.44221
4.28853	7.43985
4.28499	7.50786
4.28145	7.6123
4.27792	7.57271
4.27439	7.4883
4.27087	7.52972
4.26735	7.65576
4.26384	7.80517
4.26034	7.87619
4.25684	7.93179
4.25335	8.0422
4.24986	8.1412
4.24638	8.15208
4.24291	8.16615
4.23944	8.21704
4.23598	8.41535
4.23252	8.55218
4.22906	8.61217
4.22562	8.71902
4.22218	8.81883
4.21874	9.0045
4.21531	9.21384
4.21189	9.3578
4.20847	9.47791
4.20506	9.6322
4.20165	9.71743
4.19825	9.83054
4.19485	10.0994
4.19146	10.3281
4.18807	10.4254
4.18469	10.4778
4.18132	10.5096
4.17795	10.6109
4.17458	10.7595
4.17123	10.8203
4.16787	10.8617
4.16453	10.8553
4.16118	10.9112
4.15785	11.025
4.15451	11.1479
4.15119	11.2221
4.14787	11.2175
4.14455	11.1699
4.14124	11.2249
4.13794	11.2801
4.13464	11.2526
4.13134	11.3181
4.12805	11.3535
4.12477	11.267
4.12149	11.2221
4.11822	11.3183
4.11495	11.4221
4.11168	11.4347
4.10843	11.4015
4.10517	11.4112
4.10192	11.3921
4.09868	11.3687
4.09545	11.4352
4.09221	11.5108
4.08899	11.4783
4.08576	11.4794
4.08255	11.4983
4.07933	11.4346
4.07613	11.4232
4.07292	11.4431
4.06973	11.4269
4.06654	11.3575
4.06335	11.3866
4.06017	11.5553
4.05699	11.7196
4.05382	11.7169
4.05065	11.7321
4.04749	11.8385
4.04433	11.9977
4.04118	12.2227
4.03803	12.3645
4.03489	12.5082
4.03175	12.6571
4.02862	12.8301
4.02549	12.9638
4.02237	13.1002
4.01925	13.2184
4.01614	13.3118
4.01303	13.4281
4.00993	13.5087
4.00683	13.579
4.00373	13.7382
4.00064	13.9768
3.99756	14.1149
3.99448	14.106
3.9914	14.2078
3.98833	14.3118
3.98527	14.2932
3.98221	14.2698
3.97915	14.3983
3.9761	14.5111
3.97305	14.4959
3.97001	14.5178
3.96697	14.5915
3.96394	14.7063
3.96091	14.7018
3.95789	14.65
3.95487	14.7674
3.95186	14.8442
3.94885	14.8582
3.94584	14.8754
3.94284	14.9245
3.93984	14.904
3.93685	14.8091
3.93386	14.8477
3.93088	14.8904
3.9279	14.8794
3.92493	14.9043
3.92196	14.8994
3.919	14.9113
3.91604	14.9664
3.91308	14.9862
3.91013	14.9021
3.90718	14.9329
3.90424	14.9712
3.9013	14.9224
3.89837	14.8387
3.89544	14.8345
3.89252	14.8965
3.8896	14.9502
3.88668	15.0142
3.88377	14.9897
3.88086	14.9706
3.87796	15.0241
3.87506	14.967
3.87217	14.8817
3.86928	14.9128
3.86639	14.9675
3.86351	14.9226
3.86064	14.8511
3.85776	14.8154
3.8549	14.8572
3.85203	14.834
3.84917	14.8199
3.84631	14.8011
3.84346	14.711
3.84062	14.6966
3.83777	14.7472
3.83494	14.6849
3.8321	14.6288
3.82927	14.6384
3.82644	14.5135
3.82362	14.3889
3.82081	14.3782
3.81799	14.3775
3.81518	14.2252
3.81238	14.0785
3.80958	13.9885
3.80678	13.962
3.80399	13.9531
3.8012	13.9594
3.79841	13.9149
3.79563	13.8167
3.79286	13.7483
3.79008	13.7015
3.78731	13.7029
3.78455	13.6268
3.78179	13.6026
3.77903	13.637
3.77628	13.6081
3.77353	13.6639
3.77079	13.6873
3.76805	13.6321
3.76531	13.4518
3.76258	13.4562
3.75985	13.5038
3.75713	13.5667
3.7544	13.611
3.75169	13.5874
3.74898	13.5369
3.74627	13.5204
3.74356	13.5429
3.74086	13.5034
3.73816	13.4729
3.73547	13.4573
3.73278	13.3881
3.7301	13.3398
3.72741	13.218
3.72474	13.1224
3.72206	13.05
3.71939	12.908
3.71673	12.833
3.71406	12.8719
3.71141	12.9021
3.70875	12.7729
3.7061	12.6589
3.70345	12.6279
3.70081	12.4731
3.69817	12.355
3.69553	12.2752
3.6929	12.255
3.69027	12.2063
3.68765	12.1401
3.68503	12.1016
3.68241	11.991
3.6798	11.862
3.67719	11.7369
3.67458	11.6556
3.67198	11.5926
3.66938	11.5563
3.66678	11.4062
3.66419	11.2328
3.66161	11.1771
3.65902	11.0599
3.65644	10.9381
3.65387	10.8206
3.65129	10.7731
3.64872	10.6941
3.64616	10.532
3.64359	10.4795
3.64103	10.4152
3.63848	10.2719
3.63593	10.1932
3.63338	10.2146
3.63084	10.2129
3.6283	10.1993
3.62576	10.1397
3.62322	10.1059
3.62069	10.0142
3.61817	9.8413
3.61564	9.76561
3.61312	9.73007
3.61061	9.68578
3.6081	9.68342
3.60559	9.66118
3.60308	9.58992
3.60058	9.55338
3.59808	9.50735
3.59558	9.46739
3.59309	9.42491
3.59061	9.43066
3.58812	9.34252
3.58564	9.25766
3.58316	9.19281
3.58069	9.16592
3.57822	9.19238
3.57575	9.21611
3.57328	9.11976
3.57082	9.00035
3.56836	8.92103
3.56591	8.88258
3.56346	8.93656
3.56101	8.93343
3.55857	8.84396
3.55613	8.7312
3.55369	8.67052
3.55126	8.61808
3.54883	8.57551
3.5464	8.63846
3.54397	8.65579
3.54155	8.61812
3.53914	8.60842
3.53672	8.61321
3.53431	8.51405
3.5319	8.38362
3.5295	8.27759
3.5271	8.26638
3.5247	8.22187
3.52231	8.14442
3.51991	8.20411
3.51753	8.19479
3.51514	8.09021
3.51276	7.90933
3.51038	7.97846
3.50801	8.06321
3.50563	8.01004
3.50327	7.9123
3.5009	7.79611
3.49854	7.75995
3.49618	7.81516
3.49382	7.86254
3.49147	7.76419
3.48912	7.67712
3.48677	7.61257
3.48443	7.55836
3.48209	7.54862
3.47975	7.55371
3.47742	7.57585
3.47509	7.51467
3.47276	7.35131
3.47044	7.34264
3.46812	7.4378
3.4658	7.45689
3.46348	7.46288
3.46117	7.39216
3.45886	7.22088
3.45656	7.11287
3.45425	7.1231
3.45195	7.13891
3.44966	7.03548
3.44736	6.96784
3.44507	6.94564
3.44279	6.95831
3.4405	6.94133
3.43822	6.85468
3.43594	6.83257
3.43367	6.72914
3.43139	6.58461
3.42912	6.52691
3.42686	6.58118
3.42459	6.56614
3.42233	6.46516
3.42007	6.42356
3.41782	6.34937
3.41557	6.28849
3.41332	6.25608
3.41108	6.21239
3.40883	6.12133
3.40659	6.04908
3.40435	5.9628
3.40212	5.84238
3.39989	5.85156
3.39766	5.8642
3.39544	5.79103
3.39322	5.77242
3.391	5.75461
3.38878	5.66375
3.38657	5.55547
3.38436	5.49423
3.38215	5.42425
3.37994	5.35978
3.37774	5.22198
3.37554	5.0814
3.37335	5.00684
3.37115	5.0852
3.36896	5.09283
3.36678	5.03599
3.36459	5.04651
3.36241	5.1027
3.36023	5.04722
3.35805	4.79205
3.35588	4.61314
3.35371	4.61405
3.35154	4.67517
3.34938	4.64665
3.34721	4.52542
3.34505	4.39498
3.3429	4.40219
3.34074	4.48071
3.33859	4.44667
3.33644	4.33525
3.3343	4.2837
3.33215	4.21512
3.33001	4.23696
3.32788	4.29987
3.32574	4.27334
3.32361	4.3083
3.32148	4.27872
3.31936	4.2419
3.31723	4.27777
3.31511	4.31994
3.31299	4.15101
3.31088	3.91806
3.30876	3.97075
3.30665	4.04381
3.30455	4.08856
3.30244	4.03924
3.30034	4.04721
3.29824	3.96533
3.29614	3.7921
3.29405	3.86619
3.29196	3.98086
3.28987	4.00991
3.28778	4.02458
3.2857	3.94395
3.28362	3.96729
3.28154	3.8752
3.27946	3.83577
3.27739	3.77543
3.27532	3.73665
3.27325	3.84161
3.27119	3.83694
3.26913	3.68405
3.26707	3.66726
3.26501	3.78187
3.26295	3.83296
3.2609	3.75631
3.25885	3.68633
3.2568	3.57829
3.25476	3.50769
3.25272	3.52
3.25068	3.55961
3.24864	3.61582
3.24661	3.63428
3.24458	3.62649
3.24255	3.53585
3.24052	3.53285
3.2385	3.53153
3.23648	3.52692
3.23446	3.38414
3.23244	3.32016
3.23043	3.396
3.22841	3.41875
3.2264	3.42543
3.2244	3.31309
3.22239	3.23532
3.22039	3.28085
3.21839	3.37237
3.2164	3.36364
3.2144	3.30618
3.21241	3.253
3.21042	3.10645
3.20844	3.02242
3.20645	3.03244
3.20447	3.1063
3.20249	3.20476
3.20051	3.17119
3.19854	3.08136
3.19657	3.04034
3.1946	3.09575
3.19263	3.10649
3.19067	3.04642
3.1887	3.07755
3.18674	3.01096
3.18479	2.84715
3.18283	2.79278
3.18088	2.92529
3.17893	2.887
3.17698	2.84814
3.17504	2.97814
3.17309	2.99514
3.17115	2.87569
3.16921	2.81326
3.16728	2.83754
3.16534	2.95779
3.16341	3.02462
3.16148	2.86703
3.15956	2.74745
3.15763	2.69294
3.15571	2.75578
3.15379	2.81684
3.15187	2.70205
3.14996	2.66641
3.14805	2.80402
3.14614	2.75342
3.14423	2.67093
3.14232	2.68928
3.14042	2.77115
3.13852	2.79286
3.13662	2.72613
3.13472	2.84832
3.13283	2.82421
3.13094	2.61539
3.12905	2.53209
3.12716	2.59477
3.12528	2.68269
3.12339	2.68394
3.12151	2.58658
3.11964	2.57803
3.11776	2.62559
3.11589	2.64294
3.11401	2.61926
3.11214	2.63309
3.11028	2.70478
3.10841	2.6688
3.10655	2.53248
3.10469	2.49402
3.10283	2.56816
3.10098	2.63304
3.09912	2.68839
3.09727	2.65132
3.09542	2.54242
3.09358	2.51107
3.09173	2.51061
3.08989	2.39994
3.08805	2.37373
3.08621	2.46719
3.08437	2.55588
3.08254	2.57537
3.08071	2.63428
3.07888	2.62873
3.07705	2.6756
3.07523	2.63981
3.0734	2.64071
3.07158	2.66805
3.06977	2.65253
3.06795	2.63089
3.06613	2.65701
3.06432	2.56966
3.06251	2.34998
3.0607	2.28334
3.0589	2.41107
3.0571	2.49973
3.05529	2.39703
3.05349	2.32304
3.0517	2.33817
3.0499	2.29282
3.04811	2.24946
3.04632	2.28759
3.04453	2.16773
3.04274	2.27874
3.04096	2.4418
3.03918	2.45453
3.0374	2.32149
3.03562	2.18535
3.03384	2.2598
3.03207	2.31088
3.03029	2.29292
3.02852	2.15575
3.02676	2.11411
3.02499	2.04874
3.02323	2.04492
3.02146	2.14548
3.0197	2.21099
3.01795	2.21913
3.01619	2.2124
3.01444	2.13119
3.01269	2.03862
3.01094	1.93119
3.00919	1.8801
3.00744	1.97241
3.0057	1.98286
3.00396	2.00146
3.00222	2.0168
3.00048	1.92233
2.99875	1.98913
2.99701	1.7279
2.99528	1.46682
2.99355	1.54848
2.99183	1.63522
2.9901	1.77777
2.98838	1.69659
2.98666	1.68159
2.98494	1.73872
2.98322	1.85763
2.9815	1.88951
2.97979	1.71204
2.97808	1.59883
2.97637	1.66165
2.97466	1.65429
2.97295	1.5929
2.97125	1.72847
2.96955	1.93912
2.96785	1.82292
2.96615	1.64228
2.96446	1.4183
2.96276	1.18633
2.96107	1.33082
2.95938	1.4752
2.95769	1.46698
2.95601	1.582
2.95432	1.47876
2.95264	1.46152
2.95096	1.60277
2.94928	1.65984
2.9476	1.67158
2.94593	1.61516
2.94425	1.58125
2.94258	1.62676
2.94092	1.53965
2.93925	1.45001
2.93758	1.55338
2.93592	1.5668
2.93426	1.56527
2.9326	1.63356
2.93094	1.67759
2.92928	1.73411
2.92763	1.64862
2.92598	1.5385
2.92433	1.46349
2.92268	1.43923
2.92103	1.40295
2.91939	1.39388
2.91775	1.47511
2.9161	1.43692
2.91447	1.41494
2.91283	1.50117
2.91119	1.51183
2.90956	1.39737
2.90793	1.44295
2.9063	1.52439
2.90467	1.31927
2.90304	1.23689
2.90142	1.33665
2.89979	1.26544
2.89817	1.16939
2.89656	1.15481
2.89494	1.25684
2.89332	1.5128
2.89171	1.54933
2.8901	1.39185
2.88849	1.35064
2.88688	1.36165
2.88527	1.4974
2.88367	1.5269
2.88206	1.57154
2.88046	1.53769
2.87886	1.40682
2.87727	1.48955
2.87567	1.53325
2.87408	1.58281
2.87248	1.60558
2.87089	1.62547
2.8693	1.75311
2.86772	1.83055
2.86613	1.77423
2.86455	1.6864
2.86297	1.62469
2.86139	1.65407
2.85981	1.68905
2.85823	1.78653
2.85666	1.90177
2.85508	1.88452
2.85351	1.85693
2.85194	1.949
2.85038	2.07391
2.84881	2.07133
2.84724	1.94995
2.84568	1.94054
2.84412	2.03356
2.84256	2.09432
2.841	2.19273
2.83945	2.32132
2.83789	2.47533
2.83634	2.4498
2.83479	2.36464
2.83324	2.2749
2.83169	2.32042
2.83015	2.46262
2.82861	2.29861
2.82706	2.10424
2.82552	2.03602
2.82398	2.14078
2.82245	2.37285
2.82091	2.37782
2.81938	2.2616
2.81784	2.01901
2.81631	1.55619
2.81479	1.45136
2.81326	1.37339
2.81173	1.04655
2.81021	0.980973
2.80869	1.1124
2.80716	1.11893
2.80565	1.24718
2.80413	1.40213
2.80261	1.38003
2.8011	1.43322
2.79959	1.70222
2.79808	1.85831
2.79657	1.84929
2.79506	1.80227
2.79355	2.01717
2.79205	2.2998
2.79055	2.3931
2.78904	2.52378
2.78754	2.62583
2.78605	2.67569
2.78455	2.78162
2.78306	2.98661
2.78156	3.01135
2.78007	2.92841
2.77858	3.24725
2.77709	3.84188
2.77561	4.21584
2.77412	4.28259
2.77264	4.27226
2.77116	4.64134
2.76968	4.91062
2.7682	5.31242
2.76672	5.85021
2.76524	6.08554
2.76377	6.16091
2.7623	6.43136
2.76083	6.82027
2.75936	7.11162
2.75789	7.51456
2.75642	7.85768
2.75496	8.28521
2.7535	8.64401
2.75203	9.08519
2.75057	9.44799
2.74912	9.72523
2.74766	9.97063
2.7462	10.3667
2.74475	10.9489
2.7433	11.5785
2.74185	12.3752
2.7404	13.1785
2.73895	13.7286
2.7375	13.9186
2.73606	14.4312
2.73462	15.046
2.73318	15.3656
2.73174	15.9842
2.7303	16.6092
2.72886	17.1741
2.72742	17.7524
2.72599	18.4741
2.72456	19.3301
2.72313	19.7377
2.7217	20.2684
2.72027	20.9743
2.71884	21.1108
2.71742	21.3849
2.71599	21.7404
2.71457	22.1205
2.71315	22.5954
2.71173	23.447
2.71032	24.0696
2.7089	24.2021
2.70748	24.2341
2.70607	24.3203
2.70466	24.6174
2.70325	25.0262
2.70184	25.6566
2.70043	25.9603
2.69903	26.0581
2.69762	26.396
2.69622	26.8998
2.69482	27.513
2.69342	27.7741
2.69202	27.7718
2.69062	28.0128
2.68923	28.3432
2.68783	28.6945
2.68644	29.0759
2.68505	29.4239
2.68366	29.8032
2.68227	29.8745
2.68089	30.0506
2.6795	30.7694
2.67812	31.4044
2.67673	31.9591
2.67535	32.0018
2.67397	31.8286
2.6726	32.1309
2.67122	33.3267
2.66984	33.8572
2.66847	33.5537
2.6671	34.232
2.66572	34.5696
2.66435	34.3238
2.66299	34.036
2.66162	34.411
2.66025	34.7422
2.65889	34.805
2.65753	34.7506
2.65616	35.2393
2.65481	35.5249
2.65345	35.7087
2.65209	35.8548
2.65073	35.8256
2.64938	35.976
2.64803	36.2834
2.64667	36.6722
2.64532	36.9456
2.64397	36.8502
2.64263	37.061
2.64128	37.2377
2.63994	37.2191
2.63859	37.2042
2.63725	37.4991
2.63591	37.7025
2.63457	38.0947
2.63323	38.2951
2.6319	38.5887
2.63056	39.2262
2.62923	38.8628
2.62789	38.9127
2.62656	39.439
2.62523	39.1412
2.6239	39.0182
2.62258	39.1742
2.62125	39.9134
2.61993	40.1967
2.6186	40.0015
2.61728	40.5673
2.61596	40.4441
2.61464	40.0505
2.61332	40.1728
2.61201	40.1023
2.61069	40.1883
2.60938	40.4135
2.60807	40.5563
2.60675	40.9137
2.60544	41.2346
2.60414	40.865
2.60283	40.5663
2.60152	40.4967
2.60022	40.3542
2.59891	40.2241
2.59761	40.4903
2.59631	41.4506
2.59501	42.5659
2.59371	41.8133
2.59242	40.8306
2.59112	40.6422
2.58983	40.7329
2.58853	40.952
2.58724	41.0424
2.58595	40.7324
2.58466	41.0046
2.58338	41.0378
2.58209	40.5557
2.5808	40.5282
2.57952	40.1011
2.57824	39.9649
2.57695	40.0284
2.57567	39.6574
2.5744	39.68
2.57312	39.6872
2.57184	39.0122
2.57057	38.8487
2.56929	38.733
2.56802	38.2568
2.56675	37.9206
2.56548	37.9144
2.56421	38.1763
2.56294	38.2547
2.56168	38.1419
2.56041	37.8424
2.55915	37.4811
2.55789	37.3433
2.55662	37.3845
2.55536	37.3199
2.5541	37.4068
2.55285	37.621
2.55159	37.6573
2.55034	37.5922
2.54908	37.6518
2.54783	37.7214
2.54658	37.6047
2.54533	37.5876
2.54408	37.7512
2.54283	37.8585
2.54159	37.7836
2.54034	37.646
2.5391	37.6343
2.53785	37.8531
2.53661	38.0961
2.53537	38.1106
2.53413	38.1851
2.53289	38.2815
2.53166	38.3171
2.53042	38.3918
2.52919	38.3525
2.52795	38.268
2.52672	38.303
2.52549	38.3407
2.52426	38.2773
2.52303	38.2992
2.52181	38.391
2.52058	38.3979
2.51936	38.3501
2.51813	38.3703
2.51691	38.4327
2.51569	38.4582
2.51447	38.5879
2.51325	38.6365
2.51203	38.6015
2.51082	38.4929
2.5096	38.5263
2.50839	38.662
2.50717	38.7955
2.50596	38.8329
2.50475	38.8083
2.50354	38.8242
2.50233	38.8484
2.50113	38.997
2.49992	39.1003
2.49872	39.1093
2.49751	39.0869
2.49631	39.0293
2.49511	39.0378
2.49391	39.0918
2.49271	39.1166
2.49151	39.162
2.49031	39.1643
2.48912	39.0893
2.48792	39.1365
2.48673	39.2273
2.48554	39.3542
2.48435	39.3077
2.48316	39.2886
2.48197	39.2516
2.48078	39.2476
2.4796	39.2806
2.47841	39.2609
2.47723	39.2309
2.47604	39.2221
2.47486	39.1966
2.47368	39.1914
2.4725	39.2948
2.47132	39.4094
2.47014	39.5065
2.46897	39.5805
2.46779	39.4885
2.46662	39.4087
2.46545	39.4248
2.46427	39.5256
2.4631	39.5558
2.46193	39.5934
2.46077	39.7905
2.4596	39.8436
2.45843	39.7044
2.45727	39.6848
2.4561	39.7815
2.45494	39.7897
2.45378	39.8068
2.45262	39.8506
2.45146	39.6521
2.4503	39.603
2.44914	39.6502
2.44799	39.5391
2.44683	39.5787
2.44568	39.7669
2.44452	39.6453
2.44337	39.5704
2.44222	39.6325
2.44107	39.6127
2.43992	39.5611
2.43877	39.5743
2.43763	39.7185
2.43648	39.7492
2.43534	39.7622
2.43419	39.9021
2.43305	39.8917
2.43191	39.8722
2.43077	39.9169
2.42963	39.9812
2.42849	40.0246
2.42736	39.9579
2.42622	40.0477
2.42509	40.1984
2.42395	40.3584
2.42282	40.4273
2.42169	40.5157
2.42056	40.7638
2.41943	40.9704
2.4183	40.9156
2.41717	40.906
2.41605	41.08
2.41492	41.3336
2.4138	41.5414
2.41267	41.5705
2.41155	41.5908
2.41043	41.7346
2.40931	41.77
2.40819	41.7382
2.40707	41.8478
2.40595	42.016
2.40484	42.1804
2.40372	42.1394
2.40261	42.1611
2.4015	42.426
2.40039	42.6145
2.39928	42.7386
2.39817	42.8295
2.39706	42.9902
2.39595	43.136
2.39484	43.2341
2.39374	43.3499
2.39263	43.6193
2.39153	43.8606
2.39043	44.138
2.38932	44.3605
2.38822	44.5689
2.38712	44.934
2.38603	45.2901
2.38493	45.4518
2.38383	45.6091
2.38274	45.926
2.38164	46.1444
2.38055	46.2806
2.37946	46.5754
2.37836	46.7817
2.37727	47.0384
2.37618	47.3616
2.3751	47.7164
2.37401	47.9923
2.37292	48.1634
2.37184	48.4615
2.37075	48.7479
2.36967	48.9996
2.36859	49.3015
2.3675	49.5236
2.36642	49.7668
2.36534	50.05
2.36427	50.1705
2.36319	50.1799
2.36211	50.2821
2.36104	50.4896
2.35996	50.5881
2.35889	50.6159
2.35781	50.7294
2.35674	50.8843
2.35567	50.9638
2.3546	51.185
2.35353	51.4305
2.35247	51.4629
2.3514	51.542
2.35033	51.8512
2.34927	52.113
2.3482	52.1864
2.34714	52.2411
2.34608	52.2479
2.34502	52.3377
2.34396	52.6043
2.3429	52.8066
2.34184	52.9906
2.34078	53.2335
2.33973	53.2945
2.33867	53.4393
2.33762	53.4879
2.33656	53.5297
2.33551	53.7683
2.33446	54.0009
2.33341	54.137
2.33236	54.2686
2.33131	54.3862
2.33026	54.474
2.32922	54.496
2.32817	54.6784
2.32712	54.8179
2.32608	55.0311
2.32504	55.2226
2.324	55.1726
2.32295	55.139
2.32191	55.2109
2.32087	55.2569
2.31984	55.3002
2.3188	55.4251
2.31776	55.4789
2.31673	55.5954
2.31569	55.6454
2.31466	55.6058
2.31362	55.5207
2.31259	55.4486
2.31156	55.4401
2.31053	55.5122
2.3095	55.5431
2.30847	55.4528
2.30745	55.3511
2.30642	55.3932
2.3054	55.2665
2.30437	55.0885
2.30335	55.135
2.30232	55.0804
2.3013	54.9327
2.30028	54.8013
2.29926	54.6542
2.29824	54.6195
2.29722	54.6153
2.29621	54.5321
2.29519	54.3647
2.29417	54.3117
2.29316	54.1088
2.29215	53.8175
2.29113	53.5961
2.29012	53.5085
2.28911	53.475
2.2881	53.4115
2.28709	53.2073
2.28608	52.9805
2.28507	52.7274
2.28407	52.5938
2.28306	52.6007
2.28206	52.3994
2.28105	52.4194
2.28005	52.4706
2.27905	52.3315
2.27805	52.2243
2.27705	52.2334
2.27605	52.2492
2.27505	52.1814
2.27405	52.0591
2.27305	52.1142
2.27206	52.1239
2.27106	52.048
2.27007	51.9062
2.26907	51.8403
2.26808	51.8275
2.26709	51.8131
2.2661	51.8228
2.26511	51.8142
2.26412	51.8477
2.26313	51.8684
2.26214	51.6997
2.26116	51.5899
2.26017	51.5732
2.25919	51.3767
2.2582	51.2986
2.25722	51.2608
2.25624	51.1967
2.25526	51.1275
2.25428	51.0695
2.2533	51.0708
2.25232	51.0897
2.25134	51.0933
2.25036	51.2177
2.24939	51.1795
2.24841	51.0955
2.24744	51.2013
2.24646	51.2199
2.24549	51.0746
2.24452	51.0248
2.24355	50.9397
2.24257	50.7611
2.24161	50.5456
2.24064	50.4052
2.23967	50.3084
2.2387	50.1419
2.23774	49.9098
2.23677	49.7589
2.23581	49.4865
2.23484	49.2344
2.23388	49.2164
2.23292	48.9506
2.23196	48.5589
2.231	48.3158
2.23004	48.2658
2.22908	48.2387
2.22812	48.0019
2.22716	47.7494
2.22621	47.5798
2.22525	47.3677
2.2243	47.1513
2.22334	47.053
2.22239	46.9486
2.22144	46.8052
2.22049	46.5955
2.21953	46.3372
2.21859	46.0771
2.21764	45.9998
2.21669	45.7956
2.21574	45.3986
2.21479	44.9766
2.21385	44.5887
2.2129	44.2515
2.21196	43.9014
2.21102	43.4784
2.21007	43.2231
2.20913	43.1101
2.20819	42.9011
2.20725	42.7402
2.20631	42.5119
2.20537	42.3539
2.20444	42.1044
2.2035	41.679
2.20256	41.3007
2.20163	40.746
2.20069	40.1449
2.19976	39.4749
2.19883	38.6756
2.19789	38.0362
2.19696	37.4269
2.19603	36.9009
2.1951	36.4035
2.19417	35.8073
2.19325	35.3793
2.19232	35.3348
2.19139	35.3827
2.19047	35.4065
2.18954	35.3239
2.18862	35.2951
2.18769	35.3656
2.18677	35.5486
2.18585	36.052
2.18493	36.4391
2.18401	36.8487
2.18309	37.2834
2.18217	37.8256
2.18125	38.5345
2.18033	39.3219
2.17942	40.0293
2.1785	40.7399
2.17759	41.5026
2.17667	42.4083
2.17576	43.0951
2.17485	43.5431
2.17393	44.117
2.17302	44.6587
2.17211	45.0507
2.1712	45.412
2.17029	45.8223
2.16939	46.3265
2.16848	46.5429
2.16757	46.5685
2.16667	46.7571
2.16576	47.0502
2.16486	47.2182
2.16395	47.3504
2.16305	47.7154
2.16215	47.9364
2.16125	48.0098
2.16035	48.0612
2.15945	47.9428
2.15855	47.8261
2.15765	47.9369
2.15675	47.9731
2.15586	48.0096
2.15496	48.3244
2.15406	48.534
2.15317	48.6686
2.15228	48.667
2.15138	48.7021
2.15049	48.7656
2.1496	48.8183
2.14871	48.7869
2.14782	48.8878
2.14693	49.0073
2.14604	49.1609
2.14515	49.4325
2.14427	49.4079
2.14338	49.2214
2.14249	49.1565
2.14161	49.0953
2.14072	49.1607
2.13984	49.1998
2.13896	49.2784
2.13808	49.4683
2.13719	49.3921
2.13631	49.4069
2.13543	49.6057
2.13455	49.768
2.13368	49.8888
2.1328	49.9343
2.13192	49.9975
2.13105	49.9198
2.13017	49.8438
2.1293	49.8965
2.12842	49.8296
2.12755	49.8535
2.12668	49.9255
2.1258	49.944
2.12493	49.8563
2.12406	49.8229
2.12319	49.8433
2.12232	49.8892
2.12145	49.9678
2.12059	50.0397
2.11972	49.9373
2.11885	49.8432
2.11799	49.786
2.11712	49.8406
2.11626	49.901
2.1154	49.7763
2.11453	49.7339
2.11367	49.9182
2.11281	50.0356
2.11195	49.9189
2.11109	49.6868
2.11023	49.5896
2.10937	49.5881
2.10851	49.6003
2.10766	49.6187
2.1068	49.5697
2.10594	49.4152
2.10509	49.3314
2.10423	49.2597
2.10338	49.1214
2.10253	48.9766
2.10168	48.8674
2.10082	48.8113
2.09997	48.8448
2.09912	48.8157
2.09827	48.781
2.09742	48.8441
2.09658	48.8058
2.09573	48.7161
2.09488	48.6196
2.09404	48.4936
2.09319	48.4447
2.09235	48.503
2.0915	48.4829
2.09066	48.3148
2.08982	48.2145
2.08897	48.153
2.08813	48.2665
2.08729	48.141
2.08645	47.87
2.08561	47.6947
2.08477	47.7224
2.08394	47.7117
2.0831	47.5485
2.08226	47.4669
2.08143	47.4384
2.08059	47.3987
2.07976	47.4301
2.07892	47.3366
2.07809	46.9012
2.07726	46.9536
2.07643	46.8219
2.07559	46.4355
2.07476	46.4787
2.07393	46.6437
2.0731	46.5596
2.07228	46.485
2.07145	46.6145
2.07062	46.436
2.06979	46.0551
2.06897	46.1708
2.06814	46.0747
2.06732	45.8726
2.06649	45.4845
2.06567	45.6244
2.06485	45.836
2.06403	45.589
2.0632	45.3664
2.06238	45.0615
2.06156	44.7269
2.06074	44.7168
2.05993	44.7077
2.05911	44.4083
2.05829	43.9251
2.05747	43.5684
2.05666	43.2185
2.05584	43.1427
2.05503	42.8931
2.05421	42.647
2.0534	42.4882
2.05259	42.2111
2.05177	42.0475
2.05096	42.1082
2.05015	42.1073
2.04934	42.0458
2.04853	41.9895
2.04772	42.1353
2.04691	42.358
2.04611	42.4184
2.0453	42.4302
2.04449	42.376
2.04369	42.2889
2.04288	42.3678
2.04208	42.2208
2.04127	42.282
2.04047	42.6464
2.03967	42.3979
2.03886	41.9835
2.03806	41.9608
2.03726	42.0603
2.03646	42.042
2.03566	41.9728
2.03486	42.113
2.03407	42.2337
2.03327	42.2077
2.03247	41.9517
2.03167	41.6759
2.03088	41.8222
2.03008	42.1275
2.02929	41.8782
2.0285	41.6743
2.0277	41.6857
2.02691	41.7571
2.02612	41.8739
2.02533	41.8925
2.02453	41.8451
2.02374	41.8049
2.02295	41.7199
2.02217	41.6649
2.02138	41.6303
2.02059	41.5285
2.0198	41.4968
2.01902	41.3741
2.01823	41.243
2.01744	41.165
2.01666	41.1355
2.01588	41.1162
2.01509	40.8841
2.01431	40.7967
2.01353	40.6515
2.01275	40.5712
2.01196	40.4415
2.01118	40.2817
2.0104	40.2277
2.00963	40.2421
2.00885	40.2771
2.00807	40.2255
2.00729	40.1223
2.00651	39.8372
2.00574	39.7128
2.00496	39.8673
2.00419	39.8281
2.00341	39.7743
2.00264	39.718
2.00187	39.6527
2.00109	39.677
2.00032	39.6089
