Name: Hypersthene Gabbro
Type: Rock
Class: Igneous
Subclass:  Mafic 
Particle Size: Solid surface
Sample No.: Ward41.txt
Owner: JPL
Wavelength range:  VNIR SWIR IR 
Origin: Ward's Collection of American Rocks.  Sample locality - Salem, Essex County, Massachusetts.
Collected by:  Ward's Natural Science
Description: A coarse-textured, dark-colored rock composed of plagioclase,
hornblende and biotite.
Geologic age - Early Paleozoic.



Measurement: Hemispherical reflectance
First Column: X
Second Column: Y
X Units: Wavelength (micrometers)
Y Units: Reflectance (percent)
First X Value: 2.500
Last X Value: 0.400
Number of X Values: 2101
Additional information: None

2.500  13.333243
2.499  12.776482
2.498  13.317456
2.497  13.179052
2.496  12.895870
2.495  13.175896
2.494  13.335422
2.493  12.979616
2.492  13.468167
2.491  12.956196
2.490  13.413415
2.489  13.003403
2.488  13.266598
2.487  13.189406
2.486  13.390354
2.485  13.206796
2.484  13.257145
2.483  13.199823
2.482  13.335207
2.481  13.162405
2.480  13.293175
2.479  13.190142
2.478  13.398302
2.477  13.271611
2.476  13.296331
2.475  13.233759
2.474  13.237658
2.473  13.288691
2.472  13.360693
2.471  13.195250
2.470  13.403144
2.469  13.211998
2.468  13.429444
2.467  13.350316
2.466  13.390953
2.465  13.265203
2.464  13.507533
2.463  13.391681
2.462  13.509100
2.461  13.318999
2.460  13.436505
2.459  13.402526
2.458  13.533335
2.457  13.371279
2.456  13.551509
2.455  13.390710
2.454  13.531406
2.453  13.394871
2.452  13.529771
2.451  13.392734
2.450  13.534611
2.449  13.524314
2.448  13.498517
2.447  13.487085
2.446  13.495936
2.445  13.433165
2.444  13.498403
2.443  13.466979
2.442  13.499282
2.441  13.462571
2.440  13.659202
2.439  13.546908
2.438  13.665143
2.437  13.526577
2.436  13.660475
2.435  13.470300
2.434  13.643448
2.433  13.573381
2.432  13.609449
2.431  13.547947
2.430  13.694201
2.429  13.620593
2.428  13.680684
2.427  13.548351
2.426  13.713923
2.425  13.618052
2.424  13.700207
2.423  13.585863
2.422  13.722309
2.421  13.652049
2.420  13.737542
2.419  13.602064
2.418  13.696776
2.417  13.557736
2.416  13.749840
2.415  13.620071
2.414  13.764425
2.413  13.681021
2.412  13.727097
2.411  13.744217
2.410  13.751893
2.409  13.731942
2.408  13.803822
2.407  13.746229
2.406  13.845230
2.405  13.838130
2.404  13.831528
2.403  13.807462
2.402  13.829351
2.401  13.768020
2.400  13.863007
2.399  13.840708
2.398  13.848276
2.397  13.831799
2.396  13.876732
2.395  13.885582
2.394  13.916416
2.393  13.847688
2.392  13.905027
2.391  13.907786
2.390  13.890833
2.389  13.881878
2.388  13.912263
2.387  13.851686
2.386  13.902515
2.385  13.871263
2.384  13.947524
2.383  13.899737
2.382  13.934698
2.381  13.956318
2.380  13.997012
2.379  13.944732
2.378  13.990214
2.377  13.994146
2.376  14.045066
2.375  14.047139
2.374  14.006275
2.373  14.002101
2.372  13.993649
2.371  14.021602
2.370  14.076227
2.369  14.018954
2.368  14.035881
2.367  14.022541
2.366  14.060869
2.365  14.033948
2.364  14.036878
2.363  14.030582
2.362  14.023226
2.361  14.022403
2.360  14.016461
2.359  13.974174
2.358  13.992202
2.357  13.994387
2.356  13.971262
2.355  14.033222
2.354  14.030347
2.353  13.966643
2.352  13.931727
2.351  13.961219
2.350  13.932418
2.349  13.917182
2.348  13.944400
2.347  13.974133
2.346  14.001193
2.345  13.978646
2.344  13.961137
2.343  13.962527
2.342  13.951811
2.341  13.952838
2.340  13.928932
2.339  14.003383
2.338  13.974148
2.337  13.975954
2.336  13.967518
2.335  13.997944
2.334  13.984427
2.333  14.045653
2.332  14.012085
2.331  14.011777
2.330  14.005684
2.329  14.033036
2.328  14.015298
2.327  14.027854
2.326  14.021405
2.325  14.077099
2.324  14.036996
2.323  14.082067
2.322  14.100011
2.321  14.135880
2.320  14.152117
2.319  14.239443
2.318  14.182894
2.317  14.201622
2.316  14.202097
2.315  14.244174
2.314  14.196474
2.313  14.219925
2.312  14.245691
2.311  14.320925
2.310  14.307182
2.309  14.404481
2.308  14.329984
2.307  14.385639
2.306  14.361461
2.305  14.455885
2.304  14.428972
2.303  14.464652
2.302  14.422917
2.301  14.505971
2.300  14.470499
2.299  14.523972
2.298  14.475407
2.297  14.552931
2.296  14.547378
2.295  14.576284
2.294  14.567508
2.293  14.616676
2.292  14.565078
2.291  14.700803
2.290  14.604695
2.289  14.680014
2.288  14.600187
2.287  14.721979
2.286  14.588252
2.285  14.692644
2.284  14.673385
2.283  14.768046
2.282  14.680635
2.281  14.752885
2.280  14.678562
2.279  14.770536
2.278  14.715746
2.277  14.776800
2.276  14.702390
2.275  14.854919
2.274  14.726634
2.273  14.781267
2.272  14.732915
2.271  14.809937
2.270  14.735809
2.269  14.775370
2.268  14.742317
2.267  14.900815
2.266  14.759599
2.265  14.833937
2.264  14.744407
2.263  14.779991
2.262  14.698820
2.261  14.890569
2.260  14.753258
2.259  14.887674
2.258  14.809193
2.257  14.863385
2.256  14.798450
2.255  14.842893
2.254  14.818430
2.253  14.919902
2.252  14.792136
2.251  14.863493
2.250  14.831458
2.249  14.946890
2.248  14.862364
2.247  14.962149
2.246  14.826670
2.245  14.967604
2.244  14.874891
2.243  14.985506
2.242  14.968032
2.241  15.031218
2.240  14.954960
2.239  15.065756
2.238  14.992384
2.237  15.039648
2.236  15.039238
2.235  15.114878
2.234  14.997590
2.233  15.094735
2.232  15.034264
2.231  15.179153
2.230  15.071559
2.229  15.106500
2.228  15.100779
2.227  15.132079
2.226  15.089008
2.225  15.126622
2.224  15.074154
2.223  15.141925
2.222  15.048836
2.221  15.153995
2.220  15.078307
2.219  15.077798
2.218  15.056588
2.217  15.197074
2.216  15.085490
2.215  15.167351
2.214  15.066724
2.213  15.186835
2.212  15.124927
2.211  15.029783
2.210  15.145900
2.209  15.146296
2.208  15.046018
2.207  15.193153
2.206  15.030708
2.205  15.204212
2.204  15.081556
2.203  15.123753
2.202  15.031080
2.201  15.047235
2.200  15.056991
2.199  15.227147
2.198  15.106736
2.197  15.114182
2.196  15.092656
2.195  15.098319
2.194  15.119469
2.193  15.244421
2.192  15.116534
2.191  15.253087
2.190  15.132904
2.189  15.277726
2.188  15.199301
2.187  15.307467
2.186  15.257023
2.185  15.285427
2.184  15.358453
2.183  15.372746
2.182  15.331881
2.181  15.426803
2.180  15.381831
2.179  15.478189
2.178  15.440115
2.177  15.556432
2.176  15.467494
2.175  15.510623
2.174  15.501173
2.173  15.562750
2.172  15.526182
2.171  15.578829
2.170  15.513972
2.169  15.624898
2.168  15.618572
2.167  15.716644
2.166  15.594983
2.165  15.621744
2.164  15.642019
2.163  15.752791
2.162  15.666063
2.161  15.765523
2.160  15.681516
2.159  15.723762
2.158  15.671877
2.157  15.829363
2.156  15.735291
2.155  15.700068
2.154  15.761735
2.153  15.803019
2.152  15.794422
2.151  15.859323
2.150  15.756526
2.149  15.869424
2.148  15.843604
2.147  15.854778
2.146  15.747257
2.145  15.871734
2.144  15.814026
2.143  15.846595
2.142  15.783723
2.141  15.887791
2.140  15.850541
2.139  15.856208
2.138  15.814497
2.137  15.890814
2.136  15.837707
2.135  15.878713
2.134  15.831923
2.133  15.895008
2.132  15.843374
2.131  15.909495
2.130  15.886061
2.129  15.894731
2.128  15.796565
2.127  15.878646
2.126  15.807992
2.125  15.881623
2.124  15.811300
2.123  15.804298
2.122  15.784090
2.121  15.828892
2.120  15.836081
2.119  15.831476
2.118  15.774014
2.117  15.829231
2.116  15.846550
2.115  15.841393
2.114  15.743820
2.113  15.791463
2.112  15.757037
2.111  15.783851
2.110  15.816363
2.109  15.819271
2.108  15.681414
2.107  15.744712
2.106  15.761170
2.105  15.742409
2.104  15.752131
2.103  15.770511
2.102  15.771633
2.101  15.761999
2.100  15.727128
2.099  15.752910
2.098  15.763844
2.097  15.730712
2.096  15.715739
2.095  15.773137
2.094  15.725263
2.093  15.730783
2.092  15.745044
2.091  15.753785
2.090  15.742183
2.089  15.728910
2.088  15.722276
2.087  15.763778
2.086  15.737602
2.085  15.775624
2.084  15.812007
2.083  15.811772
2.082  15.752526
2.081  15.787202
2.080  15.807979
2.079  15.759781
2.078  15.757992
2.077  15.752465
2.076  15.789027
2.075  15.832437
2.074  15.802640
2.073  15.790840
2.072  15.839352
2.071  15.842063
2.070  15.797151
2.069  15.832249
2.068  15.829497
2.067  15.793591
2.066  15.820181
2.065  15.814838
2.064  15.812292
2.063  15.800519
2.062  15.793542
2.061  15.762851
2.060  15.809624
2.059  15.818422
2.058  15.809796
2.057  15.794201
2.056  15.790469
2.055  15.783593
2.054  15.781354
2.053  15.786027
2.052  15.821307
2.051  15.808624
2.050  15.819043
2.049  15.798332
2.048  15.761881
2.047  15.768722
2.046  15.833465
2.045  15.846409
2.044  15.839705
2.043  15.778303
2.042  15.817200
2.041  15.760024
2.040  15.822870
2.039  15.832090
2.038  15.745753
2.037  15.719926
2.036  15.784353
2.035  15.759234
2.034  15.791313
2.033  15.786200
2.032  15.837443
2.031  15.721336
2.030  15.815687
2.029  15.780537
2.028  15.755138
2.027  15.660649
2.026  15.738047
2.025  15.726814
2.024  15.754224
2.023  15.764906
2.022  15.767063
2.021  15.724212
2.020  15.762521
2.019  15.692983
2.018  15.725228
2.017  15.682423
2.016  15.737124
2.015  15.707525
2.014  15.761570
2.013  15.669698
2.012  15.663413
2.011  15.653604
2.010  15.673041
2.009  15.681394
2.008  15.705356
2.007  15.633546
2.006  15.682358
2.005  15.629200
2.004  15.678281
2.003  15.562752
2.002  15.710841
2.001  15.635113
2.000  15.677507
1.999  15.629356
1.998  15.597582
1.997  15.581007
1.996  15.623809
1.995  15.599393
1.994  15.617484
1.993  15.559246
1.992  15.603797
1.991  15.572091
1.990  15.612838
1.989  15.538260
1.988  15.618664
1.987  15.524550
1.986  15.623503
1.985  15.569147
1.984  15.562101
1.983  15.480212
1.982  15.569463
1.981  15.458672
1.980  15.549748
1.979  15.436247
1.978  15.534330
1.977  15.477186
1.976  15.513191
1.975  15.449315
1.974  15.431626
1.973  15.438768
1.972  15.607825
1.971  15.375798
1.970  15.504797
1.969  15.439428
1.968  15.463005
1.967  15.423187
1.966  15.459627
1.965  15.445520
1.964  15.503673
1.963  15.410956
1.962  15.433799
1.961  15.365613
1.960  15.486963
1.959  15.369879
1.958  15.495205
1.957  15.408471
1.956  15.425893
1.955  15.394290
1.954  15.435222
1.953  15.333367
1.952  15.473671
1.951  15.284149
1.950  15.441082
1.949  15.300650
1.948  15.471596
1.947  15.353614
1.946  15.406964
1.945  15.324007
1.944  15.459988
1.943  15.393884
1.942  15.267540
1.941  15.310791
1.940  15.399723
1.939  15.298467
1.938  15.331293
1.937  15.338300
1.936  15.422706
1.935  15.350591
1.934  15.319836
1.933  15.268541
1.932  15.430088
1.931  15.318079
1.930  15.422105
1.929  15.282209
1.928  15.318699
1.927  15.501671
1.926  15.290781
1.925  15.433131
1.924  15.472521
1.923  15.381636
1.922  15.472260
1.921  15.322191
1.920  15.513754
1.919  15.405779
1.918  15.457653
1.917  15.469150
1.916  15.481921
1.915  15.417530
1.914  15.453438
1.913  15.394308
1.912  15.527714
1.911  15.458153
1.910  15.647578
1.909  15.540699
1.908  15.582090
1.907  15.525885
1.906  15.730234
1.905  15.597986
1.904  15.683414
1.903  15.703779
1.902  15.802779
1.901  15.781552
1.900  15.816988
1.899  15.810122
1.898  16.015324
1.897  15.900315
1.896  15.996216
1.895  16.042610
1.894  16.117457
1.893  16.018959
1.892  16.098715
1.891  16.187727
1.890  16.257790
1.889  16.218467
1.888  16.270855
1.887  16.221762
1.886  16.363555
1.885  16.317234
1.884  16.343643
1.883  16.360809
1.882  16.373555
1.881  16.395172
1.880  16.465169
1.879  16.338856
1.878  16.547452
1.877  16.425567
1.876  16.511816
1.875  16.480041
1.874  16.609555
1.873  16.468476
1.872  16.606490
1.871  16.474839
1.870  16.581057
1.869  16.541472
1.868  16.641759
1.867  16.582782
1.866  16.642639
1.865  16.614120
1.864  16.658153
1.863  16.615066
1.862  16.567324
1.861  16.612791
1.860  16.609542
1.859  16.588010
1.858  16.698959
1.857  16.627808
1.856  16.722515
1.855  16.659011
1.854  16.654776
1.853  16.615461
1.852  16.724548
1.851  16.691781
1.850  16.642578
1.849  16.616598
1.848  16.650984
1.847  16.607003
1.846  16.635471
1.845  16.675635
1.844  16.661200
1.843  16.654743
1.842  16.707295
1.841  16.716167
1.840  16.728998
1.839  16.648162
1.838  16.665436
1.837  16.718785
1.836  16.670878
1.835  16.633365
1.834  16.724813
1.833  16.735648
1.832  16.724566
1.831  16.659951
1.830  16.635202
1.829  16.614987
1.828  16.673871
1.827  16.676570
1.826  16.733278
1.825  16.657192
1.824  16.678793
1.823  16.656951
1.822  16.704127
1.821  16.669510
1.820  16.731085
1.819  16.678949
1.818  16.679523
1.817  16.699712
1.816  16.735565
1.815  16.697231
1.814  16.745471
1.813  16.670152
1.812  16.652966
1.811  16.673530
1.810  16.702695
1.809  16.660241
1.808  16.657649
1.807  16.633282
1.806  16.635532
1.805  16.674106
1.804  16.719748
1.803  16.715678
1.802  16.751869
1.801  16.722837
1.800  16.699276
1.799  16.674966
1.798  16.694779
1.797  16.665602
1.796  16.653565
1.795  16.653835
1.794  16.690252
1.793  16.699938
1.792  16.676895
1.791  16.685363
1.790  16.747576
1.789  16.730633
1.788  16.714273
1.787  16.703776
1.786  16.655852
1.785  16.702700
1.784  16.752094
1.783  16.734244
1.782  16.731172
1.781  16.736799
1.780  16.740538
1.779  16.735150
1.778  16.734837
1.777  16.785343
1.776  16.795280
1.775  16.739713
1.774  16.705736
1.773  16.740069
1.772  16.723805
1.771  16.748197
1.770  16.740709
1.769  16.747187
1.768  16.761308
1.767  16.784594
1.766  16.739610
1.765  16.798867
1.764  16.763691
1.763  16.804663
1.762  16.771301
1.761  16.774971
1.760  16.774817
1.759  16.810332
1.758  16.788963
1.757  16.824504
1.756  16.803236
1.755  16.804111
1.754  16.753183
1.753  16.793842
1.752  16.712245
1.751  16.709009
1.750  16.779401
1.749  16.817523
1.748  16.797897
1.747  16.814727
1.746  16.829297
1.745  16.843106
1.744  16.753688
1.743  16.794384
1.742  16.845274
1.741  16.867585
1.740  16.849067
1.739  16.854180
1.738  16.815721
1.737  16.857454
1.736  16.877082
1.735  16.886315
1.734  16.818808
1.733  16.788199
1.732  16.808279
1.731  16.872019
1.730  16.785699
1.729  16.899413
1.728  16.809558
1.727  16.812428
1.726  16.810147
1.725  16.910390
1.724  16.848131
1.723  16.796135
1.722  16.799633
1.721  16.854451
1.720  16.819018
1.719  16.866934
1.718  16.825942
1.717  16.873300
1.716  16.800536
1.715  16.854333
1.714  16.801829
1.713  16.883024
1.712  16.845903
1.711  16.900562
1.710  16.791448
1.709  16.834745
1.708  16.733000
1.707  16.848513
1.706  16.858154
1.705  16.892891
1.704  16.828698
1.703  16.880560
1.702  16.860533
1.701  16.876166
1.700  16.810087
1.699  16.847220
1.698  16.829687
1.697  16.847182
1.696  16.797145
1.695  16.879766
1.694  16.797889
1.693  16.860329
1.692  16.816122
1.691  16.786537
1.690  16.826302
1.689  16.854443
1.688  16.767134
1.687  16.842948
1.686  16.812907
1.685  16.861903
1.684  16.723240
1.683  16.907395
1.682  16.745703
1.681  16.878218
1.680  16.792063
1.679  16.873941
1.678  16.799954
1.677  16.872551
1.676  16.751349
1.675  16.858255
1.674  16.738596
1.673  16.879858
1.672  16.765773
1.671  16.821584
1.670  16.773426
1.669  16.822634
1.668  16.645430
1.667  16.861815
1.666  16.769873
1.665  16.845037
1.664  16.715232
1.663  16.848779
1.662  16.806302
1.661  16.949434
1.660  16.716776
1.659  16.870621
1.658  16.809184
1.657  16.910505
1.656  16.679645
1.655  16.853218
1.654  16.796440
1.653  16.848227
1.652  16.746942
1.651  16.779711
1.650  16.773102
1.649  16.854204
1.648  16.720128
1.647  16.882223
1.646  16.786521
1.645  16.860246
1.644  16.649411
1.643  16.792587
1.642  16.831185
1.641  16.733931
1.640  16.805099
1.639  16.792964
1.638  16.782757
1.637  16.838903
1.636  16.787131
1.635  16.885812
1.634  16.793415
1.633  16.816797
1.632  16.725122
1.631  16.823689
1.630  16.740320
1.629  16.839255
1.628  16.747545
1.627  16.876997
1.626  16.751207
1.625  16.818308
1.624  16.735899
1.623  16.813665
1.622  16.741217
1.621  16.842008
1.620  16.817852
1.619  16.793711
1.618  16.800438
1.617  16.807597
1.616  16.795887
1.615  16.803472
1.614  16.724566
1.613  16.725324
1.612  16.717740
1.611  16.802323
1.610  16.729471
1.609  16.825297
1.608  16.744340
1.607  16.823926
1.606  16.760874
1.605  16.834286
1.604  16.727263
1.603  16.816316
1.602  16.729209
1.601  16.762297
1.600  16.773763
1.599  16.811407
1.598  16.709581
1.597  16.791853
1.596  16.748122
1.595  16.743987
1.594  16.780009
1.593  16.796904
1.592  16.749649
1.591  16.787667
1.590  16.719662
1.589  16.856305
1.588  16.705909
1.587  16.837138
1.586  16.702737
1.585  16.762662
1.584  16.731533
1.583  16.809661
1.582  16.646292
1.581  16.804755
1.580  16.696498
1.579  16.794866
1.578  16.756604
1.577  16.809446
1.576  16.742189
1.575  16.810643
1.574  16.734384
1.573  16.753098
1.572  16.624316
1.571  16.757892
1.570  16.631555
1.569  16.657861
1.568  16.714651
1.567  16.698722
1.566  16.675004
1.565  16.658677
1.564  16.671796
1.563  16.677143
1.562  16.687385
1.561  16.763903
1.560  16.662949
1.559  16.718343
1.558  16.631544
1.557  16.669508
1.556  16.651482
1.555  16.661492
1.554  16.688114
1.553  16.712275
1.552  16.556812
1.551  16.626911
1.550  16.620033
1.549  16.612833
1.548  16.591154
1.547  16.671968
1.546  16.665616
1.545  16.637745
1.544  16.569178
1.543  16.616577
1.542  16.618847
1.541  16.710686
1.540  16.617542
1.539  16.661404
1.538  16.597781
1.537  16.627003
1.536  16.622510
1.535  16.663929
1.534  16.634642
1.533  16.660163
1.532  16.639369
1.531  16.609424
1.530  16.554445
1.529  16.546293
1.528  16.571786
1.527  16.617245
1.526  16.572485
1.525  16.564993
1.524  16.574844
1.523  16.570732
1.522  16.548429
1.521  16.575374
1.520  16.550110
1.519  16.569731
1.518  16.537709
1.517  16.545001
1.516  16.504962
1.515  16.548731
1.514  16.561986
1.513  16.561090
1.512  16.497932
1.511  16.522448
1.510  16.593558
1.509  16.603682
1.508  16.542561
1.507  16.449384
1.506  16.471991
1.505  16.532670
1.504  16.521769
1.503  16.518700
1.502  16.506397
1.501  16.472276
1.500  16.466968
1.499  16.470330
1.498  16.506471
1.497  16.513182
1.496  16.457627
1.495  16.458971
1.494  16.456316
1.493  16.460210
1.492  16.442481
1.491  16.389848
1.490  16.423342
1.489  16.405373
1.488  16.384652
1.487  16.413726
1.486  16.480593
1.485  16.387761
1.484  16.378214
1.483  16.366350
1.482  16.372950
1.481  16.380030
1.480  16.373122
1.479  16.402643
1.478  16.406876
1.477  16.313295
1.476  16.339186
1.475  16.352565
1.474  16.385706
1.473  16.366055
1.472  16.369748
1.471  16.320613
1.470  16.376513
1.469  16.360237
1.468  16.294864
1.467  16.254948
1.466  16.334098
1.465  16.340644
1.464  16.402012
1.463  16.289440
1.462  16.282495
1.461  16.282358
1.460  16.287185
1.459  16.285454
1.458  16.381292
1.457  16.279547
1.456  16.239534
1.455  16.218717
1.454  16.238543
1.453  16.213776
1.452  16.239834
1.451  16.254633
1.450  16.246478
1.449  16.221910
1.448  16.298021
1.447  16.231956
1.446  16.270577
1.445  16.224718
1.444  16.268538
1.443  16.197317
1.442  16.310076
1.441  16.219475
1.440  16.251656
1.439  16.181539
1.438  16.229055
1.437  16.182075
1.436  16.185407
1.435  16.163397
1.434  16.250192
1.433  16.138666
1.432  16.147883
1.431  16.121509
1.430  16.206965
1.429  16.153492
1.428  16.237735
1.427  16.143071
1.426  16.132288
1.425  16.106015
1.424  16.103689
1.423  16.007838
1.422  16.090096
1.421  15.993632
1.420  16.049381
1.419  15.922541
1.418  16.009733
1.417  15.911463
1.416  15.888921
1.415  15.891701
1.414  15.921489
1.413  15.808622
1.412  15.876848
1.411  15.861016
1.410  15.865082
1.409  15.769450
1.408  15.913766
1.407  15.814923
1.406  15.911456
1.405  15.894261
1.404  15.941023
1.403  15.946449
1.402  15.990368
1.401  15.950988
1.400  15.991949
1.399  15.976347
1.398  16.076056
1.397  16.059685
1.396  16.135758
1.395  16.089189
1.394  16.161004
1.393  16.154110
1.392  16.293015
1.391  16.141491
1.390  16.294839
1.389  16.246188
1.388  16.351131
1.387  16.151243
1.386  16.267446
1.385  16.225311
1.384  16.344400
1.383  16.192784
1.382  16.253971
1.381  16.313619
1.380  16.352348
1.379  16.280141
1.378  16.310915
1.377  16.235982
1.376  16.318107
1.375  16.194244
1.374  16.385760
1.373  16.216169
1.372  16.367157
1.371  16.193565
1.370  16.313764
1.369  16.257442
1.368  16.361887
1.367  16.267879
1.366  16.293332
1.365  16.347450
1.364  16.288342
1.363  16.312801
1.362  16.287041
1.361  16.203953
1.360  16.271765
1.359  16.179749
1.358  16.299218
1.357  16.237702
1.356  16.375312
1.355  16.063226
1.354  16.341187
1.353  16.148503
1.352  16.275301
1.351  16.175559
1.350  16.270984
1.349  16.149942
1.348  16.257063
1.347  16.208438
1.346  16.234618
1.345  16.167903
1.344  16.273484
1.343  16.203526
1.342  16.264423
1.341  16.165265
1.340  16.205973
1.339  16.183902
1.338  16.294582
1.337  16.154598
1.336  16.198268
1.335  16.065751
1.334  16.240623
1.333  16.143802
1.332  16.194023
1.331  16.083386
1.330  16.224507
1.329  16.149787
1.328  16.227108
1.327  16.114668
1.326  16.124260
1.325  16.127647
1.324  16.167951
1.323  16.165062
1.322  16.177076
1.321  16.084453
1.320  16.166347
1.319  16.090734
1.318  16.086738
1.317  16.042918
1.316  16.136636
1.315  16.094947
1.314  16.183355
1.313  16.011216
1.312  16.195378
1.311  16.072527
1.310  16.171761
1.309  16.052601
1.308  16.163366
1.307  16.144944
1.306  16.113587
1.305  16.083964
1.304  16.155397
1.303  16.016251
1.302  16.135160
1.301  15.982300
1.300  16.082512
1.299  16.008622
1.298  16.091517
1.297  16.026937
1.296  16.109863
1.295  16.010578
1.294  16.039040
1.293  15.993621
1.292  16.055777
1.291  15.987523
1.290  16.052050
1.289  16.028810
1.288  16.092911
1.287  15.992167
1.286  16.075281
1.285  16.046667
1.284  16.117265
1.283  16.006969
1.282  16.034075
1.281  16.003614
1.280  16.065150
1.279  16.015660
1.278  16.042185
1.277  16.039128
1.276  16.075322
1.275  15.976827
1.274  16.015648
1.273  15.958701
1.272  16.046683
1.271  16.030051
1.270  16.026828
1.269  15.928245
1.268  16.056163
1.267  15.989344
1.266  15.968644
1.265  15.978350
1.264  16.024362
1.263  15.966495
1.262  15.979156
1.261  15.970252
1.260  15.986437
1.259  15.960743
1.258  15.994185
1.257  15.945942
1.256  16.024177
1.255  15.985518
1.254  15.973332
1.253  15.895137
1.252  15.915232
1.251  15.911651
1.250  15.944982
1.249  15.888265
1.248  15.930386
1.247  15.901093
1.246  15.981779
1.245  15.960673
1.244  15.981467
1.243  15.931812
1.242  15.935143
1.241  15.915512
1.240  15.913400
1.239  15.888148
1.238  15.898897
1.237  15.892198
1.236  15.937957
1.235  15.921229
1.234  15.934450
1.233  15.917108
1.232  15.906452
1.231  15.899201
1.230  15.909171
1.229  15.923511
1.228  15.915816
1.227  15.902487
1.226  15.910480
1.225  15.880200
1.224  15.893472
1.223  15.910831
1.222  15.911724
1.221  15.911152
1.220  15.921535
1.219  15.913696
1.218  15.886492
1.217  15.906543
1.216  15.893152
1.215  15.881701
1.214  15.879666
1.213  15.823435
1.212  15.859323
1.211  15.878272
1.210  15.843488
1.209  15.855732
1.208  15.859723
1.207  15.874583
1.206  15.903204
1.205  15.901053
1.204  15.852052
1.203  15.822513
1.202  15.819925
1.201  15.834855
1.200  15.822380
1.199  15.838471
1.198  15.837599
1.197  15.845553
1.196  15.796148
1.195  15.795781
1.194  15.820328
1.193  15.859168
1.192  15.866493
1.191  15.844844
1.190  15.810894
1.189  15.841954
1.188  15.729761
1.187  15.836670
1.186  15.886581
1.185  15.843208
1.184  15.802773
1.183  15.867702
1.182  15.862242
1.181  15.836154
1.180  15.820655
1.179  15.904613
1.178  15.868999
1.177  15.870767
1.176  15.807724
1.175  15.871270
1.174  15.795102
1.173  15.825827
1.172  15.859734
1.171  15.878163
1.170  15.770463
1.169  15.796152
1.168  15.749806
1.167  15.823927
1.166  15.829104
1.165  15.894702
1.164  15.823088
1.163  15.801574
1.162  15.814639
1.161  15.872855
1.160  15.797964
1.159  15.868387
1.158  15.761561
1.157  15.841994
1.156  15.857165
1.155  15.864434
1.154  15.779143
1.153  15.826542
1.152  15.836068
1.151  15.862955
1.150  15.810106
1.149  15.905361
1.148  15.855363
1.147  15.862649
1.146  15.725771
1.145  15.873457
1.144  15.864203
1.143  15.882437
1.142  15.821970
1.141  15.894942
1.140  15.803198
1.139  15.863921
1.138  15.814523
1.137  15.907897
1.136  15.851277
1.135  15.894239
1.134  15.816104
1.133  15.856194
1.132  15.866419
1.131  15.880289
1.130  15.814542
1.129  15.980669
1.128  15.875405
1.127  15.928940
1.126  15.851532
1.125  15.886068
1.124  15.753430
1.123  15.870504
1.122  15.894320
1.121  15.917637
1.120  15.894576
1.119  15.991659
1.118  15.853331
1.117  15.956453
1.116  15.787444
1.115  15.893669
1.114  15.847445
1.113  15.946965
1.112  15.856254
1.111  15.917801
1.110  15.860888
1.109  15.935352
1.108  15.818914
1.107  15.945568
1.106  15.914928
1.105  15.992996
1.104  15.874698
1.103  15.944594
1.102  15.837905
1.101  15.929437
1.100  15.852449
1.099  15.953014
1.098  15.825140
1.097  16.059879
1.096  15.929732
1.095  15.978046
1.094  15.920520
1.093  16.014040
1.092  15.902834
1.091  16.081788
1.090  15.934175
1.089  16.064134
1.088  15.914799
1.087  16.043865
1.086  15.958033
1.085  15.932995
1.084  15.914515
1.083  16.014096
1.082  15.977646
1.081  16.066723
1.080  15.925520
1.079  16.035285
1.078  15.856843
1.077  16.039979
1.076  15.980793
1.075  16.057665
1.074  15.913436
1.073  16.040489
1.072  16.017082
1.071  16.128450
1.070  15.919887
1.069  16.117318
1.068  15.904316
1.067  16.159469
1.066  15.933534
1.065  16.101190
1.064  16.002679
1.063  16.134490
1.062  15.973710
1.061  16.084072
1.060  16.005109
1.059  16.149758
1.058  16.007316
1.057  16.170478
1.056  16.016763
1.055  16.124150
1.054  16.032688
1.053  16.140288
1.052  16.161200
1.051  16.108674
1.050  16.029441
1.049  16.149198
1.048  16.031685
1.047  16.139077
1.046  16.031971
1.045  16.188572
1.044  16.086848
1.043  16.166360
1.042  16.065019
1.041  16.221629
1.040  16.096611
1.039  16.140143
1.038  16.096242
1.037  16.186017
1.036  16.151037
1.035  16.206737
1.034  16.038912
1.033  16.210938
1.032  16.141599
1.031  16.272371
1.030  16.153288
1.029  16.303034
1.028  16.206344
1.027  16.228555
1.026  16.157543
1.025  16.215600
1.024  16.215865
1.023  16.236066
1.022  16.247522
1.021  16.191886
1.020  16.184001
1.019  16.278562
1.018  16.221706
1.017  16.261317
1.016  16.193406
1.015  16.271421
1.014  16.104133
1.013  16.216782
1.012  16.154580
1.011  16.295270
1.010  16.200323
1.009  16.293325
1.008  16.137043
1.007  16.195125
1.006  16.156718
1.005  16.240535
1.004  16.233645
1.003  16.229098
1.002  16.232224
1.001  16.324320
1.000  16.210288
0.999  16.274808
0.998  16.250149
0.997  16.315295
0.996  16.235706
0.995  16.268197
0.994  16.207440
0.993  16.246888
0.992  16.283976
0.991  16.288235
0.990  16.255172
0.989  16.259311
0.988  16.241960
0.987  16.255668
0.986  16.238051
0.985  16.316866
0.984  16.253644
0.983  16.285947
0.982  16.211994
0.981  16.258941
0.980  16.233258
0.979  16.266959
0.978  16.236011
0.977  16.265170
0.976  16.250915
0.975  16.297988
0.974  16.276013
0.973  16.308182
0.972  16.282305
0.971  16.246202
0.970  16.199327
0.969  16.252599
0.968  16.174516
0.967  16.248920
0.966  16.268119
0.965  16.261923
0.964  16.275632
0.963  16.249727
0.962  16.184315
0.961  16.262909
0.960  16.211744
0.959  16.261539
0.958  16.304068
0.957  16.270196
0.956  16.195509
0.955  16.238085
0.954  16.243822
0.953  16.259276
0.952  16.211501
0.951  16.227108
0.950  16.141902
0.949  16.223935
0.948  16.250762
0.947  16.248404
0.946  16.221733
0.945  16.179285
0.944  16.207777
0.943  16.228478
0.942  16.240889
0.941  16.265802
0.940  16.272061
0.939  16.228376
0.938  16.195240
0.937  16.248960
0.936  16.237322
0.935  16.197445
0.934  16.172210
0.933  16.200627
0.932  16.190563
0.931  16.184361
0.930  16.241664
0.929  16.260819
0.928  16.194476
0.927  16.141120
0.926  16.149535
0.925  16.115450
0.924  16.156186
0.923  16.214319
0.922  16.175467
0.921  16.199588
0.920  16.262526
0.919  16.214613
0.918  16.196048
0.917  16.201718
0.916  16.197459
0.915  16.131916
0.914  16.149242
0.913  16.129606
0.912  16.163618
0.911  16.136719
0.910  16.195633
0.909  16.241801
0.908  16.229865
0.907  16.173071
0.906  16.178011
0.905  16.138079
0.904  16.195156
0.903  16.165262
0.902  16.214311
0.901  16.196583
0.900  16.202185
0.899  16.203060
0.898  16.193666
0.897  16.152549
0.896  16.157409
0.895  16.107066
0.894  16.164367
0.893  16.123023
0.892  16.164040
0.891  16.172133
0.890  16.218487
0.889  16.121584
0.888  16.148543
0.887  16.095420
0.886  16.185156
0.885  16.109668
0.884  16.184000
0.883  16.162756
0.882  16.144095
0.881  16.089718
0.880  16.146578
0.879  16.104278
0.878  16.158381
0.877  16.099535
0.876  16.102431
0.875  16.102229
0.874  16.176363
0.873  16.118861
0.872  16.202316
0.871  16.060490
0.870  16.103860
0.869  16.055971
0.868  16.107347
0.867  16.076969
0.866  16.062697
0.865  16.019354
0.864  16.091742
0.863  16.061178
0.862  16.120631
0.861  16.021525
0.860  15.746629
0.859  15.681418
0.858  15.667088
0.857  15.671715
0.856  15.677695
0.855  15.679796
0.854  15.702060
0.853  15.709227
0.852  15.716696
0.851  15.713103
0.850  15.715944
0.849  15.747928
0.848  15.745541
0.847  15.745157
0.846  15.755976
0.845  15.765567
0.844  15.759449
0.843  15.776505
0.842  15.791371
0.841  15.786121
0.840  15.802628
0.839  15.819660
0.838  15.814972
0.837  15.829257
0.836  15.827082
0.835  15.840369
0.834  15.842123
0.833  15.852593
0.832  15.863391
0.831  15.859430
0.830  15.845049
0.829  15.872534
0.828  15.885869
0.827  15.888372
0.826  15.881144
0.825  15.896540
0.824  15.886403
0.823  15.874468
0.822  15.892474
0.821  15.910800
0.820  15.908613
0.819  15.891476
0.818  15.927342
0.817  15.894205
0.816  15.916505
0.815  15.925327
0.814  15.918056
0.813  15.922588
0.812  15.926126
0.811  15.919500
0.810  15.936152
0.809  15.932750
0.808  15.927615
0.807  15.926988
0.806  15.948162
0.805  15.937121
0.804  15.936458
0.803  15.937157
0.802  15.942377
0.801  15.934874
0.800  15.929472
0.799  15.942334
0.798  15.941204
0.797  15.937995
0.796  15.925233
0.795  15.916589
0.794  15.925932
0.793  15.933554
0.792  15.915632
0.791  15.914853
0.790  15.923092
0.789  15.919436
0.788  15.915064
0.787  15.916437
0.786  15.908934
0.785  15.886729
0.784  15.891936
0.783  15.884654
0.782  15.893535
0.781  15.888160
0.780  15.882750
0.779  15.882600
0.778  15.879563
0.777  15.865050
0.776  15.848629
0.775  15.841400
0.774  15.849535
0.773  15.844817
0.772  15.839937
0.771  15.838412
0.770  15.837190
0.769  15.825852
0.768  15.814485
0.767  15.825211
0.766  15.815004
0.765  15.810612
0.764  15.793274
0.763  15.789794
0.762  15.799746
0.761  15.782783
0.760  15.777697
0.759  15.767595
0.758  15.766535
0.757  15.761480
0.756  15.746563
0.755  15.749618
0.754  15.752356
0.753  15.750032
0.752  15.744069
0.751  15.743205
0.750  15.738455
0.749  15.734309
0.748  15.728434
0.747  15.719614
0.746  15.719821
0.745  15.714131
0.744  15.706885
0.743  15.707031
0.742  15.702439
0.741  15.700168
0.740  15.696069
0.739  15.690275
0.738  15.684019
0.737  15.680283
0.736  15.681784
0.735  15.684070
0.734  15.671503
0.733  15.671197
0.732  15.680630
0.731  15.678442
0.730  15.675877
0.729  15.671549
0.728  15.661893
0.727  15.659480
0.726  15.658141
0.725  15.656797
0.724  15.652697
0.723  15.655219
0.722  15.654946
0.721  15.645786
0.720  15.646268
0.719  15.643315
0.718  15.637978
0.717  15.642748
0.716  15.641278
0.715  15.634005
0.714  15.638322
0.713  15.640299
0.712  15.636133
0.711  15.639735
0.710  15.637985
0.709  15.636328
0.708  15.633710
0.707  15.641480
0.706  15.632960
0.705  15.632000
0.704  15.638729
0.703  15.639963
0.702  15.637098
0.701  15.632176
0.700  15.637066
0.699  15.635436
0.698  15.640223
0.697  15.641882
0.696  15.638716
0.695  15.635535
0.694  15.639532
0.693  15.642841
0.692  15.647029
0.691  15.648149
0.690  15.649177
0.689  15.651644
0.688  15.645024
0.687  15.653582
0.686  15.653132
0.685  15.654527
0.684  15.657075
0.683  15.664324
0.682  15.664705
0.681  15.658111
0.680  15.668084
0.679  15.670827
0.678  15.667409
0.677  15.669876
0.676  15.671000
0.675  15.673366
0.674  15.679076
0.673  15.677798
0.672  15.679877
0.671  15.688274
0.670  15.692463
0.669  15.696247
0.668  15.696955
0.667  15.696578
0.666  15.699074
0.665  15.700540
0.664  15.704147
0.663  15.703913
0.662  15.709929
0.661  15.714554
0.660  15.718453
0.659  15.722807
0.658  15.719381
0.657  15.724767
0.656  15.731071
0.655  15.733735
0.654  15.734956
0.653  15.734425
0.652  15.739376
0.651  15.745434
0.650  15.746155
0.649  15.753829
0.648  15.758624
0.647  15.756441
0.646  15.759477
0.645  15.761443
0.644  15.764514
0.643  15.769283
0.642  15.773309
0.641  15.778587
0.640  15.781861
0.639  15.784000
0.638  15.786272
0.637  15.790037
0.636  15.794927
0.635  15.793986
0.634  15.795526
0.633  15.798956
0.632  15.803979
0.631  15.807299
0.630  15.808450
0.629  15.812503
0.628  15.814343
0.627  15.817319
0.626  15.821176
0.625  15.825024
0.624  15.825864
0.623  15.829249
0.622  15.833525
0.621  15.834876
0.620  15.838357
0.619  15.842003
0.618  15.845663
0.617  15.844648
0.616  15.848036
0.615  15.855840
0.614  15.857113
0.613  15.860079
0.612  15.857172
0.611  15.859883
0.610  15.866145
0.609  15.869212
0.608  15.869817
0.607  15.869453
0.606  15.866726
0.605  15.867885
0.604  15.871078
0.603  15.872875
0.602  15.872869
0.601  15.875904
0.600  15.879480
0.599  15.879654
0.598  15.878965
0.597  15.884858
0.596  15.888865
0.595  15.891860
0.594  15.894270
0.593  15.892061
0.592  15.891532
0.591  15.888860
0.590  15.885761
0.589  15.883628
0.588  15.883106
0.587  15.880554
0.586  15.875515
0.585  15.871455
0.584  15.869500
0.583  15.867464
0.582  15.866347
0.581  15.858911
0.580  15.855257
0.579  15.851351
0.578  15.843619
0.577  15.839233
0.576  15.831175
0.575  15.826950
0.574  15.819552
0.573  15.811916
0.572  15.807854
0.571  15.801079
0.570  15.791321
0.569  15.781914
0.568  15.775630
0.567  15.764158
0.566  15.754069
0.565  15.743876
0.564  15.733156
0.563  15.721467
0.562  15.712259
0.561  15.678072
0.560  15.662340
0.559  15.648575
0.558  15.633405
0.557  15.619033
0.556  15.596077
0.555  15.579947
0.554  15.563281
0.553  15.546783
0.552  15.536360
0.551  15.514583
0.550  15.494158
0.549  15.478382
0.548  15.457969
0.547  15.445775
0.546  15.432021
0.545  15.410476
0.544  15.390262
0.543  15.371844
0.542  15.353532
0.541  15.330399
0.540  15.312198
0.539  15.294204
0.538  15.268716
0.537  15.247561
0.536  15.230838
0.535  15.205392
0.534  15.186822
0.533  15.161305
0.532  15.144430
0.531  15.120262
0.530  15.097992
0.529  15.077910
0.528  15.055448
0.527  15.033244
0.526  15.005816
0.525  14.981818
0.524  14.961002
0.523  14.935479
0.522  14.910559
0.521  14.885481
0.520  14.857031
0.519  14.829502
0.518  14.808268
0.517  14.783696
0.516  14.748839
0.515  14.720853
0.514  14.688837
0.513  14.661536
0.512  14.630423
0.511  14.593376
0.510  14.565319
0.509  14.532184
0.508  14.498317
0.507  14.465592
0.506  14.433100
0.505  14.403874
0.504  14.367536
0.503  14.334331
0.502  14.302428
0.501  14.267134
0.500  14.233623
0.499  14.195137
0.498  14.160550
0.497  14.128701
0.496  14.093485
0.495  14.057159
0.494  14.023359
0.493  13.996922
0.492  13.958920
0.491  13.928246
0.490  13.900113
0.489  13.870033
0.488  13.831392
0.487  13.802211
0.486  13.773521
0.485  13.745005
0.484  13.713408
0.483  13.680114
0.482  13.649022
0.481  13.624499
0.480  13.607269
0.479  13.587961
0.478  13.574729
0.477  13.555643
0.476  13.540371
0.475  13.511804
0.474  13.488592
0.473  13.467763
0.472  13.442781
0.471  13.420321
0.470  13.393850
0.469  13.373471
0.468  13.348455
0.467  13.329113
0.466  13.303494
0.465  13.279553
0.464  13.263223
0.463  13.236249
0.462  13.217091
0.461  13.188714
0.460  13.164579
0.459  13.142156
0.458  13.113657
0.457  13.087245
0.456  13.058968
0.455  13.029843
0.454  12.999808
0.453  12.967595
0.452  12.934810
0.451  12.909721
0.450  12.874579
0.449  12.839359
0.448  12.799045
0.447  12.765408
0.446  12.726194
0.445  12.691023
0.444  12.647386
0.443  12.607178
0.442  12.569819
0.441  12.528945
0.440  12.488522
0.439  12.447049
0.438  12.409642
0.437  12.365729
0.436  12.320253
0.435  12.279190
0.434  12.232131
0.433  12.188182
0.432  12.145840
0.431  12.103448
0.430  12.061012
0.429  12.019442
0.428  11.977047
0.427  11.925148
0.426  11.888066
0.425  11.847924
0.424  11.808150
0.423  11.773860
0.422  11.732729
0.421  11.697643
0.420  11.658346
0.419  11.621762
0.418  11.593054
0.417  11.564126
0.416  11.528949
0.415  11.493396
0.414  11.464719
0.413  11.432690
0.412  11.402406
0.411  11.372445
0.410  11.339863
0.409  11.311377
0.408  11.282750
0.407  11.250644
0.406  11.214743
0.405  11.185185
0.404  11.154083
0.403  11.120363
0.402  11.090391
0.401  11.058152
0.400  11.027393
