Name: Oligoclase (Feldspar) (NaSi,CaAl)AlSi_2O_8
Type: Mineral
Class: Silicates
Subclass: Tectosilicates
Particle Size: 125-500um
Sample No.: TS-3A
Owner: JPL
Wavelength range: VNIR-SWIR
Origin: Unknown.
Collected by:  JPL
Description:




 
Measurement: Hemispherical reflectance
First Column: X
Second Column: Y
X Units: Wavelength (micrometers)
Y Units: Reflectance (percent)
First X Value: 2.500
Last X Value: 0.400
Number of X Values: 2101
Additional information: ts03aa.txt

2.500  57.708432
2.499  57.335974
2.498  57.372741
2.497  57.538888
2.496  57.390243
2.495  57.602065
2.494  57.540677
2.493  57.311141
2.492  57.596449
2.491  57.445325
2.490  57.530853
2.489  57.671940
2.488  57.646437
2.487  57.713314
2.486  57.820498
2.485  57.743201
2.484  57.836081
2.483  57.692303
2.482  57.822445
2.481  57.787673
2.480  57.978796
2.479  57.839400
2.478  57.940071
2.477  57.892692
2.476  57.977212
2.475  57.866099
2.474  58.056317
2.473  58.088276
2.472  58.024962
2.471  58.091036
2.470  58.103307
2.469  58.155186
2.468  58.305409
2.467  58.329851
2.466  58.502827
2.465  58.378055
2.464  58.464384
2.463  58.363885
2.462  58.600964
2.461  58.630646
2.460  58.670430
2.459  58.678460
2.458  58.846624
2.457  58.723164
2.456  58.853102
2.455  58.851238
2.454  58.874692
2.453  58.939001
2.452  58.920226
2.451  58.993930
2.450  58.958111
2.449  59.047769
2.448  59.099554
2.447  59.148587
2.446  59.298272
2.445  59.227067
2.444  59.266641
2.443  59.265537
2.442  59.308431
2.441  59.330108
2.440  59.432343
2.439  59.436814
2.438  59.468919
2.437  59.494781
2.436  59.618811
2.435  59.668698
2.434  59.779371
2.433  59.685749
2.432  59.832291
2.431  59.897562
2.430  59.923747
2.429  59.938649
2.428  60.038245
2.427  60.080424
2.426  60.178263
2.425  60.195096
2.424  60.269489
2.423  60.308407
2.422  60.442848
2.421  60.460444
2.420  60.549767
2.419  60.514239
2.418  60.725452
2.417  60.783505
2.416  60.835028
2.415  60.939114
2.414  60.916275
2.413  60.891517
2.412  61.095210
2.411  61.149102
2.410  61.276573
2.409  61.272538
2.408  61.383449
2.407  61.398598
2.406  61.542149
2.405  61.546288
2.404  61.563293
2.403  61.642638
2.402  61.688083
2.401  61.620312
2.400  61.699788
2.399  61.829599
2.398  61.841610
2.397  61.876179
2.396  61.889193
2.395  61.986676
2.394  61.994381
2.393  61.967043
2.392  62.062357
2.391  62.063487
2.390  62.089389
2.389  62.122298
2.388  62.092081
2.387  62.074697
2.386  62.210997
2.385  62.264273
2.384  62.220837
2.383  62.135732
2.382  62.166794
2.381  62.176292
2.380  62.157850
2.379  62.176464
2.378  62.087963
2.377  61.997604
2.376  61.981564
2.375  61.978759
2.374  61.860265
2.373  61.828132
2.372  61.765937
2.371  61.654288
2.370  61.609099
2.369  61.540674
2.368  61.461543
2.367  61.327860
2.366  61.217589
2.365  61.142971
2.364  61.028181
2.363  60.958797
2.362  60.916607
2.361  60.841843
2.360  60.716444
2.359  60.689493
2.358  60.658551
2.357  60.634670
2.356  60.704772
2.355  60.658998
2.354  60.639672
2.353  60.616373
2.352  60.651500
2.351  60.701542
2.350  60.732803
2.349  60.862075
2.348  60.913646
2.347  60.992271
2.346  61.093664
2.345  61.181239
2.344  61.278543
2.343  61.384874
2.342  61.506021
2.341  61.596761
2.340  61.664443
2.339  61.769663
2.338  61.851759
2.337  62.010327
2.336  62.144225
2.335  62.215405
2.334  62.306252
2.333  62.411176
2.332  62.511933
2.331  62.677787
2.330  62.796890
2.329  62.883851
2.328  63.035026
2.327  63.119683
2.326  63.258237
2.325  63.365311
2.324  63.479247
2.323  63.696346
2.322  63.800795
2.321  63.957529
2.320  64.111257
2.319  64.254381
2.318  64.337288
2.317  64.459119
2.316  64.531241
2.315  64.715923
2.314  64.876198
2.313  64.962024
2.312  65.018842
2.311  65.148082
2.310  65.206806
2.309  65.325134
2.308  65.324088
2.307  65.468754
2.306  65.526695
2.305  65.617113
2.304  65.727957
2.303  65.802971
2.302  65.861497
2.301  65.912011
2.300  65.942572
2.299  66.001155
2.298  66.146823
2.297  66.144826
2.296  66.144136
2.295  66.292243
2.294  66.315692
2.293  66.377504
2.292  66.376878
2.291  66.425832
2.290  66.420021
2.289  66.516320
2.288  66.527734
2.287  66.511382
2.286  66.538520
2.285  66.570150
2.284  66.652449
2.283  66.618392
2.282  66.644885
2.281  66.707411
2.280  66.732474
2.279  66.821078
2.278  66.785808
2.277  66.790331
2.276  66.788469
2.275  66.748949
2.274  66.766281
2.273  66.807042
2.272  66.818578
2.271  66.800753
2.270  66.823199
2.269  66.801984
2.268  66.771368
2.267  66.784483
2.266  66.715294
2.265  66.739247
2.264  66.702858
2.263  66.776536
2.262  66.743409
2.261  66.722180
2.260  66.675221
2.259  66.751734
2.258  66.717339
2.257  66.724654
2.256  66.737688
2.255  66.839239
2.254  66.841909
2.253  66.932255
2.252  66.870748
2.251  66.928370
2.250  66.866803
2.249  66.909449
2.248  66.977277
2.247  67.077829
2.246  67.041657
2.245  67.031305
2.244  67.138782
2.243  67.151124
2.242  67.119071
2.241  67.182413
2.240  67.132575
2.239  67.211783
2.238  67.174932
2.237  67.236896
2.236  67.226678
2.235  67.265061
2.234  67.190985
2.233  67.158643
2.232  67.240870
2.231  67.290875
2.230  67.278820
2.229  67.311209
2.228  67.131489
2.227  67.188186
2.226  67.194580
2.225  67.169653
2.224  67.202478
2.223  67.120570
2.222  67.060970
2.221  67.038332
2.220  66.847533
2.219  66.899062
2.218  66.745639
2.217  66.630181
2.216  66.485378
2.215  66.529226
2.214  66.371685
2.213  66.283851
2.212  66.149746
2.211  65.847702
2.210  65.845863
2.209  65.613408
2.208  65.642684
2.207  65.479389
2.206  65.245523
2.205  65.184343
2.204  65.078799
2.203  64.973377
2.202  64.856117
2.201  64.886431
2.200  64.760350
2.199  64.728989
2.198  64.577796
2.197  64.541235
2.196  64.555083
2.195  64.587637
2.194  64.672791
2.193  64.742097
2.192  64.722938
2.191  64.864016
2.190  65.001645
2.189  65.146162
2.188  65.239588
2.187  65.390122
2.186  65.521463
2.185  65.822435
2.184  65.983009
2.183  66.153883
2.182  66.263176
2.181  66.465560
2.180  66.615564
2.179  66.879566
2.178  67.018136
2.177  67.161601
2.176  67.337166
2.175  67.483550
2.174  67.578397
2.173  67.695547
2.172  67.868533
2.171  67.992046
2.170  68.061371
2.169  68.160775
2.168  68.233883
2.167  68.412121
2.166  68.574111
2.165  68.653472
2.164  68.636498
2.163  68.794957
2.162  68.810682
2.161  68.876682
2.160  68.993976
2.159  69.036991
2.158  69.071197
2.157  69.161378
2.156  69.110167
2.155  69.269222
2.154  69.292852
2.153  69.351581
2.152  69.268818
2.151  69.352944
2.150  69.379928
2.149  69.453073
2.148  69.359659
2.147  69.411405
2.146  69.414619
2.145  69.421513
2.144  69.446137
2.143  69.465897
2.142  69.422757
2.141  69.407731
2.140  69.349570
2.139  69.379332
2.138  69.346971
2.137  69.376280
2.136  69.380730
2.135  69.340844
2.134  69.311400
2.133  69.272816
2.132  69.246468
2.131  69.211300
2.130  69.108602
2.129  69.109653
2.128  69.067083
2.127  69.035721
2.126  69.045162
2.125  68.970378
2.124  68.919225
2.123  68.865332
2.122  68.799325
2.121  68.749949
2.120  68.725530
2.119  68.739574
2.118  68.641538
2.117  68.595488
2.116  68.582206
2.115  68.535931
2.114  68.458083
2.113  68.384197
2.112  68.344078
2.111  68.285834
2.110  68.287041
2.109  68.280008
2.108  68.196958
2.107  68.146499
2.106  68.064734
2.105  68.009430
2.104  68.007968
2.103  67.973309
2.102  67.888024
2.101  67.925173
2.100  67.866035
2.099  67.885605
2.098  67.860702
2.097  67.843529
2.096  67.800428
2.095  67.802765
2.094  67.788633
2.093  67.799779
2.092  67.823875
2.091  67.818461
2.090  67.757725
2.089  67.801007
2.088  67.844688
2.087  67.794784
2.086  67.745703
2.085  67.789499
2.084  67.838021
2.083  67.809955
2.082  67.756836
2.081  67.739882
2.080  67.740855
2.079  67.720487
2.078  67.697561
2.077  67.686278
2.076  67.693400
2.075  67.672356
2.074  67.646855
2.073  67.627674
2.072  67.584401
2.071  67.557686
2.070  67.500454
2.069  67.498693
2.068  67.543029
2.067  67.566861
2.066  67.532507
2.065  67.490126
2.064  67.404047
2.063  67.396945
2.062  67.417767
2.061  67.367291
2.060  67.396705
2.059  67.390814
2.058  67.354848
2.057  67.275709
2.056  67.307894
2.055  67.296457
2.054  67.201670
2.053  67.149338
2.052  67.184072
2.051  67.132694
2.050  67.088153
2.049  67.040319
2.048  66.963355
2.047  66.957005
2.046  66.888801
2.045  66.865822
2.044  66.882863
2.043  66.859842
2.042  66.844406
2.041  66.792032
2.040  66.720144
2.039  66.712590
2.038  66.685348
2.037  66.626684
2.036  66.604181
2.035  66.551413
2.034  66.479318
2.033  66.398925
2.032  66.330840
2.031  66.224383
2.030  66.152398
2.029  66.212693
2.028  66.154356
2.027  66.064478
2.026  66.053530
2.025  65.925970
2.024  65.831167
2.023  65.802994
2.022  65.784300
2.021  65.682427
2.020  65.577244
2.019  65.500262
2.018  65.497529
2.017  65.410980
2.016  65.312509
2.015  65.248473
2.014  65.159343
2.013  65.073021
2.012  65.035842
2.011  64.952201
2.010  64.912272
2.009  64.810965
2.008  64.722572
2.007  64.572587
2.006  64.479504
2.005  64.396582
2.004  64.361149
2.003  64.290225
2.002  64.254170
2.001  64.184040
2.000  64.115496
1.999  63.978195
1.998  63.860369
1.997  63.762467
1.996  63.731172
1.995  63.596477
1.994  63.470769
1.993  63.351834
1.992  63.320087
1.991  63.207765
1.990  63.033253
1.989  62.982175
1.988  62.958362
1.987  62.859758
1.986  62.670368
1.985  62.561894
1.984  62.552832
1.983  62.446817
1.982  62.342550
1.981  62.266589
1.980  62.175874
1.979  62.167991
1.978  61.973755
1.977  61.880565
1.976  61.814885
1.975  61.646855
1.974  61.628421
1.973  61.558744
1.972  61.596491
1.971  61.452310
1.970  61.386697
1.969  61.233595
1.968  61.197286
1.967  61.107748
1.966  61.107177
1.965  61.039882
1.964  60.971342
1.963  60.878221
1.962  60.806517
1.961  60.656187
1.960  60.626186
1.959  60.534147
1.958  60.593604
1.957  60.556394
1.956  60.552143
1.955  60.328976
1.954  60.324928
1.953  60.260655
1.952  60.224736
1.951  60.206129
1.950  60.196426
1.949  60.125010
1.948  60.117843
1.947  60.053840
1.946  59.990886
1.945  59.927854
1.944  59.880592
1.943  59.945330
1.942  59.894252
1.941  59.827793
1.940  59.869807
1.939  59.837464
1.938  59.789195
1.937  59.821096
1.936  59.763109
1.935  59.791647
1.934  59.744147
1.933  59.796098
1.932  59.892115
1.931  59.856112
1.930  59.801720
1.929  59.897873
1.928  59.914834
1.927  60.012389
1.926  59.967880
1.925  60.057745
1.924  60.087655
1.923  60.042798
1.922  60.242040
1.921  60.204358
1.920  60.342923
1.919  60.441134
1.918  60.517531
1.917  60.566750
1.916  60.705383
1.915  60.747261
1.914  60.904836
1.913  61.031490
1.912  61.256162
1.911  61.371278
1.910  61.541343
1.909  61.710852
1.908  61.883680
1.907  62.089040
1.906  62.247330
1.905  62.619085
1.904  62.879080
1.903  63.106583
1.902  63.419774
1.901  63.646123
1.900  64.016258
1.899  64.294836
1.898  64.524058
1.897  64.792430
1.896  65.124520
1.895  65.355747
1.894  65.671531
1.893  65.991648
1.892  66.295586
1.891  66.429163
1.890  66.618179
1.889  66.928552
1.888  67.220175
1.887  67.422120
1.886  67.500276
1.885  67.743015
1.884  67.881512
1.883  68.107546
1.882  68.263453
1.881  68.404560
1.880  68.561533
1.879  68.670251
1.878  68.821380
1.877  68.890114
1.876  69.032810
1.875  69.122488
1.874  69.190962
1.873  69.261716
1.872  69.495349
1.871  69.486854
1.870  69.647515
1.869  69.651430
1.868  69.700737
1.867  69.697892
1.866  69.795391
1.865  69.904939
1.864  69.963808
1.863  69.939622
1.862  69.938423
1.861  69.874703
1.860  69.984068
1.859  70.030024
1.858  70.056926
1.857  70.117028
1.856  70.107088
1.855  70.117989
1.854  70.096283
1.853  70.117805
1.852  70.128135
1.851  70.136706
1.850  70.144363
1.849  70.135914
1.848  70.202079
1.847  70.199720
1.846  70.231894
1.845  70.232452
1.844  70.265336
1.843  70.171369
1.842  70.247370
1.841  70.214781
1.840  70.189914
1.839  70.252352
1.838  70.268012
1.837  70.227477
1.836  70.232882
1.835  70.172723
1.834  70.216651
1.833  70.246807
1.832  70.287645
1.831  70.260182
1.830  70.285902
1.829  70.222020
1.828  70.198085
1.827  70.190301
1.826  70.206176
1.825  70.207866
1.824  70.259728
1.823  70.262338
1.822  70.196346
1.821  70.256437
1.820  70.274420
1.819  70.279918
1.818  70.258631
1.817  70.261089
1.816  70.265326
1.815  70.295689
1.814  70.273531
1.813  70.264940
1.812  70.250525
1.811  70.242640
1.810  70.301447
1.809  70.282406
1.808  70.276634
1.807  70.271360
1.806  70.299705
1.805  70.309577
1.804  70.292865
1.803  70.242290
1.802  70.262120
1.801  70.273768
1.800  70.277101
1.799  70.213538
1.798  70.238628
1.797  70.274447
1.796  70.266905
1.795  70.317005
1.794  70.313172
1.793  70.233062
1.792  70.250740
1.791  70.270749
1.790  70.209043
1.789  70.206063
1.788  70.252209
1.787  70.248030
1.786  70.205691
1.785  70.228554
1.784  70.221566
1.783  70.243439
1.782  70.270384
1.781  70.239295
1.780  70.238895
1.779  70.206298
1.778  70.194431
1.777  70.249759
1.776  70.247843
1.775  70.253131
1.774  70.198928
1.773  70.185672
1.772  70.228212
1.771  70.196585
1.770  70.225934
1.769  70.247167
1.768  70.256645
1.767  70.276861
1.766  70.275405
1.765  70.268237
1.764  70.243386
1.763  70.243791
1.762  70.237939
1.761  70.220326
1.760  70.241111
1.759  70.270031
1.758  70.266336
1.757  70.198143
1.756  70.182999
1.755  70.263142
1.754  70.291753
1.753  70.345942
1.752  70.257568
1.751  70.227226
1.750  70.261076
1.749  70.283128
1.748  70.376854
1.747  70.389060
1.746  70.319900
1.745  70.363402
1.744  70.392176
1.743  70.362448
1.742  70.317411
1.741  70.311184
1.740  70.405919
1.739  70.385696
1.738  70.301912
1.737  70.364389
1.736  70.387822
1.735  70.377676
1.734  70.392535
1.733  70.379439
1.732  70.377956
1.731  70.369093
1.730  70.364048
1.729  70.379309
1.728  70.369598
1.727  70.429080
1.726  70.410983
1.725  70.359311
1.724  70.390685
1.723  70.352400
1.722  70.322977
1.721  70.345375
1.720  70.332148
1.719  70.406332
1.718  70.433747
1.717  70.377207
1.716  70.336657
1.715  70.361940
1.714  70.362336
1.713  70.314586
1.712  70.359101
1.711  70.354499
1.710  70.361490
1.709  70.388185
1.708  70.289925
1.707  70.291958
1.706  70.309012
1.705  70.344556
1.704  70.346668
1.703  70.347195
1.702  70.299618
1.701  70.288301
1.700  70.243396
1.699  70.254951
1.698  70.325345
1.697  70.274651
1.696  70.249903
1.695  70.325405
1.694  70.232767
1.693  70.248963
1.692  70.197237
1.691  70.297220
1.690  70.191969
1.689  70.260231
1.688  70.266157
1.687  70.296862
1.686  70.172345
1.685  70.220621
1.684  70.156569
1.683  70.156535
1.682  70.243549
1.681  70.232284
1.680  70.163075
1.679  70.314596
1.678  70.226507
1.677  70.229338
1.676  70.158341
1.675  70.203539
1.674  70.233009
1.673  70.076189
1.672  70.146328
1.671  70.180620
1.670  70.259488
1.669  70.216875
1.668  70.131740
1.667  70.117594
1.666  70.045315
1.665  70.188165
1.664  70.040217
1.663  70.062519
1.662  70.107463
1.661  70.139986
1.660  70.078451
1.659  70.159942
1.658  70.032027
1.657  70.094113
1.656  70.069472
1.655  70.018186
1.654  69.962267
1.653  70.097185
1.652  69.966118
1.651  70.201282
1.650  70.013161
1.649  70.059483
1.648  70.062607
1.647  70.026108
1.646  70.044317
1.645  70.017173
1.644  70.059453
1.643  70.048221
1.642  70.019157
1.641  70.004950
1.640  70.005933
1.639  70.006595
1.638  69.998817
1.637  70.040365
1.636  69.906955
1.635  70.063036
1.634  70.039728
1.633  70.003517
1.632  69.929511
1.631  69.866236
1.630  69.938218
1.629  69.934558
1.628  69.896704
1.627  69.955114
1.626  69.858830
1.625  70.014919
1.624  69.862989
1.623  69.910830
1.622  69.839435
1.621  69.914811
1.620  69.829923
1.619  69.912316
1.618  69.903625
1.617  69.844831
1.616  69.857345
1.615  69.938213
1.614  69.955411
1.613  69.950524
1.612  69.816769
1.611  69.824381
1.610  69.757301
1.609  69.852685
1.608  69.854698
1.607  69.807538
1.606  69.856986
1.605  69.807687
1.604  69.807751
1.603  69.788862
1.602  69.813798
1.601  69.775019
1.600  69.800330
1.599  69.796493
1.598  69.863682
1.597  69.685834
1.596  69.598740
1.595  69.693590
1.594  69.717118
1.593  69.612444
1.592  69.645880
1.591  69.686328
1.590  69.627654
1.589  69.670117
1.588  69.605018
1.587  69.572542
1.586  69.564470
1.585  69.538912
1.584  69.491825
1.583  69.499395
1.582  69.514836
1.581  69.560349
1.580  69.516733
1.579  69.505696
1.578  69.449814
1.577  69.441327
1.576  69.432451
1.575  69.355106
1.574  69.382245
1.573  69.432523
1.572  69.350685
1.571  69.317666
1.570  69.365442
1.569  69.363346
1.568  69.391918
1.567  69.364012
1.566  69.381402
1.565  69.387726
1.564  69.262532
1.563  69.196781
1.562  69.209550
1.561  69.322651
1.560  69.285655
1.559  69.214392
1.558  69.226625
1.557  69.202950
1.556  69.179789
1.555  69.212761
1.554  69.121568
1.553  69.116381
1.552  69.134905
1.551  69.133485
1.550  69.119213
1.549  69.151103
1.548  69.092320
1.547  69.101261
1.546  69.077380
1.545  69.099819
1.544  69.071140
1.543  69.068693
1.542  69.036994
1.541  69.017144
1.540  68.944314
1.539  68.966667
1.538  68.977522
1.537  68.935191
1.536  68.974302
1.535  68.927374
1.534  68.858802
1.533  68.836270
1.532  68.846816
1.531  68.856189
1.530  68.849146
1.529  68.741599
1.528  68.713360
1.527  68.792428
1.526  68.758071
1.525  68.739451
1.524  68.699909
1.523  68.686142
1.522  68.644780
1.521  68.561974
1.520  68.614202
1.519  68.582174
1.518  68.506529
1.517  68.536557
1.516  68.480572
1.515  68.433014
1.514  68.460571
1.513  68.394254
1.512  68.345149
1.511  68.415625
1.510  68.379438
1.509  68.303302
1.508  68.336031
1.507  68.310499
1.506  68.218723
1.505  68.205326
1.504  68.107517
1.503  68.061202
1.502  68.053946
1.501  68.050797
1.500  67.966669
1.499  67.979697
1.498  67.968824
1.497  67.910146
1.496  67.903204
1.495  67.827204
1.494  67.788592
1.493  67.779726
1.492  67.742811
1.491  67.715845
1.490  67.679192
1.489  67.635342
1.488  67.602447
1.487  67.522556
1.486  67.499279
1.485  67.440276
1.484  67.381391
1.483  67.354302
1.482  67.369987
1.481  67.329783
1.480  67.238230
1.479  67.223645
1.478  67.154067
1.477  67.094153
1.476  67.077416
1.475  67.030918
1.474  67.046362
1.473  67.010789
1.472  66.993341
1.471  67.013948
1.470  66.930179
1.469  66.866998
1.468  66.874265
1.467  66.892298
1.466  66.855566
1.465  66.864621
1.464  66.881836
1.463  66.836127
1.462  66.795559
1.461  66.751786
1.460  66.799708
1.459  66.771032
1.458  66.733325
1.457  66.686616
1.456  66.703702
1.455  66.680553
1.454  66.670987
1.453  66.641336
1.452  66.705841
1.451  66.627629
1.450  66.640046
1.449  66.597295
1.448  66.590489
1.447  66.589253
1.446  66.600401
1.445  66.595908
1.444  66.545796
1.443  66.560976
1.442  66.538685
1.441  66.508788
1.440  66.557957
1.439  66.491288
1.438  66.549147
1.437  66.548006
1.436  66.468832
1.435  66.482090
1.434  66.475027
1.433  66.541311
1.432  66.439630
1.431  66.445741
1.430  66.430100
1.429  66.419045
1.428  66.420734
1.427  66.331561
1.426  66.299627
1.425  66.297134
1.424  66.268223
1.423  66.159894
1.422  66.053689
1.421  65.997184
1.420  65.881293
1.419  65.693511
1.418  65.555724
1.417  65.436528
1.416  65.272561
1.415  65.078209
1.414  64.914223
1.413  64.868484
1.412  64.783416
1.411  64.938188
1.410  65.000576
1.409  65.050739
1.408  65.290043
1.407  65.227631
1.406  65.367439
1.405  65.466836
1.404  65.628054
1.403  65.722587
1.402  65.807983
1.401  66.024287
1.400  66.133608
1.399  66.248236
1.398  66.475898
1.397  66.646664
1.396  66.880346
1.395  67.072055
1.394  67.337219
1.393  67.330393
1.392  67.554357
1.391  67.751941
1.390  67.841486
1.389  67.814354
1.388  67.958520
1.387  67.953222
1.386  68.046505
1.385  68.173883
1.384  68.141935
1.383  68.180123
1.382  68.183152
1.381  68.146123
1.380  68.231535
1.379  68.306330
1.378  68.209667
1.377  68.280629
1.376  68.236896
1.375  68.159726
1.374  68.193371
1.373  68.218177
1.372  68.264243
1.371  68.172215
1.370  68.255308
1.369  68.264798
1.368  68.221184
1.367  68.204098
1.366  68.334688
1.365  68.242271
1.364  68.416452
1.363  68.253174
1.362  68.198351
1.361  68.229358
1.360  68.219422
1.359  68.189563
1.358  68.296052
1.357  68.230971
1.356  68.288393
1.355  68.135403
1.354  68.311255
1.353  68.205267
1.352  68.308929
1.351  68.260358
1.350  68.250492
1.349  68.080202
1.348  68.198244
1.347  68.188892
1.346  68.205003
1.345  68.261543
1.344  68.169671
1.343  68.200115
1.342  68.129720
1.341  68.230961
1.340  68.227085
1.339  68.102263
1.338  68.240462
1.337  68.008499
1.336  68.317401
1.335  68.146725
1.334  68.238441
1.333  68.075610
1.332  68.079920
1.331  68.150445
1.330  68.047635
1.329  68.150689
1.328  68.184780
1.327  68.122645
1.326  68.090563
1.325  68.146518
1.324  68.050005
1.323  68.053743
1.322  68.143773
1.321  68.134727
1.320  68.130894
1.319  68.082635
1.318  68.116579
1.317  68.092933
1.316  68.064370
1.315  68.089375
1.314  68.034163
1.313  68.013854
1.312  68.055809
1.311  68.006682
1.310  68.027530
1.309  68.080683
1.308  68.082028
1.307  68.063830
1.306  68.095508
1.305  67.991558
1.304  68.070368
1.303  68.079837
1.302  68.013951
1.301  68.037441
1.300  68.002042
1.299  68.017294
1.298  68.018316
1.297  67.974005
1.296  68.034225
1.295  67.992497
1.294  68.012099
1.293  68.005719
1.292  68.006225
1.291  67.995488
1.290  68.040780
1.289  67.954884
1.288  67.932120
1.287  67.971868
1.286  67.989147
1.285  67.940197
1.284  67.977051
1.283  67.976792
1.282  67.954414
1.281  67.968133
1.280  67.976910
1.279  67.981846
1.278  67.894344
1.277  67.914520
1.276  67.966025
1.275  67.922673
1.274  67.990946
1.273  67.905045
1.272  67.928860
1.271  67.955735
1.270  67.951522
1.269  67.832816
1.268  67.906642
1.267  67.881439
1.266  67.871895
1.265  67.855304
1.264  67.869298
1.263  67.934550
1.262  67.912232
1.261  67.831758
1.260  67.820045
1.259  67.909537
1.258  67.942996
1.257  67.890557
1.256  67.896013
1.255  67.821360
1.254  67.892728
1.253  67.911547
1.252  67.896820
1.251  67.864281
1.250  67.874523
1.249  67.835324
1.248  67.800005
1.247  67.857542
1.246  67.850585
1.245  67.847316
1.244  67.856521
1.243  67.777470
1.242  67.823102
1.241  67.829613
1.240  67.857253
1.239  67.880728
1.238  67.813540
1.237  67.844420
1.236  67.891106
1.235  67.875994
1.234  67.823477
1.233  67.786886
1.232  67.797750
1.231  67.834425
1.230  67.895211
1.229  67.878511
1.228  67.851318
1.227  67.883156
1.226  67.847647
1.225  67.801291
1.224  67.844485
1.223  67.875329
1.222  67.844743
1.221  67.807504
1.220  67.850656
1.219  67.889488
1.218  67.887492
1.217  67.860711
1.216  67.836009
1.215  67.854187
1.214  67.834852
1.213  67.805476
1.212  67.817183
1.211  67.846294
1.210  67.815122
1.209  67.809381
1.208  67.874111
1.207  67.870363
1.206  67.832148
1.205  67.800403
1.204  67.766977
1.203  67.834969
1.202  67.854745
1.201  67.800766
1.200  67.797070
1.199  67.818868
1.198  67.825448
1.197  67.824525
1.196  67.828091
1.195  67.858931
1.194  67.906442
1.193  67.906029
1.192  67.853170
1.191  67.908267
1.190  67.922970
1.189  67.935514
1.188  67.902939
1.187  67.928519
1.186  67.855116
1.185  67.849782
1.184  67.870993
1.183  67.907753
1.182  67.892806
1.181  67.967275
1.180  67.908908
1.179  67.879398
1.178  67.897895
1.177  67.926424
1.176  67.938056
1.175  67.999379
1.174  67.927444
1.173  67.973173
1.172  68.018038
1.171  67.990697
1.170  67.951530
1.169  67.943045
1.168  67.945143
1.167  68.011955
1.166  68.031322
1.165  68.003210
1.164  68.004345
1.163  68.046256
1.162  68.047974
1.161  67.974199
1.160  67.987758
1.159  68.068770
1.158  68.016323
1.157  68.007689
1.156  68.023836
1.155  68.087755
1.154  68.152775
1.153  68.083666
1.152  68.069576
1.151  68.076987
1.150  68.112460
1.149  68.213460
1.148  68.163312
1.147  68.155913
1.146  68.122990
1.145  68.125044
1.144  68.142588
1.143  68.197691
1.142  68.189640
1.141  68.148443
1.140  68.191130
1.139  68.298333
1.138  68.246944
1.137  68.282860
1.136  68.198864
1.135  68.296829
1.134  68.247678
1.133  68.271661
1.132  68.303711
1.131  68.346334
1.130  68.310622
1.129  68.300250
1.128  68.275791
1.127  68.295195
1.126  68.357497
1.125  68.360981
1.124  68.286573
1.123  68.395748
1.122  68.397817
1.121  68.472106
1.120  68.302328
1.119  68.479204
1.118  68.472965
1.117  68.527829
1.116  68.480539
1.115  68.510998
1.114  68.480084
1.113  68.481944
1.112  68.447903
1.111  68.503468
1.110  68.507760
1.109  68.495912
1.108  68.531355
1.107  68.521875
1.106  68.480041
1.105  68.623157
1.104  68.602335
1.103  68.553042
1.102  68.584451
1.101  68.646936
1.100  68.582520
1.099  68.600790
1.098  68.649741
1.097  68.671038
1.096  68.652044
1.095  68.651001
1.094  68.650516
1.093  68.722974
1.092  68.691430
1.091  68.661008
1.090  68.649623
1.089  68.672984
1.088  68.645931
1.087  68.754497
1.086  68.764626
1.085  68.805249
1.084  68.740701
1.083  68.748503
1.082  68.791895
1.081  68.876789
1.080  68.761218
1.079  68.761622
1.078  68.825493
1.077  68.930996
1.076  68.901489
1.075  68.837793
1.074  68.909054
1.073  68.959503
1.072  68.895497
1.071  68.922269
1.070  68.901484
1.069  68.938879
1.068  68.923161
1.067  69.021337
1.066  68.895167
1.065  68.938302
1.064  68.958809
1.063  69.074279
1.062  69.074605
1.061  69.046234
1.060  68.982893
1.059  69.073143
1.058  69.014704
1.057  69.010871
1.056  69.091037
1.055  69.088897
1.054  69.102275
1.053  69.152755
1.052  69.119053
1.051  69.186193
1.050  69.186587
1.049  69.166379
1.048  69.154891
1.047  69.142290
1.046  69.130064
1.045  69.206498
1.044  69.191582
1.043  69.231325
1.042  69.270863
1.041  69.323320
1.040  69.215549
1.039  69.326476
1.038  69.285899
1.037  69.299073
1.036  69.303585
1.035  69.308790
1.034  69.353888
1.033  69.252060
1.032  69.283443
1.031  69.370001
1.030  69.335299
1.029  69.405933
1.028  69.383364
1.027  69.359900
1.026  69.395105
1.025  69.440725
1.024  69.355790
1.023  69.432713
1.022  69.447093
1.021  69.403235
1.020  69.481330
1.019  69.495350
1.018  69.507802
1.017  69.539303
1.016  69.469615
1.015  69.533090
1.014  69.517048
1.013  69.526619
1.012  69.610834
1.011  69.605742
1.010  69.565752
1.009  69.561995
1.008  69.600179
1.007  69.560047
1.006  69.598913
1.005  69.562541
1.004  69.611074
1.003  69.671696
1.002  69.618587
1.001  69.638849
1.000  69.660577
0.999  69.734877
0.998  69.656617
0.997  69.630236
0.996  69.697267
0.995  69.719177
0.994  69.683121
0.993  69.690221
0.992  69.756109
0.991  69.785115
0.990  69.735175
0.989  69.770489
0.988  69.740151
0.987  69.683052
0.986  69.789361
0.985  69.789895
0.984  69.788254
0.983  69.806719
0.982  69.820865
0.981  69.850340
0.980  69.806189
0.979  69.869984
0.978  69.820211
0.977  69.776230
0.976  69.791151
0.975  69.850206
0.974  69.902004
0.973  69.886300
0.972  69.796829
0.971  69.784099
0.970  69.811442
0.969  69.866361
0.968  69.796897
0.967  69.807566
0.966  69.831543
0.965  69.887070
0.964  69.947641
0.963  69.891759
0.962  69.826612
0.961  69.871851
0.960  69.897268
0.959  69.883245
0.958  69.887117
0.957  69.953303
0.956  69.965017
0.955  69.932849
0.954  69.970131
0.953  70.016047
0.952  69.970446
0.951  69.955212
0.950  70.011786
0.949  70.026933
0.948  70.037537
0.947  70.035436
0.946  69.998927
0.945  70.031139
0.944  70.075931
0.943  70.109435
0.942  70.081120
0.941  70.099720
0.940  70.139743
0.939  70.122402
0.938  70.111279
0.937  70.130773
0.936  70.102154
0.935  70.109939
0.934  70.109326
0.933  70.093615
0.932  70.137601
0.931  70.172944
0.930  70.118193
0.929  70.141177
0.928  70.144705
0.927  70.134633
0.926  70.154375
0.925  70.148208
0.924  70.167686
0.923  70.192126
0.922  70.209733
0.921  70.193279
0.920  70.202699
0.919  70.191074
0.918  70.173740
0.917  70.186673
0.916  70.242897
0.915  70.243306
0.914  70.222432
0.913  70.196492
0.912  70.187736
0.911  70.148761
0.910  70.177901
0.909  70.213602
0.908  70.255261
0.907  70.302029
0.906  70.306521
0.905  70.223849
0.904  70.261687
0.903  70.302492
0.902  70.288632
0.901  70.283849
0.900  70.295028
0.899  70.325216
0.898  70.253404
0.897  70.237729
0.896  70.284361
0.895  70.204340
0.894  70.244101
0.893  70.270768
0.892  70.280569
0.891  70.275369
0.890  70.280858
0.889  70.260939
0.888  70.300697
0.887  70.306257
0.886  70.334895
0.885  70.274641
0.884  70.284816
0.883  70.316325
0.882  70.314643
0.881  70.332883
0.880  70.339261
0.879  70.359457
0.878  70.299507
0.877  70.309216
0.876  70.387110
0.875  70.281925
0.874  70.329549
0.873  70.277026
0.872  70.324074
0.871  70.330503
0.870  70.341083
0.869  70.331039
0.868  70.336041
0.867  70.344166
0.866  70.331928
0.865  70.370150
0.864  70.358897
0.863  70.384307
0.862  70.390969
0.861  70.331990
0.860  70.511414
0.859  70.541166
0.858  70.351019
0.857  70.518880
0.856  70.509310
0.855  70.346011
0.854  70.479581
0.853  70.495137
0.852  70.367141
0.851  70.425261
0.850  70.497203
0.849  70.410930
0.848  70.390267
0.847  70.433640
0.846  70.419105
0.845  70.431800
0.844  70.474587
0.843  70.447234
0.842  70.511611
0.841  70.421818
0.840  70.476824
0.839  70.467793
0.838  70.430978
0.837  70.469314
0.836  70.490897
0.835  70.462846
0.834  70.457101
0.833  70.469563
0.832  70.392731
0.831  70.472356
0.830  70.540320
0.829  70.456785
0.828  70.444953
0.827  70.458885
0.826  70.399202
0.825  70.431162
0.824  70.464276
0.823  70.417092
0.822  70.454331
0.821  70.499852
0.820  70.471134
0.819  70.469934
0.818  70.501949
0.817  70.480379
0.816  70.427842
0.815  70.469842
0.814  70.480136
0.813  70.387687
0.812  70.457149
0.811  70.472744
0.810  70.417109
0.809  70.454153
0.808  70.481300
0.807  70.420569
0.806  70.474715
0.805  70.443192
0.804  70.470573
0.803  70.477862
0.802  70.427510
0.801  70.456318
0.800  70.405641
0.799  70.453380
0.798  70.445976
0.797  70.408268
0.796  70.352650
0.795  70.391669
0.794  70.382255
0.793  70.350653
0.792  70.366762
0.791  70.363073
0.790  70.367502
0.789  70.363871
0.788  70.389510
0.787  70.370882
0.786  70.429156
0.785  70.339831
0.784  70.388800
0.783  70.385584
0.782  70.382343
0.781  70.346012
0.780  70.373696
0.779  70.332634
0.778  70.343069
0.777  70.366965
0.776  70.346030
0.775  70.317621
0.774  70.326086
0.773  70.284316
0.772  70.276429
0.771  70.343385
0.770  70.311146
0.769  70.298163
0.768  70.300870
0.767  70.323439
0.766  70.310475
0.765  70.305166
0.764  70.327273
0.763  70.289149
0.762  70.306983
0.761  70.327538
0.760  70.322920
0.759  70.287113
0.758  70.297959
0.757  70.307700
0.756  70.304081
0.755  70.305639
0.754  70.288536
0.753  70.318163
0.752  70.301076
0.751  70.293563
0.750  70.273952
0.749  70.297497
0.748  70.298803
0.747  70.310292
0.746  70.272879
0.745  70.273097
0.744  70.293956
0.743  70.284601
0.742  70.274512
0.741  70.292582
0.740  70.271086
0.739  70.278799
0.738  70.285472
0.737  70.272718
0.736  70.265777
0.735  70.263150
0.734  70.280903
0.733  70.268478
0.732  70.262942
0.731  70.273358
0.730  70.254612
0.729  70.259034
0.728  70.266740
0.727  70.291670
0.726  70.284107
0.725  70.277761
0.724  70.258200
0.723  70.274392
0.722  70.262192
0.721  70.258387
0.720  70.249814
0.719  70.278258
0.718  70.248029
0.717  70.238051
0.716  70.251053
0.715  70.253753
0.714  70.263301
0.713  70.261148
0.712  70.252789
0.711  70.272286
0.710  70.275860
0.709  70.252197
0.708  70.242369
0.707  70.239745
0.706  70.245361
0.705  70.245640
0.704  70.251014
0.703  70.244863
0.702  70.242886
0.701  70.252797
0.700  70.241776
0.699  70.230035
0.698  70.214511
0.697  70.202316
0.696  70.232562
0.695  70.259286
0.694  70.244023
0.693  70.238686
0.692  70.205687
0.691  70.211761
0.690  70.223146
0.689  70.222500
0.688  70.214628
0.687  70.210533
0.686  70.192830
0.685  70.198311
0.684  70.193240
0.683  70.188786
0.682  70.196704
0.681  70.205851
0.680  70.194731
0.679  70.190525
0.678  70.198620
0.677  70.193593
0.676  70.206770
0.675  70.199524
0.674  70.195016
0.673  70.207673
0.672  70.216258
0.671  70.203412
0.670  70.181483
0.669  70.183777
0.668  70.182093
0.667  70.174347
0.666  70.182676
0.665  70.189200
0.664  70.187154
0.663  70.188552
0.662  70.187282
0.661  70.183561
0.660  70.171164
0.659  70.159287
0.658  70.172877
0.657  70.191413
0.656  70.170112
0.655  70.159292
0.654  70.165103
0.653  70.158154
0.652  70.155626
0.651  70.157657
0.650  70.138353
0.649  70.137121
0.648  70.151135
0.647  70.153266
0.646  70.150509
0.645  70.149366
0.644  70.141801
0.643  70.144498
0.642  70.142910
0.641  70.133298
0.640  70.127614
0.639  70.120512
0.638  70.111216
0.637  70.107319
0.636  70.110455
0.635  70.098691
0.634  70.088608
0.633  70.108074
0.632  70.117188
0.631  70.110905
0.630  70.083203
0.629  70.058589
0.628  70.074358
0.627  70.077312
0.626  70.055845
0.625  70.030523
0.624  70.039266
0.623  70.049621
0.622  70.027343
0.621  70.018209
0.620  70.011820
0.619  70.004952
0.618  69.994498
0.617  69.986756
0.616  69.986129
0.615  69.979905
0.614  69.968958
0.613  69.954797
0.612  69.940353
0.611  69.933276
0.610  69.917375
0.609  69.887705
0.608  69.866070
0.607  69.852532
0.606  69.843788
0.605  69.829616
0.604  69.812354
0.603  69.797318
0.602  69.784321
0.601  69.765576
0.600  69.747466
0.599  69.746983
0.598  69.741133
0.597  69.733512
0.596  69.723131
0.595  69.707709
0.594  69.695879
0.593  69.682848
0.592  69.637464
0.591  69.607870
0.590  69.586054
0.589  69.563221
0.588  69.530475
0.587  69.512891
0.586  69.487884
0.585  69.454319
0.584  69.427932
0.583  69.406884
0.582  69.365944
0.581  69.336436
0.580  69.304125
0.579  69.263921
0.578  69.232659
0.577  69.194270
0.576  69.162751
0.575  69.139589
0.574  69.104364
0.573  69.065170
0.572  69.055379
0.571  69.008962
0.570  68.979966
0.569  68.951168
0.568  68.909676
0.567  68.868205
0.566  68.823264
0.565  68.788310
0.564  68.754115
0.563  68.726252
0.562  68.674150
0.561  68.642058
0.560  68.609248
0.559  68.589798
0.558  68.535659
0.557  68.507593
0.556  68.481982
0.555  68.448302
0.554  68.398849
0.553  68.373407
0.552  68.357162
0.551  68.318946
0.550  68.286319
0.549  68.255940
0.548  68.233985
0.547  68.205660
0.546  68.183991
0.545  68.162840
0.544  68.142026
0.543  68.122882
0.542  68.096652
0.541  68.092130
0.540  68.070870
0.539  68.051757
0.538  68.033343
0.537  68.025633
0.536  68.010422
0.535  68.011715
0.534  67.998661
0.533  68.003511
0.532  67.997592
0.531  67.998053
0.530  68.012150
0.529  68.007418
0.528  68.015633
0.527  68.015434
0.526  68.029392
0.525  68.029253
0.524  68.029839
0.523  68.027021
0.522  68.042795
0.521  68.065701
0.520  68.071055
0.519  68.064819
0.518  68.090711
0.517  68.114000
0.516  68.110580
0.515  68.111281
0.514  68.123371
0.513  68.126655
0.512  68.138210
0.511  68.146220
0.510  68.139412
0.509  68.156989
0.508  68.145770
0.507  68.139369
0.506  68.143671
0.505  68.140755
0.504  68.143923
0.503  68.160270
0.502  68.142498
0.501  68.142313
0.500  68.125049
0.499  68.121305
0.498  68.098226
0.497  68.091368
0.496  68.049862
0.495  68.046315
0.494  68.008027
0.493  68.012002
0.492  67.958313
0.491  67.899356
0.490  67.870202
0.489  67.826896
0.488  67.790432
0.487  67.753303
0.486  67.710311
0.485  67.696441
0.484  67.638939
0.483  67.618564
0.482  67.589470
0.481  67.554354
0.480  67.517021
0.479  67.483876
0.478  67.447591
0.477  67.425197
0.476  67.390374
0.475  67.342021
0.474  67.313418
0.473  67.283644
0.472  67.237165
0.471  67.208232
0.470  67.181544
0.469  67.135305
0.468  67.103948
0.467  67.063582
0.466  66.999987
0.465  66.949868
0.464  66.909816
0.463  66.844452
0.462  66.800558
0.461  66.744020
0.460  66.672414
0.459  66.600505
0.458  66.524425
0.457  66.460325
0.456  66.390483
0.455  66.336694
0.454  66.267279
0.453  66.191450
0.452  66.144504
0.451  66.103082
0.450  66.043924
0.449  66.004383
0.448  65.962316
0.447  65.896598
0.446  65.852394
0.445  65.806837
0.444  65.766013
0.443  65.708430
0.442  65.663313
0.441  65.608576
0.440  65.586983
0.439  65.567363
0.438  65.504507
0.437  65.466210
0.436  65.417866
0.435  65.391565
0.434  65.321389
0.433  65.259230
0.432  65.223113
0.431  65.171933
0.430  65.137187
0.429  65.106104
0.428  65.053630
0.427  65.009379
0.426  64.968219
0.425  64.928913
0.424  64.894871
0.423  64.854087
0.422  64.810719
0.421  64.766349
0.420  64.748661
0.419  64.703338
0.418  64.677008
0.417  64.641366
0.416  64.602536
0.415  64.571676
0.414  64.533694
0.413  64.469291
0.412  64.437068
0.411  64.394912
0.410  64.353561
0.409  64.297980
0.408  64.224405
0.407  64.161887
0.406  64.093083
0.405  64.023325
0.404  63.949071
0.403  63.866838
0.402  63.784159
0.401  63.709363
0.400  63.628182
