Name: Arsenopyrite FeAsS
Type: Mineral
Class: Sulfides
Subclass: 
Particle Size: 125-500um
Sample No.: S-5A
Owner: JPL
Wavelength range: IR
Origin: USA, Nevada, Lander County, Austin
Collected by Burminco
Description: 





Measurement: Hemispherical reflectance
First Column: X
Second Column: Y
X Units:  Wavelength (micrometers)
Y Units:  Reflectance (percent)
First X Value: 15.3853
Last X Value: 2.00032
Number of X Values: 2256
Additional information: s05aa.txt
 
15.3853	11.291
15.3397	11.3707
15.2945	11.2443
15.2495	11.3123
15.2048	11.49
15.1603	11.7414
15.1161	11.5578
15.0722	11.274
15.0285	11.3237
14.9851	11.2949
14.9419	11.2696
14.8989	11.1893
14.8563	11.1754
14.8138	11.4486
14.7716	11.6138
14.7296	11.4007
14.6879	11.2998
14.6464	11.3753
14.6052	11.4313
14.5641	11.408
14.5233	11.5933
14.4828	11.7311
14.4424	11.5573
14.4023	11.426
14.3624	11.3907
14.3227	11.2695
14.2833	11.154
14.244	11.0517
14.205	11.0276
14.1662	11.2069
14.1276	11.4422
14.0892	11.5339
14.051	11.4346
14.0131	11.2985
13.9753	11.2082
13.9377	11.2595
13.9004	11.4012
13.8632	11.4955
13.8262	11.6347
13.7895	11.6301
13.7529	11.4449
13.7165	11.3358
13.6803	11.4906
13.6443	11.7028
13.6085	11.8117
13.5729	11.7655
13.5374	11.7342
13.5022	11.7304
13.4671	11.7759
13.4322	11.8016
13.3975	11.8208
13.363	11.9478
13.3286	12.0301
13.2944	12.0942
13.2604	12.055
13.2266	12.0768
13.193	12.1711
13.1595	12.1817
13.1262	12.2189
13.093	12.3706
13.06	12.4704
13.0272	12.775
12.9946	13.0283
12.9621	13.2213
12.9298	13.5348
12.8976	13.869
12.8656	14.0992
12.8337	14.3542
12.8021	14.5881
12.7705	14.4223
12.7391	14.1109
12.7079	13.675
12.6769	13.2746
12.6459	13.0747
12.6152	13.1799
12.5845	13.4425
12.5541	13.7896
12.5238	14.0426
12.4936	13.9349
12.4635	13.6871
12.4337	13.1936
12.4039	12.4618
12.3743	11.6421
12.3448	10.9436
12.3155	10.6449
12.2863	10.6269
12.2573	10.6677
12.2284	10.6583
12.1996	10.7502
12.171	11.0573
12.1425	11.0354
12.1141	10.9597
12.0859	10.9962
12.0578	11.0689
12.0298	11.2986
12.0019	11.4381
11.9742	11.303
11.9466	11.2343
11.9192	11.2223
11.8918	11.2539
11.8646	11.3006
11.8375	11.4085
11.8106	11.5388
11.7837	11.5348
11.757	11.4249
11.7304	11.4834
11.7039	11.5167
11.6776	11.4312
11.6513	11.4531
11.6252	11.5385
11.5992	11.5098
11.5733	11.5679
11.5475	11.5934
11.5219	11.4922
11.4963	11.4184
11.4709	11.5074
11.4455	11.6857
11.4203	11.6694
11.3952	11.61
11.3702	11.5342
11.3454	11.5381
11.3206	11.6045
11.2959	11.676
11.2714	11.7674
11.2469	11.812
11.2226	11.6767
11.1983	11.6015
11.1742	11.568
11.1502	11.5459
11.1263	11.5764
11.1024	11.6558
11.0787	11.7189
11.0551	11.6441
11.0316	11.6558
11.0081	11.7629
10.9848	11.8395
10.9616	11.7193
10.9385	11.6667
10.9154	11.7556
10.8925	11.8267
10.8697	11.8656
10.8469	11.9769
10.8243	11.9532
10.8017	11.7698
10.7793	11.8405
10.7569	12.0323
10.7346	12.0934
10.7125	12.0813
10.6904	12.0932
10.6684	12.1458
10.6465	12.2272
10.6247	12.1858
10.6029	12.1118
10.5813	12.0353
10.5597	12.0257
10.5383	12.0415
10.5169	12.1301
10.4956	12.1974
10.4744	12.2117
10.4533	12.1914
10.4323	12.0644
10.4113	12.1147
10.3904	12.2378
10.3697	12.3471
10.349	12.397
10.3284	12.458
10.3078	12.5197
10.2874	12.4628
10.267	12.4408
10.2467	12.5436
10.2265	12.5958
10.2064	12.6192
10.1863	12.6472
10.1663	12.5763
10.1464	12.561
10.1266	12.6757
10.1069	12.7143
10.0872	12.8374
10.0676	12.9591
10.0481	13.0092
10.0287	13.0075
10.0093	13.1009
9.99005	13.2268
9.97084	13.3792
9.95169	13.4687
9.93263	13.4738
9.91364	13.5385
9.89472	13.5427
9.87587	13.4968
9.8571	13.6297
9.83839	13.7826
9.81976	13.9308
9.80119	14.0723
9.78271	14.1811
9.76428	14.279
9.74592	14.4059
9.72764	14.4996
9.70943	14.5983
9.69128	14.7103
9.6732	14.8647
9.65518	15.1921
9.63724	15.4572
9.61935	15.5267
9.60155	15.6913
9.5838	15.986
9.56611	16.2048
9.5485	16.4844
9.53094	16.7847
9.51345	17.0806
9.49604	17.4505
9.47867	17.9965
9.46137	18.7716
9.44414	19.5077
9.42697	20.0001
9.40986	20.7401
9.39281	21.7123
9.37583	22.6794
9.35891	23.5908
9.34204	24.474
9.32524	25.2097
9.3085	25.6994
9.29182	25.9434
9.27519	26.0002
9.25863	26.2974
9.24213	26.6386
9.22568	26.721
9.2093	26.7825
9.19297	26.8484
9.17669	26.7374
9.16048	26.71
9.14433	26.8994
9.12823	26.994
9.11218	26.9751
9.0962	26.8809
9.08027	26.9055
9.06439	26.9202
9.04858	26.9048
9.03281	26.9482
9.0171	26.9671
9.00145	26.9858
8.98585	26.7532
8.9703	26.4865
8.9548	26.4746
8.93937	26.4167
8.92398	26.2433
8.90865	26.1695
8.89337	26.116
8.87814	25.8981
8.86296	25.7225
8.84784	25.5778
8.83277	25.3588
8.81774	25.2272
8.80277	24.9589
8.78786	24.7747
8.77298	24.6959
8.75816	24.5834
8.7434	24.3513
8.72868	23.8889
8.714	23.5084
8.69938	23.1898
8.68481	22.8311
8.67029	22.2592
8.65581	21.4163
8.64139	20.5453
8.62701	20.1236
8.61268	20.6138
8.5984	21.559
8.58416	22.4738
8.56997	23.1861
8.55583	23.5843
8.54174	23.7739
8.52769	23.9125
8.51368	24.0713
8.49973	24.0533
8.48582	24.0579
8.47195	24.0511
8.45813	24.09
8.44436	24.1918
8.43062	24.2618
8.41693	24.2984
8.4033	24.2607
8.3897	24.132
8.37614	24.0778
8.36264	24.0292
8.34917	24.0431
8.33574	24.0183
8.32236	23.971
8.30903	24.1395
8.29573	24.2772
8.28248	24.2709
8.26927	24.2529
8.2561	24.2014
8.24298	24.2391
8.2299	24.3118
8.21685	24.1836
8.20385	23.9904
8.19089	23.7922
8.17797	23.493
8.16509	23.1246
8.15225	22.6781
8.13946	22.0228
8.1267	21.3432
8.11398	20.6692
8.10131	19.9588
8.08867	19.4245
8.07606	18.9491
8.0635	18.315
8.05099	17.7939
8.0385	17.3118
8.02606	16.8112
8.01366	16.3485
8.00129	16.0534
7.98896	15.6457
7.97667	15.1825
7.96442	14.8157
7.9522	14.4537
7.94002	14.2179
7.92788	13.9407
7.91578	13.6536
7.90371	13.4497
7.89168	13.2253
7.87969	12.9551
7.86773	12.7049
7.85581	12.5038
7.84392	12.3283
7.83207	12.2283
7.82026	12.1254
7.80849	11.9883
7.79674	11.93
7.78503	11.929
7.77337	11.8238
7.76173	11.6296
7.75012	11.5405
7.73856	11.5017
7.72703	11.4548
7.71553	11.424
7.70406	11.4059
7.69263	11.3903
7.68123	11.2839
7.66987	11.1606
7.65855	11.1451
7.64725	11.1364
7.63598	11.0422
7.62475	10.9268
7.61356	10.904
7.60239	10.9036
7.59126	10.8861
7.58017	10.8319
7.5691	10.6983
7.55806	10.5503
7.54707	10.5497
7.5361	10.6478
7.52516	10.6418
7.51425	10.6353
7.50338	10.5786
7.49253	10.4807
7.48172	10.4955
7.47094	10.5645
7.46019	10.5307
7.44947	10.4952
7.43879	10.4628
7.42813	10.399
7.4175	10.4071
7.4069	10.4234
7.39634	10.4256
7.3858	10.3454
7.37529	10.3389
7.36482	10.3641
7.35437	10.3074
7.34396	10.3118
7.33357	10.3648
7.32321	10.3081
7.31288	10.3005
7.30258	10.4018
7.29231	10.427
7.28207	10.358
7.27185	10.3201
7.26167	10.3708
7.25152	10.4266
7.24139	10.3802
7.23129	10.3065
7.22122	10.3716
7.21117	10.4612
7.20116	10.5146
7.19117	10.4712
7.18121	10.3921
7.17128	10.4591
7.16137	10.4176
7.1515	10.3992
7.14164	10.403
7.13182	10.42
7.12203	10.4701
7.11225	10.5279
7.10251	10.5335
7.0928	10.444
7.08311	10.3977
7.07344	10.3932
7.06381	10.3836
7.0542	10.4153
7.04461	10.5254
7.03506	10.4538
7.02552	10.3946
7.01601	10.4411
7.00653	10.4702
6.99708	10.4746
6.98765	10.4559
6.97824	10.3832
6.96886	10.4124
6.95951	10.4282
6.95018	10.3256
6.94087	10.3502
6.9316	10.3898
6.92234	10.377
6.91311	10.3517
6.90391	10.3183
6.89473	10.3469
6.88557	10.3399
6.87644	10.357
6.86733	10.5396
6.85824	10.4981
6.84918	10.3884
6.84015	10.3083
6.83114	10.2262
6.82215	10.1595
6.81319	10.146
6.80424	10.1192
6.79532	10.1245
6.78643	10.1298
6.77756	10.0713
6.76871	10.013
6.75989	9.96623
6.75109	9.93335
6.74231	9.86286
6.73355	9.87597
6.72482	9.96928
6.71611	10.0408
6.70742	10.0243
6.69875	9.8865
6.69011	9.92759
6.68149	10.0255
6.67289	9.93608
6.66431	9.90108
6.65576	9.90706
6.64722	10.0339
6.63871	10.1588
6.63022	10.064
6.62175	9.99761
6.61331	9.9969
6.60488	10.0418
6.59648	10.1422
6.5881	10.1038
6.57974	9.98718
6.5714	9.95099
6.56308	9.85775
6.55478	9.85503
6.54651	9.8358
6.53825	9.8612
6.53001	9.93261
6.5218	9.97472
6.51361	10.0088
6.50544	10.1129
6.49729	10.3017
6.48915	10.2991
6.48104	10.2853
6.47295	10.3118
6.46488	10.2231
6.45683	10.2501
6.4488	10.246
6.44079	10.2605
6.4328	10.3028
6.42482	10.3935
6.41687	10.5744
6.40894	10.4783
6.40103	10.2971
6.39314	10.2862
6.38526	10.2403
6.37741	10.147
6.36957	10.078
6.36176	10.045
6.35396	10.1126
6.34618	10.1878
6.33843	10.0306
6.33069	9.93357
6.32297	9.94618
6.31527	9.90759
6.30758	9.81215
6.29992	9.69004
6.29227	9.73642
6.28465	9.74222
6.27704	9.65556
6.26945	9.55965
6.26188	9.53377
6.25432	9.58332
6.24679	9.65135
6.23927	9.65924
6.23177	9.68504
6.22429	9.62319
6.21683	9.56317
6.20938	9.57349
6.20195	9.60482
6.19454	9.66617
6.18715	9.69816
6.17978	9.62501
6.17242	9.65322
6.16508	9.71223
6.15776	9.76486
6.15045	9.75324
6.14317	9.74816
6.1359	9.77746
6.12864	9.80652
6.12141	9.97286
6.11419	10.1367
6.10699	10.0386
6.0998	9.89356
6.09263	9.89409
6.08549	10.0016
6.07835	10.1388
6.07123	10.1744
6.06413	10.1388
6.05705	10.2064
6.04998	10.422
6.04293	10.2914
6.0359	10.0935
6.02888	10.0728
6.02187	10.067
6.01489	10.056
6.00792	10.004
6.00096	10.0132
5.99403	10.1308
5.98711	10.1569
5.9802	10.038
5.97331	9.92009
5.96644	9.85596
5.95958	9.88375
5.95274	9.88943
5.94591	9.92412
5.9391	10.1168
5.9323	10.0489
5.92552	9.85264
5.91876	9.90837
5.91201	9.92681
5.90528	9.88908
5.89856	10.1296
5.89186	10.1876
5.88517	10.2323
5.8785	10.2325
5.87184	10.1246
5.8652	10.2194
5.85857	10.2402
5.85196	10.1688
5.84536	10.0841
5.83878	10.1545
5.83221	10.1956
5.82566	10.258
5.81912	10.364
5.81259	10.3681
5.80608	10.3695
5.79959	10.3099
5.79311	10.2548
5.78665	10.2894
5.78019	10.3765
5.77376	10.4406
5.76734	10.5922
5.76093	10.5705
5.75453	10.4058
5.74815	10.3798
5.74179	10.439
5.73543	10.4851
5.7291	10.4982
5.72277	10.5101
5.71646	10.5113
5.71017	10.5134
5.70389	10.4151
5.69762	10.4034
5.69136	10.3682
5.68513	10.3217
5.6789	10.3052
5.67268	10.2038
5.66648	10.1256
5.6603	10.1134
5.65413	10.1007
5.64797	10.1291
5.64182	10.1714
5.63569	10.0955
5.62957	9.995
5.62347	9.90083
5.61737	9.86747
5.61129	9.7449
5.60522	9.72104
5.59917	9.75583
5.59313	9.6775
5.5871	9.69984
5.58109	9.77065
5.57509	9.70487
5.5691	9.66432
5.56312	9.75289
5.55716	9.81336
5.55121	9.74989
5.54528	9.67199
5.53935	9.65605
5.53344	9.70799
5.52754	9.80842
5.52166	9.88706
5.51578	9.9019
5.50992	9.85768
5.50407	9.90532
5.49823	9.90894
5.49241	9.93693
5.4866	9.95543
5.4808	9.95324
5.47501	9.93837
5.46923	9.96535
5.46347	10.0463
5.45772	9.96692
5.45198	9.91122
5.44625	9.91634
5.44054	9.96583
5.43484	9.97393
5.42914	9.93714
5.42347	9.94909
5.4178	9.93171
5.41214	9.81452
5.4065	9.6607
5.40087	9.5883
5.39525	9.57928
5.38964	9.54996
5.38404	9.49848
5.37846	9.45721
5.37288	9.37799
5.36732	9.38081
5.36177	9.37414
5.35623	9.43969
5.35071	9.49408
5.34519	9.45165
5.33968	9.39953
5.33419	9.38555
5.32871	9.36798
5.32324	9.29525
5.31778	9.29399
5.31233	9.28501
5.30689	9.33311
5.30147	9.4445
5.29605	9.46428
5.29065	9.43223
5.28525	9.41318
5.27987	9.41697
5.2745	9.47538
5.26914	9.43667
5.26379	9.38694
5.25845	9.5127
5.25312	9.60749
5.24781	9.65763
5.2425	9.69467
5.23721	9.66903
5.23192	9.71127
5.22665	9.77677
5.22138	9.84021
5.21613	9.86248
5.21089	9.80853
5.20566	9.8318
5.20044	9.903
5.19522	9.90888
5.19002	9.88362
5.18483	9.91595
5.17965	9.89816
5.17448	9.82808
5.16933	9.77912
5.16418	9.82265
5.15904	9.86029
5.15391	9.84206
5.14879	9.86115
5.14368	9.83097
5.13859	9.77487
5.1335	9.7578
5.12842	9.77093
5.12335	9.75149
5.1183	9.72577
5.11325	9.75934
5.10821	9.74119
5.10318	9.67081
5.09817	9.70861
5.09316	9.7658
5.08816	9.7554
5.08317	9.74907
5.07819	9.72965
5.07322	9.70509
5.06826	9.62955
5.06331	9.61024
5.05837	9.61393
5.05344	9.66752
5.04852	9.68449
5.04361	9.62052
5.03871	9.58819
5.03382	9.60644
5.02894	9.61249
5.02406	9.64207
5.0192	9.65759
5.01435	9.64471
5.0095	9.65121
5.00467	9.58449
4.99984	9.56608
4.99502	9.61272
4.99021	9.66473
4.98542	9.70198
4.98063	9.72788
4.97585	9.71405
4.97108	9.70623
4.96632	9.7775
4.96156	9.76746
4.95682	9.76219
4.95209	9.86453
4.94736	9.93956
4.94264	9.98706
4.93794	9.93532
4.93324	9.95669
4.92855	10.0325
4.92387	10.0061
4.9192	9.99214
4.91453	10.0726
4.90988	10.2315
4.90524	10.3362
4.9006	10.3636
4.89597	10.3596
4.89135	10.4239
4.88674	10.5535
4.88214	10.7286
4.87755	10.86
4.87296	10.9218
4.86839	10.9506
4.86382	10.9677
4.85926	11.0542
4.85471	11.1628
4.85017	11.2384
4.84564	11.2424
4.84111	11.2367
4.8366	11.2985
4.83209	11.2693
4.82759	11.2418
4.8231	11.3303
4.81862	11.4034
4.81415	11.3484
4.80968	11.3604
4.80522	11.4154
4.80077	11.4304
4.79633	11.451
4.7919	11.4863
4.78747	11.5216
4.78306	11.4975
4.77865	11.4641
4.77425	11.5245
4.76986	11.5279
4.76547	11.4933
4.7611	11.5063
4.75673	11.5676
4.75237	11.5509
4.74802	11.5815
4.74367	11.6551
4.73934	11.7161
4.73501	11.6862
4.73069	11.6345
4.72638	11.5181
4.72207	11.4779
4.71777	11.5339
4.71348	11.5455
4.7092	11.5015
4.70493	11.4755
4.70066	11.4426
4.69641	11.4148
4.69216	11.3892
4.68791	11.3521
4.68368	11.3819
4.67945	11.4171
4.67523	11.3451
4.67102	11.3375
4.66682	11.3765
4.66262	11.3592
4.65843	11.3578
4.65425	11.4827
4.65007	11.6366
4.64591	11.6432
4.64175	11.6105
4.6376	11.6185
4.63345	11.5872
4.62932	11.5829
4.62519	11.6398
4.62106	11.6743
4.61695	11.6768
4.61284	11.6892
4.60874	11.702
4.60465	11.6675
4.60056	11.649
4.59648	11.6716
4.59241	11.6671
4.58835	11.6508
4.58429	11.6369
4.58024	11.6796
4.5762	11.754
4.57216	11.7154
4.56814	11.6589
4.56411	11.6401
4.5601	11.6331
4.55609	11.6252
4.55209	11.6244
4.5481	11.604
4.54411	11.5458
4.54013	11.5577
4.53616	11.5797
4.5322	11.5089
4.52824	11.4437
4.52429	11.4077
4.52034	11.3717
4.51641	11.3582
4.51247	11.3491
4.50855	11.2603
4.50463	11.133
4.50072	11.0802
4.49682	11.1578
4.49292	11.17
4.48903	11.1291
4.48515	11.1283
4.48127	11.0738
4.4774	11.0544
4.47354	11.1888
4.46968	11.2595
4.46584	11.1541
4.46199	11.1111
4.45815	11.1389
4.45432	11.1214
4.4505	11.1204
4.44668	11.155
4.44287	11.183
4.43907	11.204
4.43527	11.1745
4.43148	11.1959
4.4277	11.2512
4.42392	11.2569
4.42015	11.1645
4.41638	11.1664
4.41262	11.2289
4.40887	11.2719
4.40513	11.3085
4.40139	11.2753
4.39765	11.2214
4.39393	11.2298
4.39021	11.2748
4.38649	11.3388
4.38278	11.3778
4.37908	11.3957
4.37539	11.4552
4.3717	11.486
4.36801	11.4538
4.36434	11.4439
4.36067	11.494
4.357	11.5717
4.35335	11.6067
4.34969	11.5308
4.34605	11.5375
4.34241	11.6367
4.33877	11.6478
4.33514	11.5856
4.33152	11.5385
4.32791	11.5545
4.3243	11.6163
4.32069	11.6118
4.3171	11.5434
4.31351	11.5135
4.30992	11.5241
4.30634	11.5008
4.30277	11.4762
4.2992	11.4872
4.29564	11.5229
4.29208	11.5104
4.28853	11.4906
4.28499	11.5157
4.28145	11.5128
4.27792	11.5088
4.27439	11.5388
4.27087	11.5314
4.26735	11.4589
4.26384	11.4174
4.26034	11.5137
4.25684	11.5282
4.25335	11.4535
4.24986	11.4609
4.24638	11.4696
4.24291	11.4875
4.23944	11.5184
4.23598	11.5497
4.23252	11.4652
4.22906	11.4475
4.22562	11.5296
4.22218	11.518
4.21874	11.5192
4.21531	11.5618
4.21189	11.5039
4.20847	11.4532
4.20506	11.4873
4.20165	11.5328
4.19825	11.5161
4.19485	11.5052
4.19146	11.5349
4.18807	11.5522
4.18469	11.5752
4.18132	11.6573
4.17795	11.6623
4.17458	11.6689
4.17123	11.6559
4.16787	11.5645
4.16453	11.54
4.16118	11.6142
4.15785	11.6562
4.15451	11.5978
4.15119	11.539
4.14787	11.5926
4.14455	11.6432
4.14124	11.6761
4.13794	11.7198
4.13464	11.7098
4.13134	11.734
4.12805	11.7099
4.12477	11.6933
4.12149	11.6602
4.11822	11.6648
4.11495	11.6288
4.11168	11.5848
4.10843	11.5091
4.10517	11.6163
4.10192	11.7482
4.09868	11.7066
4.09545	11.6554
4.09221	11.6919
4.08899	11.7186
4.08576	11.7265
4.08255	11.7829
4.07933	11.7446
4.07613	11.6818
4.07292	11.7399
4.06973	11.7665
4.06654	11.727
4.06335	11.7043
4.06017	11.7517
4.05699	11.7015
4.05382	11.6242
4.05065	11.6615
4.04749	11.6463
4.04433	11.758
4.04118	11.7171
4.03803	11.6785
4.03489	11.7502
4.03175	11.7556
4.02862	11.7369
4.02549	11.7354
4.02237	11.7379
4.01925	11.7489
4.01614	11.7419
4.01303	11.6901
4.00993	11.6424
4.00683	11.6225
4.00373	11.5834
4.00064	11.6213
3.99756	11.7046
3.99448	11.7423
3.9914	11.7163
3.98833	11.6962
3.98527	11.7034
3.98221	11.6928
3.97915	11.6744
3.9761	11.6899
3.97305	11.783
3.97001	11.8369
3.96697	11.7595
3.96394	11.6906
3.96091	11.7455
3.95789	11.7602
3.95487	11.6967
3.95186	11.7453
3.94885	11.8562
3.94584	11.7973
3.94284	11.7361
3.93984	11.7532
3.93685	11.709
3.93386	11.6952
3.93088	11.6709
3.9279	11.7275
3.92493	11.7038
3.92196	11.606
3.919	11.6573
3.91604	11.7491
3.91308	11.7142
3.91013	11.6705
3.90718	11.7377
3.90424	11.802
3.9013	11.7992
3.89837	11.7838
3.89544	11.7478
3.89252	11.6659
3.8896	11.6113
3.88668	11.6387
3.88377	11.7111
3.88086	11.763
3.87796	11.7162
3.87506	11.687
3.87217	11.7387
3.86928	11.7128
3.86639	11.7082
3.86351	11.6227
3.86064	11.5495
3.85776	11.5965
3.8549	11.5754
3.85203	11.6516
3.84917	11.7523
3.84631	11.7217
3.84346	11.608
3.84062	11.5194
3.83777	11.5452
3.83494	11.5729
3.8321	11.5862
3.82927	11.6525
3.82644	11.7607
3.82362	11.7475
3.82081	11.6675
3.81799	11.6205
3.81518	11.5961
3.81238	11.6122
3.80958	11.5572
3.80678	11.4742
3.80399	11.446
3.8012	11.5767
3.79841	11.6575
3.79563	11.6023
3.79286	11.5175
3.79008	11.5075
3.78731	11.5601
3.78455	11.5517
3.78179	11.5254
3.77903	11.5459
3.77628	11.4725
3.77353	11.4322
3.77079	11.4771
3.76805	11.4743
3.76531	11.4562
3.76258	11.4212
3.75985	11.3646
3.75713	11.3459
3.7544	11.4315
3.75169	11.5223
3.74898	11.544
3.74627	11.4941
3.74356	11.4473
3.74086	11.5085
3.73816	11.5516
3.73547	11.4967
3.73278	11.4952
3.7301	11.3965
3.72741	11.3797
3.72474	11.4033
3.72206	11.425
3.71939	11.4764
3.71673	11.4469
3.71406	11.4032
3.71141	11.4178
3.70875	11.3434
3.7061	11.3009
3.70345	11.3672
3.70081	11.4626
3.69817	11.4911
3.69553	11.4638
3.6929	11.3985
3.69027	11.3936
3.68765	11.4568
3.68503	11.4068
3.68241	11.3712
3.6798	11.3666
3.67719	11.363
3.67458	11.3554
3.67198	11.3872
3.66938	11.3568
3.66678	11.3177
3.66419	11.376
3.66161	11.4839
3.65902	11.4303
3.65644	11.3312
3.65387	11.3109
3.65129	11.2735
3.64872	11.1945
3.64616	11.2631
3.64359	11.3309
3.64103	11.323
3.63848	11.2763
3.63593	11.2577
3.63338	11.2847
3.63084	11.3412
3.6283	11.3714
3.62576	11.4051
3.62322	11.418
3.62069	11.3526
3.61817	11.2693
3.61564	11.2405
3.61312	11.2377
3.61061	11.2101
3.6081	11.2266
3.60559	11.2365
3.60308	11.1982
3.60058	11.1844
3.59808	11.2589
3.59558	11.2332
3.59309	11.1464
3.59061	11.1441
3.58812	11.1796
3.58564	11.172
3.58316	11.1046
3.58069	10.9876
3.57822	10.9903
3.57575	11.0729
3.57328	11.0819
3.57082	11.0819
3.56836	11.1342
3.56591	11.1081
3.56346	11.0595
3.56101	11.0838
3.55857	11.072
3.55613	11.004
3.55369	11.056
3.55126	11.1893
3.54883	11.194
3.5464	11.105
3.54397	10.9894
3.54155	10.927
3.53914	10.9242
3.53672	10.927
3.53431	10.9722
3.5319	10.9749
3.5295	10.9904
3.5271	11.023
3.5247	11.0193
3.52231	10.9389
3.51991	10.8767
3.51753	10.933
3.51514	11.0394
3.51276	11.0145
3.51038	10.9113
3.50801	10.8549
3.50563	10.8866
3.50327	10.9239
3.5009	10.9282
3.49854	10.8924
3.49618	10.8469
3.49382	10.7887
3.49147	10.7599
3.48912	10.7775
3.48677	10.8542
3.48443	10.9238
3.48209	10.9084
3.47975	10.8238
3.47742	10.7569
3.47509	10.8178
3.47276	10.8359
3.47044	10.8116
3.46812	10.8149
3.4658	10.7572
3.46348	10.7544
3.46117	10.7913
3.45886	10.7146
3.45656	10.6315
3.45425	10.6204
3.45195	10.698
3.44966	10.7631
3.44736	10.7347
3.44507	10.7067
3.44279	10.6127
3.4405	10.6007
3.43822	10.5607
3.43594	10.5655
3.43367	10.6357
3.43139	10.6002
3.42912	10.5671
3.42686	10.5644
3.42459	10.5489
3.42233	10.5351
3.42007	10.5787
3.41782	10.6268
3.41557	10.5888
3.41332	10.5255
3.41108	10.4908
3.40883	10.5437
3.40659	10.4821
3.40435	10.4956
3.40212	10.5547
3.39989	10.4745
3.39766	10.4697
3.39544	10.4594
3.39322	10.425
3.391	10.4354
3.38878	10.3808
3.38657	10.3349
3.38436	10.3712
3.38215	10.3834
3.37994	10.3757
3.37774	10.319
3.37554	10.3112
3.37335	10.3529
3.37115	10.2907
3.36896	10.2292
3.36678	10.0962
3.36459	10.0505
3.36241	10.1747
3.36023	10.1526
3.35805	10.1263
3.35588	10.1036
3.35371	10.1277
3.35154	10.1157
3.34938	10.1981
3.34721	10.2646
3.34505	10.1466
3.3429	10.1043
3.34074	10.1304
3.33859	10.0835
3.33644	9.9664
3.3343	9.95307
3.33215	9.96604
3.33001	10.0092
3.32788	10.0024
3.32574	10.0052
3.32361	9.97471
3.32148	9.95906
3.31936	9.885
3.31723	9.84759
3.31511	9.94973
3.31299	9.97122
3.31088	9.93145
3.30876	9.87413
3.30665	9.89319
3.30455	9.86521
3.30244	9.86669
3.30034	9.91222
3.29824	9.81458
3.29614	9.71263
3.29405	9.72723
3.29196	9.84402
3.28987	9.82084
3.28778	9.77743
3.2857	9.71009
3.28362	9.6992
3.28154	9.66544
3.27946	9.68489
3.27739	9.65371
3.27532	9.6769
3.27325	9.70789
3.27119	9.66836
3.26913	9.65493
3.26707	9.588
3.26501	9.60124
3.26295	9.64229
3.2609	9.57259
3.25885	9.59022
3.2568	9.59197
3.25476	9.50677
3.25272	9.48408
3.25068	9.60316
3.24864	9.58517
3.24661	9.48362
3.24458	9.39312
3.24255	9.4072
3.24052	9.51226
3.2385	9.44361
3.23648	9.43933
3.23446	9.51376
3.23244	9.38491
3.23043	9.30838
3.22841	9.40449
3.2264	9.42708
3.2244	9.38853
3.22239	9.36346
3.22039	9.33094
3.21839	9.33633
3.2164	9.40176
3.2144	9.43498
3.21241	9.37381
3.21042	9.3903
3.20844	9.44507
3.20645	9.42369
3.20447	9.28392
3.20249	9.17308
3.20051	9.22801
3.19854	9.10696
3.19657	9.12661
3.1946	9.24809
3.19263	9.17147
3.19067	9.13497
3.1887	9.20504
3.18674	9.24105
3.18479	9.19465
3.18283	9.12869
3.18088	9.1078
3.17893	9.17132
3.17698	9.13892
3.17504	9.09228
3.17309	9.07053
3.17115	9.09468
3.16921	9.02205
3.16728	8.97937
3.16534	9.03924
3.16341	9.01055
3.16148	8.97916
3.15956	8.97699
3.15763	9.01913
3.15571	9.01602
3.15379	9.02865
3.15187	8.99138
3.14996	8.87006
3.14805	8.82441
3.14614	8.84849
3.14423	8.91202
3.14232	8.97142
3.14042	8.94118
3.13852	8.77184
3.13662	8.72725
3.13472	8.81462
3.13283	8.88587
3.13094	8.87637
3.12905	8.85833
3.12716	8.87537
3.12528	8.82725
3.12339	8.83943
3.12151	8.88832
3.11964	8.89208
3.11776	8.88753
3.11589	8.82115
3.11401	8.76789
3.11214	8.70987
3.11028	8.64409
3.10841	8.63993
3.10655	8.64205
3.10469	8.75786
3.10283	8.80518
3.10098	8.74828
3.09912	8.69737
3.09727	8.6502
3.09542	8.67153
3.09358	8.62533
3.09173	8.58653
3.08989	8.56081
3.08805	8.61583
3.08621	8.60564
3.08437	8.55035
3.08254	8.57973
3.08071	8.7116
3.07888	8.78867
3.07705	8.78122
3.07523	8.6561
3.0734	8.60166
3.07158	8.71582
3.06977	8.79792
3.06795	8.72804
3.06613	8.57698
3.06432	8.62233
3.06251	8.67469
3.0607	8.54124
3.0589	8.48365
3.0571	8.54804
3.05529	8.60665
3.05349	8.64295
3.0517	8.65375
3.0499	8.65668
3.04811	8.60457
3.04632	8.57563
3.04453	8.58596
3.04274	8.60656
3.04096	8.45331
3.03918	8.42521
3.0374	8.54739
3.03562	8.70523
3.03384	8.69067
3.03207	8.52357
3.03029	8.4727
3.02852	8.47251
3.02676	8.4919
3.02499	8.45853
3.02323	8.38483
3.02146	8.44205
3.0197	8.60167
3.01795	8.5325
3.01619	8.54213
3.01444	8.67642
3.01269	8.62937
3.01094	8.63843
3.00919	8.60406
3.00744	8.48035
3.0057	8.50305
3.00396	8.56677
3.00222	8.49461
3.00048	8.41983
2.99875	8.51906
2.99701	8.59696
2.99528	8.48376
2.99355	8.38827
2.99183	8.50916
2.9901	8.59666
2.98838	8.55618
2.98666	8.45436
2.98494	8.30947
2.98322	8.34899
2.9815	8.4575
2.97979	8.49912
2.97808	8.49286
2.97637	8.31437
2.97466	8.28424
2.97295	8.44765
2.97125	8.47051
2.96955	8.36026
2.96785	8.31167
2.96615	8.28948
2.96446	8.36077
2.96276	8.45831
2.96107	8.48999
2.95938	8.4714
2.95769	8.43467
2.95601	8.4273
2.95432	8.41538
2.95264	8.38731
2.95096	8.39294
2.94928	8.36646
2.9476	8.33902
2.94593	8.5324
2.94425	8.65498
2.94258	8.68883
2.94092	8.56752
2.93925	8.50588
2.93758	8.51197
2.93592	8.50882
2.93426	8.64524
2.9326	8.82981
2.93094	8.73964
2.92928	8.60071
2.92763	8.56975
2.92598	8.55471
2.92433	8.51063
2.92268	8.5013
2.92103	8.49967
2.91939	8.54055
2.91775	8.64007
2.9161	8.60859
2.91447	8.62679
2.91283	8.62979
2.91119	8.65183
2.90956	8.64544
2.90793	8.56778
2.9063	8.53993
2.90467	8.65463
2.90304	8.70994
2.90142	8.71635
2.89979	8.6968
2.89817	8.72726
2.89656	8.82838
2.89494	8.8642
2.89332	8.89597
2.89171	8.94904
2.8901	8.85803
2.88849	8.74543
2.88688	8.74358
2.88527	8.84651
2.88367	8.98194
2.88206	8.81974
2.88046	8.65082
2.87886	8.67416
2.87727	8.7039
2.87567	8.714
2.87408	8.78879
2.87248	8.86929
2.87089	8.92092
2.8693	8.95646
2.86772	9.0342
2.86613	9.05822
2.86455	9.00862
2.86297	9.00859
2.86139	8.9914
2.85981	8.97553
2.85823	9.06848
2.85666	9.15459
2.85508	9.13252
2.85351	9.04998
2.85194	9.01033
2.85038	9.18048
2.84881	9.26302
2.84724	9.22601
2.84568	9.2616
2.84412	9.22708
2.84256	9.20519
2.841	9.11237
2.83945	9.0348
2.83789	9.11895
2.83634	9.18463
2.83479	9.2214
2.83324	9.08162
2.83169	9.20566
2.83015	9.35355
2.82861	9.24887
2.82706	9.34021
2.82552	9.42977
2.82398	9.34704
2.82245	9.34497
2.82091	9.55387
2.81938	9.50901
2.81784	9.35966
2.81631	9.27202
2.81479	9.32558
2.81326	9.36545
2.81173	9.39178
2.81021	9.47864
2.80869	9.61568
2.80716	9.58237
2.80565	9.56051
2.80413	9.5445
2.80261	9.52557
2.8011	9.61951
2.79959	9.63517
2.79808	9.57603
2.79657	9.50422
2.79506	9.58685
2.79355	9.62511
2.79205	9.61872
2.79055	9.61945
2.78904	9.62259
2.78754	9.77836
2.78605	9.88521
2.78455	9.81559
2.78306	9.75669
2.78156	9.79382
2.78007	9.81347
2.77858	9.71556
2.77709	9.71031
2.77561	9.88531
2.77412	9.91717
2.77264	9.91309
2.77116	9.98863
2.76968	10.094
2.7682	10.0374
2.76672	9.89598
2.76524	9.91337
2.76377	10.1137
2.7623	9.95854
2.76083	9.93678
2.75936	10.1078
2.75789	10.2572
2.75642	10.4478
2.75496	10.3643
2.7535	10.1112
2.75203	10.1799
2.75057	10.2245
2.74912	10.2857
2.74766	10.2607
2.7462	10.1675
2.74475	10.3
2.7433	10.4792
2.74185	10.7004
2.7404	10.791
2.73895	10.6821
2.7375	10.6114
2.73606	10.7451
2.73462	10.851
2.73318	10.7782
2.73174	10.691
2.7303	10.832
2.72886	10.9178
2.72742	10.9106
2.72599	11.0195
2.72456	11.0453
2.72313	10.9525
2.7217	11.084
2.72027	11.2325
2.71884	11.229
2.71742	11.1857
2.71599	11.1912
2.71457	11.2602
2.71315	11.2763
2.71173	11.2624
2.71032	11.4091
2.7089	11.3856
2.70748	11.219
2.70607	11.2582
2.70466	11.2854
2.70325	11.3128
2.70184	11.4057
2.70043	11.3859
2.69903	11.4413
2.69762	11.5113
2.69622	11.5111
2.69482	11.6686
2.69342	11.7954
2.69202	11.7286
2.69062	11.6523
2.68923	11.6454
2.68783	11.6314
2.68644	11.5822
2.68505	11.655
2.68366	11.7769
2.68227	11.721
2.68089	11.7536
2.6795	11.8458
2.67812	11.8343
2.67673	11.9149
2.67535	11.8134
2.67397	11.6969
2.6726	11.8306
2.67122	12.1258
2.66984	12.1598
2.66847	11.9759
2.6671	11.9772
2.66572	11.8984
2.66435	11.7939
2.66299	11.6312
2.66162	11.7785
2.66025	11.8029
2.65889	11.6362
2.65753	11.7159
2.65616	11.7722
2.65481	11.7762
2.65345	11.8636
2.65209	11.7777
2.65073	11.6745
2.64938	11.8413
2.64803	11.909
2.64667	11.8586
2.64532	11.7967
2.64397	11.6824
2.64263	11.5729
2.64128	11.5386
2.63994	11.5029
2.63859	11.5598
2.63725	11.6869
2.63591	11.8296
2.63457	11.8917
2.63323	11.75
2.6319	11.8494
2.63056	12.0293
2.62923	11.8647
2.62789	11.7555
2.62656	11.8871
2.62523	11.8244
2.6239	11.718
2.62258	11.6732
2.62125	11.9121
2.61993	11.9977
2.6186	11.8873
2.61728	11.8347
2.61596	11.6453
2.61464	11.5333
2.61332	11.6049
2.61201	11.6354
2.61069	11.7372
2.60938	11.7614
2.60807	11.8323
2.60675	11.7733
2.60544	11.7416
2.60414	11.6817
2.60283	11.5939
2.60152	11.663
2.60022	11.6938
2.59891	11.6468
2.59761	11.6874
2.59631	11.7108
2.59501	11.8208
2.59371	11.8471
2.59242	11.7767
2.59112	11.7757
2.58983	11.7521
2.58853	11.65
2.58724	11.6995
2.58595	11.6567
2.58466	11.6351
2.58338	11.6103
2.58209	11.5532
2.5808	11.5489
2.57952	11.5343
2.57824	11.6008
2.57695	11.655
2.57567	11.5669
2.5744	11.5256
2.57312	11.4942
2.57184	11.5325
2.57057	11.6755
2.56929	11.6538
2.56802	11.5063
2.56675	11.4793
2.56548	11.5379
2.56421	11.6552
2.56294	11.824
2.56168	11.7324
2.56041	11.5854
2.55915	11.6216
2.55789	11.6132
2.55662	11.4554
2.55536	11.4918
2.5541	11.533
2.55285	11.5437
2.55159	11.5041
2.55034	11.4537
2.54908	11.5936
2.54783	11.7128
2.54658	11.5376
2.54533	11.4315
2.54408	11.5341
2.54283	11.5699
2.54159	11.5089
2.54034	11.5352
2.5391	11.566
2.53785	11.5695
2.53661	11.5945
2.53537	11.3939
2.53413	11.2779
2.53289	11.5038
2.53166	11.6188
2.53042	11.611
2.52919	11.6638
2.52795	11.6444
2.52672	11.523
2.52549	11.3352
2.52426	11.3772
2.52303	11.6004
2.52181	11.6946
2.52058	11.6166
2.51936	11.6153
2.51813	11.5432
2.51691	11.3886
2.51569	11.4485
2.51447	11.5803
2.51325	11.4795
2.51203	11.423
2.51082	11.5082
2.5096	11.757
2.50839	11.8399
2.50717	11.6758
2.50596	11.5528
2.50475	11.4639
2.50354	11.5383
2.50233	11.657
2.50113	11.4778
2.49992	11.3688
2.49872	11.3657
2.49751	11.3439
2.49631	11.3848
2.49511	11.4069
2.49391	11.5395
2.49271	11.629
2.49151	11.6324
2.49031	11.5125
2.48912	11.4581
2.48792	11.4941
2.48673	11.5078
2.48554	11.3879
2.48435	11.3249
2.48316	11.492
2.48197	11.6273
2.48078	11.4752
2.4796	11.3349
2.47841	11.3156
2.47723	11.4292
2.47604	11.4229
2.47486	11.3413
2.47368	11.3958
2.4725	11.5024
2.47132	11.4666
2.47014	11.4817
2.46897	11.5171
2.46779	11.4519
2.46662	11.3882
2.46545	11.4171
2.46427	11.428
2.4631	11.5043
2.46193	11.62
2.46077	11.7126
2.4596	11.6002
2.45843	11.501
2.45727	11.4216
2.4561	11.3835
2.45494	11.4331
2.45378	11.5366
2.45262	11.5254
2.45146	11.3703
2.4503	11.3928
2.44914	11.4903
2.44799	11.5658
2.44683	11.5942
2.44568	11.4933
2.44452	11.5145
2.44337	11.5191
2.44222	11.4996
2.44107	11.4062
2.43992	11.4296
2.43877	11.3473
2.43763	11.3459
2.43648	11.4874
2.43534	11.4488
2.43419	11.3561
2.43305	11.4357
2.43191	11.5258
2.43077	11.5313
2.42963	11.4506
2.42849	11.5578
2.42736	11.6588
2.42622	11.5129
2.42509	11.3848
2.42395	11.3075
2.42282	11.4042
2.42169	11.4058
2.42056	11.3939
2.41943	11.3564
2.4183	11.2124
2.41717	11.3565
2.41605	11.4882
2.41492	11.4879
2.4138	11.4895
2.41267	11.4536
2.41155	11.4465
2.41043	11.3634
2.40931	11.3681
2.40819	11.5468
2.40707	11.5705
2.40595	11.3998
2.40484	11.3036
2.40372	11.2774
2.40261	11.4333
2.4015	11.4644
2.40039	11.3792
2.39928	11.3578
2.39817	11.3912
2.39706	11.4669
2.39595	11.4151
2.39484	11.4797
2.39374	11.5779
2.39263	11.5866
2.39153	11.5182
2.39043	11.3493
2.38932	11.2486
2.38822	11.3111
2.38712	11.3346
2.38603	11.3053
2.38493	11.2595
2.38383	11.2632
2.38274	11.4107
2.38164	11.3706
2.38055	11.2784
2.37946	11.5142
2.37836	11.7111
2.37727	11.6478
2.37618	11.5756
2.3751	11.4356
2.37401	11.3862
2.37292	11.3504
2.37184	11.3546
2.37075	11.406
2.36967	11.4314
2.36859	11.4342
2.3675	11.5859
2.36642	11.5878
2.36534	11.3348
2.36427	11.2785
2.36319	11.3498
2.36211	11.3426
2.36104	11.3663
2.35996	11.4307
2.35889	11.3098
2.35781	11.2734
2.35674	11.4302
2.35567	11.3713
2.3546	11.2499
2.35353	11.2848
2.35247	11.3243
2.3514	11.2086
2.35033	11.2428
2.34927	11.3244
2.3482	11.3744
2.34714	11.3259
2.34608	11.237
2.34502	11.2884
2.34396	11.2445
2.3429	11.3276
2.34184	11.4228
2.34078	11.3989
2.33973	11.3841
2.33867	11.4121
2.33762	11.3364
2.33656	11.3163
2.33551	11.344
2.33446	11.3819
2.33341	11.4814
2.33236	11.5123
2.33131	11.3254
2.33026	11.2003
2.32922	11.3082
2.32817	11.3847
2.32712	11.3374
2.32608	11.2958
2.32504	11.3111
2.324	11.3231
2.32295	11.4167
2.32191	11.4528
2.32087	11.3618
2.31984	11.3364
2.3188	11.4516
2.31776	11.411
2.31673	11.2833
2.31569	11.1695
2.31466	11.148
2.31362	11.1924
2.31259	11.3518
2.31156	11.4973
2.31053	11.4234
2.3095	11.2809
2.30847	11.2238
2.30745	11.3784
2.30642	11.4569
2.3054	11.354
2.30437	11.2605
2.30335	11.2426
2.30232	11.1636
2.3013	11.1741
2.30028	11.1726
2.29926	11.1359
2.29824	11.1131
2.29722	11.1335
2.29621	11.2086
2.29519	11.3111
2.29417	11.4487
2.29316	11.5127
2.29215	11.4247
2.29113	11.3432
2.29012	11.2603
2.28911	11.3017
2.2881	11.3297
2.28709	11.275
2.28608	11.2773
2.28507	11.254
2.28407	11.1998
2.28306	11.3119
2.28206	11.4657
2.28105	11.421
2.28005	11.3133
2.27905	11.2077
2.27805	11.1378
2.27705	11.0738
2.27605	11.1406
2.27505	11.3045
2.27405	11.4435
2.27305	11.3845
2.27206	11.2052
2.27106	11.2164
2.27007	11.2448
2.26907	11.208
2.26808	11.1566
2.26709	11.2303
2.2661	11.229
2.26511	11.1079
2.26412	11.1074
2.26313	11.2175
2.26214	11.228
2.26116	11.2224
2.26017	11.2811
2.25919	11.3688
2.2582	11.3347
2.25722	11.4244
2.25624	11.4037
2.25526	11.2584
2.25428	11.2135
2.2533	11.1604
2.25232	11.0998
2.25134	11.2844
2.25036	11.2351
2.24939	11.2921
2.24841	11.3252
2.24744	11.2785
2.24646	11.2929
2.24549	11.1869
2.24452	11.1951
2.24355	11.1833
2.24257	11.1828
2.24161	11.233
2.24064	11.178
2.23967	11.0578
2.2387	11.1086
2.23774	11.1901
2.23677	11.2048
2.23581	11.1923
2.23484	11.1677
2.23388	11.2875
2.23292	11.2248
2.23196	11.1158
2.231	11.1528
2.23004	11.1743
2.22908	11.2652
2.22812	11.3954
2.22716	11.3902
2.22621	11.2858
2.22525	11.0448
2.2243	11.0743
2.22334	11.1251
2.22239	11.2458
2.22144	11.28
2.22049	11.2831
2.21953	11.2323
2.21859	11.133
2.21764	11.2264
2.21669	11.3182
2.21574	11.1961
2.21479	11.1302
2.21385	11.1656
2.2129	11.1926
2.21196	11.1966
2.21102	11.2361
2.21007	11.2344
2.20913	11.2117
2.20819	11.1313
2.20725	10.9652
2.20631	10.9771
2.20537	11.1085
2.20444	11.258
2.2035	11.14
2.20256	11.086
2.20163	11.2019
2.20069	11.2428
2.19976	11.195
2.19883	11.0937
2.19789	11.142
2.19696	11.1573
2.19603	11.1244
2.1951	11.0919
2.19417	11.0982
2.19325	11.2116
2.19232	11.1602
2.19139	11.1972
2.19047	11.218
2.18954	11.2807
2.18862	11.1746
2.18769	11.0827
2.18677	11.0916
2.18585	11.0192
2.18493	10.8875
2.18401	10.9948
2.18309	11.2802
2.18217	11.2373
2.18125	10.9488
2.18033	10.921
2.17942	11.0642
2.1785	11.1281
2.17759	11.0969
2.17667	11.0485
2.17576	11.0788
2.17485	11.1565
2.17393	11.1313
2.17302	11.1838
2.17211	11.2857
2.1712	11.23
2.17029	11.2429
2.16939	11.2105
2.16848	10.9557
2.16757	10.7389
2.16667	10.9732
2.16576	11.3397
2.16486	11.2888
2.16395	11.2552
2.16305	11.1644
2.16215	11.0528
2.16125	10.9184
2.16035	10.9446
2.15945	10.9558
2.15855	10.9965
2.15765	11.3282
2.15675	11.4257
2.15586	11.069
2.15496	10.9942
2.15406	11.0384
2.15317	11.0938
2.15228	11.014
2.15138	10.9243
2.15049	11.0146
2.1496	11.0129
2.14871	11.0385
2.14782	10.9236
2.14693	11.0326
2.14604	11.1935
2.14515	10.9757
2.14427	10.8186
2.14338	10.9212
2.14249	11.0547
2.14161	11.0598
2.14072	11.0636
2.13984	10.951
2.13896	10.9552
2.13808	11.3045
2.13719	11.2387
2.13631	10.948
2.13543	11.0066
2.13455	11.1131
2.13368	11.0807
2.1328	10.8843
2.13192	10.9357
2.13105	11.0225
2.13017	11.1096
2.1293	11.1944
2.12842	11.1343
2.12755	11.1595
2.12668	10.9903
2.1258	10.7415
2.12493	10.8865
2.12406	11.0641
2.12319	11.1704
2.12232	11.2783
2.12145	11.3085
2.12059	11.1807
2.11972	10.9578
2.11885	10.9424
2.11799	11.0381
2.11712	11.0581
2.11626	10.9785
2.1154	10.9109
2.11453	11.0124
2.11367	10.9674
2.11281	10.743
2.11195	10.6538
2.11109	10.839
2.11023	10.9661
2.10937	10.9259
2.10851	10.882
2.10766	10.9148
2.1068	11.0764
2.10594	11.1208
2.10509	11.0376
2.10423	11.0068
2.10338	11.0383
2.10253	11.1349
2.10168	11.2107
2.10082	11.223
2.09997	11.1008
2.09912	11.0081
2.09827	11.1369
2.09742	11.165
2.09658	11.0672
2.09573	11.183
2.09488	11.3658
2.09404	11.2216
2.09319	11.0654
2.09235	11.0366
2.0915	10.9224
2.09066	10.7513
2.08982	10.6644
2.08897	10.6065
2.08813	10.8487
2.08729	11.0511
2.08645	11.2577
2.08561	11.3169
2.08477	11.1799
2.08394	11.2486
2.0831	11.8232
2.08226	11.6007
2.08143	10.9468
2.08059	10.6475
2.07976	10.6126
2.07892	10.9022
2.07809	10.8145
2.07726	10.8911
2.07643	10.8792
2.07559	10.7618
2.07476	10.7824
2.07393	10.8147
2.0731	10.6991
2.07228	10.6528
2.07145	10.8496
2.07062	10.6474
2.06979	10.7904
2.06897	11.0045
2.06814	11.2335
2.06732	11.3496
2.06649	10.8931
2.06567	10.5658
2.06485	10.5494
2.06403	10.6652
2.0632	10.8042
2.06238	10.9361
2.06156	10.9037
2.06074	11.0209
2.05993	11.2994
2.05911	11.2592
2.05829	11.1385
2.05747	11.0736
2.05666	11.0873
2.05584	10.9542
2.05503	10.8308
2.05421	10.7494
2.0534	11.0322
2.05259	11.1067
2.05177	11.0662
2.05096	11.0632
2.05015	10.9609
2.04934	11.1506
2.04853	11.2901
2.04772	11.0817
2.04691	10.8393
2.04611	10.8946
2.0453	10.9896
2.04449	10.8906
2.04369	10.9181
2.04288	11.1479
2.04208	10.9954
2.04127	10.7383
2.04047	10.6196
2.03967	10.5881
2.03886	10.8684
2.03806	11.021
2.03726	11.0428
2.03646	10.9575
2.03566	10.8261
2.03486	10.8136
2.03407	10.9645
2.03327	10.926
2.03247	11.0789
2.03167	11.0823
2.03088	10.9238
2.03008	11.1517
2.02929	11.1152
2.0285	10.769
2.0277	10.971
2.02691	11.3354
2.02612	11.0379
2.02533	10.7835
2.02453	11.024
2.02374	11.1016
2.02295	10.9311
2.02217	10.9702
2.02138	10.9678
2.02059	10.8829
2.0198	10.8306
2.01902	10.7378
2.01823	10.8554
2.01744	10.9665
2.01666	10.8213
2.01588	10.5808
2.01509	10.6064
2.01431	10.9707
2.01353	11.1342
2.01275	11.1124
2.01196	10.8569
2.01118	10.7563
2.0104	10.7393
2.00963	10.8136
2.00885	10.971
2.00807	11.1378
2.00729	10.8864
2.00651	10.9483
2.00574	11.0213
2.00496	10.7675
2.00419	10.7126
2.00341	10.9416
2.00264	10.9545
2.00187	10.8086
2.00109	10.7371
2.00032	10.7336
