Name: Calcareous Shale
Type: Rock
Class: Sedimentary
Subclass:  Shale 
Particle Size: Solid surface
Sample No.: Ward51.txt
Owner: JPL
Wavelength range:  IR
Origin: Ward's Collection of American Rocks.  Sample locality - Ontario County, New York.
Collected by:  Ward's Natural Science
Description: A compact light-gray rock.  It does not have thin shaly
structure but appears to be more massive.  Fossils are sometimes quit
abundant.
Geologic age - Middle Devonian.


Measurement: Hemispherical reflectance
First Column: X
Second Column: Y
X Units: Wavelength (micrometers)
Y Units: Reflectance (percent)
First X Value: 15.3871
Last X Value: 1.9998
Number of X Values: 2257
Additional information: None

15.3871   3.91979
15.3416   4.15001
15.2964   4.17271
15.2514   4.06022
15.2066   4.06089
15.1622   4.33423
15.1180   4.68838
15.0740   4.77311
15.0303   4.90298
14.9869   4.88580
14.9437   4.63359
14.9008   4.62957
14.8581   4.85278
14.8156   5.04357
14.7734   5.16427
14.7314   5.04347
14.6897   4.76746
14.6482   4.98009
14.6069   5.31214
14.5659   5.35969
14.5251   5.09210
14.4845   5.11984
14.4442   5.41142
14.4041   5.25050
14.3642   4.74344
14.3245   4.35177
14.2850   4.04174
14.2458   4.16417
14.2068   4.50766
14.1679   4.53681
14.1293   4.44621
14.0909   4.74900
14.0528   4.87625
14.0148   4.88527
13.9770   5.24859
13.9394   5.31532
13.9021   5.26478
13.8649   5.53869
13.8279   5.65133
13.7911   5.53628
13.7546   5.60281
13.7182   5.65824
13.6820   5.72625
13.6460   5.80900
13.6101   5.79471
13.5745   5.96420
13.5391   6.11966
13.5038   6.20178
13.4687   6.33698
13.4339   6.41561
13.3991   6.54398
13.3646   6.78979
13.3302   6.56940
13.2961   6.25655
13.2621   6.39126
13.2282   6.49595
13.1946   6.72471
13.1611   6.88950
13.1278   6.81464
13.0946   6.77791
13.0616   7.04059
13.0288   7.20805
12.9962   7.25020
12.9637   7.46481
12.9313   7.47000
12.8992   7.46040
12.8672   7.61552
12.8353   7.41198
12.8036   7.06817
12.7721   6.76783
12.7407   6.58617
12.7095   6.53624
12.6784   6.58345
12.6475   6.76408
12.6167   6.90763
12.5861   6.92839
12.5556   6.82174
12.5253   6.62303
12.4951   6.08928
12.4651   5.38134
12.4352   4.83683
12.4054   4.46773
12.3758   4.35262
12.3463   4.36882
12.3170   4.44781
12.2878   4.57097
12.2588   4.59383
12.2299   4.71515
12.2011   4.88869
12.1725   4.95310
12.1439   5.10407
12.1156   5.19675
12.0873   5.33991
12.0592   5.40128
12.0312   5.33994
12.0034   5.55067
11.9757   5.57522
11.9481   5.44057
11.9206   5.57079
11.8933   5.85478
11.8661   5.93899
11.8390   5.90648
11.8120   5.99331
11.7852   6.20953
11.7584   6.35407
11.7318   6.45887
11.7053   6.67002
11.6790   6.72136
11.6527   6.64388
11.6266   6.85458
11.6006   7.06105
11.5747   7.15325
11.5489   7.31016
11.5233   7.58308
11.4977   7.74370
11.4723   7.77078
11.4469   7.84733
11.4217   7.96807
11.3966   8.14381
11.3716   8.27635
11.3468   8.33190
11.3220   8.25994
11.2973   8.21661
11.2728   8.34553
11.2483   8.61497
11.2240   8.78875
11.1997   8.90833
11.1756   9.16619
11.1515   9.31847
11.1276   9.22652
11.1038   9.34326
11.0801   9.53901
11.0564   9.71112
11.0329   9.87892
11.0095  10.01510
10.9862   9.94243
10.9629   9.76977
10.9398   9.89586
10.9168   9.95284
10.8938   9.92723
10.8710   9.91430
10.8483  10.01920
10.8256  10.25050
10.8031  10.20530
10.7806  10.18240
10.7582  10.23680
10.7360  10.23040
10.7138  10.26870
10.6917  10.42930
10.6697  10.63820
10.6478  10.71640
10.6260  10.77300
10.6042  10.86040
10.5826  10.84890
10.5610  10.98080
10.5396  11.28940
10.5182  11.58400
10.4969  11.89660
10.4757  12.17510
10.4546  12.37090
10.4335  12.81050
10.4126  13.25040
10.3917  13.48970
10.3709  13.76230
10.3502  14.07520
10.3296  14.40620
10.3091  14.77880
10.2886  15.22750
10.2683  15.67650
10.2480  15.98000
10.2277  16.39690
10.2076  16.77590
10.1876  16.99530
10.1676  17.38840
10.1477  17.88300
10.1279  18.11450
10.1081  18.24760
10.0885  18.53270
10.0689  18.71110
10.0494  18.93680
10.0299  19.16880
10.0106  19.22500
 9.9913  19.42470
 9.9720  19.73040
 9.9529  19.93840
 9.9338  20.11350
 9.9148  20.26830
 9.8959  20.44300
 9.8771  20.77220
 9.8583  21.10690
 9.8396  21.29370
 9.8210  21.55450
 9.8024  21.84100
 9.7839  22.10400
 9.7655  22.51470
 9.7471  22.75730
 9.7288  22.96020
 9.7106  23.43450
 9.6925  23.86410
 9.6744  24.28950
 9.6564  24.76090
 9.6384  25.02910
 9.6205  25.19580
 9.6027  25.23260
 9.5850  25.07390
 9.5673  24.93620
 9.5497  24.68370
 9.5321  24.38810
 9.5146  24.31670
 9.4972  24.07440
 9.4798  23.74180
 9.4625  23.43050
 9.4453  23.30040
 9.4281  23.37340
 9.4110  23.72840
 9.3940  24.16570
 9.3770  24.62290
 9.3600  25.14520
 9.3432  25.58020
 9.3264  25.85870
 9.3096  26.02850
 9.2930  26.10620
 9.2763  26.09060
 9.2598  26.01020
 9.2432  25.96620
 9.2268  25.84110
 9.2104  25.71840
 9.1941  25.53400
 9.1778  25.31690
 9.1616  25.23370
 9.1454  25.20300
 9.1293  25.01930
 9.1133  24.86710
 9.0973  24.63980
 9.0814  24.34360
 9.0655  24.13130
 9.0497  23.94700
 9.0339  23.67440
 9.0182  23.43190
 9.0025  23.28560
 8.9870  23.16620
 8.9714  23.05800
 8.9559  22.92090
 8.9405  22.85020
 8.9251  22.79590
 8.9097  22.70660
 8.8945  22.73190
 8.8792  22.63220
 8.8641  22.52640
 8.8489  22.41870
 8.8338  22.28770
 8.8188  22.06390
 8.8039  21.80310
 8.7889  21.66030
 8.7741  21.42690
 8.7592  21.08700
 8.7445  20.76500
 8.7297  20.30610
 8.7151  19.68980
 8.7005  18.99210
 8.6859  18.26900
 8.6714  17.29760
 8.6569  16.10310
 8.6425  14.91500
 8.6281  14.40370
 8.6137  14.88290
 8.5994  15.74190
 8.5852  16.52400
 8.5710  17.04390
 8.5569  17.16190
 8.5428  17.12610
 8.5287  16.95150
 8.5147  16.59440
 8.5008  16.27780
 8.4869  15.96450
 8.4730  15.60750
 8.4592  15.45120
 8.4454  15.22810
 8.4316  14.91590
 8.4180  14.77530
 8.4043  14.59830
 8.3907  14.43640
 8.3772  14.34500
 8.3637  14.11300
 8.3502  13.87310
 8.3368  13.83180
 8.3234  13.90160
 8.3100  13.94690
 8.2967  13.89420
 8.2835  13.87420
 8.2703  14.01080
 8.2571  14.10190
 8.2440  14.06330
 8.2309  14.03540
 8.2179  14.08920
 8.2049  14.24810
 8.1919  14.27050
 8.1790  14.25680
 8.1661  14.35630
 8.1532  14.24850
 8.1404  14.08240
 8.1277  13.77510
 8.1150  13.51250
 8.1023  13.19760
 8.0897  12.84280
 8.0770  12.60290
 8.0645  12.38510
 8.0520  12.28900
 8.0395  12.08370
 8.0270  11.70550
 8.0146  11.49430
 8.0023  11.42060
 7.9899  11.28360
 7.9776  11.07290
 7.9654  10.93140
 7.9532  10.68490
 7.9410  10.40010
 7.9288  10.24560
 7.9167  10.17440
 7.9047   9.96083
 7.8926   9.62094
 7.8807   9.40073
 7.8687   9.28276
 7.8568   9.15407
 7.8449   9.08802
 7.8330   9.04898
 7.8212   8.96707
 7.8094   8.93501
 7.7977   9.01958
 7.7860   9.07364
 7.7743   9.04059
 7.7627   8.99701
 7.7511   9.09078
 7.7395   9.24306
 7.7280   9.28930
 7.7165   9.17667
 7.7050   9.13046
 7.6936   9.13686
 7.6822   9.21317
 7.6708   9.14347
 7.6595   8.96588
 7.6482   8.83926
 7.6369   8.66401
 7.6257   8.43648
 7.6145   8.21311
 7.6033   8.20253
 7.5922   8.25590
 7.5811   8.17343
 7.5700   8.17444
 7.5590   8.32695
 7.5480   8.45311
 7.5370   8.40677
 7.5261   8.38047
 7.5152   8.46824
 7.5043   8.47016
 7.4935   8.52494
 7.4826   8.55392
 7.4718   8.43484
 7.4611   8.36356
 7.4504   8.39166
 7.4397   8.41798
 7.4290   8.31616
 7.4184   8.28242
 7.4078   8.27476
 7.3972   8.23307
 7.3867   8.16480
 7.3762   8.11559
 7.3657   8.05417
 7.3553   7.88176
 7.3449   7.67857
 7.3345   7.71281
 7.3241   7.74450
 7.3138   7.62101
 7.3035   7.44425
 7.2932   7.27385
 7.2830   7.12772
 7.2727   6.93212
 7.2626   6.95642
 7.2524   7.05209
 7.2423   6.91083
 7.2322   6.81098
 7.2221   6.80384
 7.2120   6.81488
 7.2020   6.68985
 7.1921   6.56995
 7.1821   6.49112
 7.1722   6.54218
 7.1623   6.64222
 7.1524   6.60258
 7.1425   6.54444
 7.1327   6.56784
 7.1229   6.68738
 7.1131   6.81809
 7.1034   6.95496
 7.0937   7.02363
 7.0840   6.98068
 7.0743   6.92868
 7.0647   6.89516
 7.0551   6.92558
 7.0455   6.84903
 7.0359   6.69233
 7.0264   6.68750
 7.0169   6.69267
 7.0074   6.66491
 6.9979   6.45752
 6.9885   6.37146
 6.9791   6.41222
 6.9697   6.45273
 6.9604   6.49412
 6.9510   6.48142
 6.9417   6.40328
 6.9324   6.40727
 6.9232   6.37126
 6.9140   6.34172
 6.9047   6.41102
 6.8956   6.45374
 6.8864   6.49319
 6.8773   6.65902
 6.8682   6.72793
 6.8591   6.67785
 6.8500   6.68483
 6.8410   6.73469
 6.8320   6.78499
 6.8230   6.89572
 6.8140   6.90041
 6.8051   6.90489
 6.7962   6.99813
 6.7873   7.04254
 6.7784   7.05646
 6.7695   7.08587
 6.7607   7.09225
 6.7519   7.11390
 6.7431   7.19711
 6.7344   7.24002
 6.7256   7.27980
 6.7169   7.32843
 6.7082   7.33522
 6.6996   7.37089
 6.6909   7.43192
 6.6823   7.52670
 6.6737   7.65747
 6.6651   7.68256
 6.6566   7.77425
 6.6480   7.91187
 6.6395   7.92041
 6.6310   7.93482
 6.6226   7.93749
 6.6141   7.95205
 6.6057   8.01856
 6.5973   8.03983
 6.5889   7.98904
 6.5805   7.96409
 6.5722   7.89182
 6.5639   7.75482
 6.5556   7.74406
 6.5473   7.76661
 6.5390   7.87338
 6.5308   7.94508
 6.5226   7.92420
 6.5144   7.91996
 6.5062   7.97281
 6.4981   7.94875
 6.4900   7.94066
 6.4818   7.91168
 6.4737   7.78312
 6.4657   7.73779
 6.4576   7.76452
 6.4496   7.70365
 6.4416   7.53177
 6.4336   7.42736
 6.4256   7.34490
 6.4177   7.11912
 6.4097   6.93252
 6.4018   6.76642
 6.3939   6.59547
 6.3860   6.41982
 6.3782   6.16511
 6.3704   5.98655
 6.3625   5.81370
 6.3547   5.70046
 6.3470   5.59614
 6.3392   5.31689
 6.3315   5.17729
 6.3237   5.04199
 6.3160   4.88778
 6.3083   4.92237
 6.3007   4.89151
 6.2930   4.68351
 6.2854   4.49680
 6.2778   4.41949
 6.2702   4.40124
 6.2626   4.33350
 6.2551   4.19774
 6.2476   4.16819
 6.2400   4.23482
 6.2325   4.26056
 6.2251   4.23177
 6.2176   4.11301
 6.2101   3.94915
 6.2027   3.88874
 6.1953   3.93683
 6.1879   3.97420
 6.1805   4.05416
 6.1732   3.92919
 6.1658   3.88677
 6.1585   4.01634
 6.1512   4.02964
 6.1439   3.99169
 6.1367   3.97261
 6.1294   3.97355
 6.1222   4.00151
 6.1149   4.02047
 6.1077   4.12773
 6.1006   4.13426
 6.0934   4.07055
 6.0862   4.02673
 6.0791   4.02609
 6.0720   3.95985
 6.0649   3.98587
 6.0578   4.00598
 6.0507   4.03029
 6.0437   4.09697
 6.0366   4.09964
 6.0296   4.01694
 6.0226   4.02514
 6.0156   4.08458
 6.0087   4.06531
 6.0017   4.00364
 5.9948   3.93422
 5.9878   3.92344
 5.9809   3.96955
 5.9740   3.92192
 5.9672   3.91431
 5.9603   3.94800
 5.9535   3.95140
 5.9466   3.88846
 5.9398   3.86978
 5.9330   3.80913
 5.9262   3.80996
 5.9195   3.92907
 5.9127   3.91542
 5.9060   3.91883
 5.8993   4.01493
 5.8926   4.01095
 5.8859   3.95242
 5.8792   3.95849
 5.8726   4.07084
 5.8659   4.12914
 5.8593   4.15266
 5.8527   4.21906
 5.8461   4.25054
 5.8395   4.24737
 5.8329   4.25338
 5.8264   4.18294
 5.8198   4.16241
 5.8133   4.20528
 5.8068   4.26982
 5.8003   4.32479
 5.7938   4.33082
 5.7874   4.31375
 5.7809   4.29993
 5.7745   4.25506
 5.7680   4.28058
 5.7616   4.32104
 5.7552   4.32000
 5.7489   4.39538
 5.7425   4.42453
 5.7361   4.37469
 5.7298   4.32607
 5.7235   4.29122
 5.7172   4.34248
 5.7109   4.38298
 5.7046   4.40000
 5.6983   4.40058
 5.6921   4.34860
 5.6858   4.30593
 5.6796   4.38465
 5.6734   4.41815
 5.6672   4.35926
 5.6610   4.33369
 5.6548   4.30495
 5.6487   4.30474
 5.6425   4.31316
 5.6364   4.24260
 5.6303   4.16048
 5.6242   4.12267
 5.6181   4.14709
 5.6120   4.10573
 5.6059   4.05369
 5.5999   4.08771
 5.5938   4.05701
 5.5878   3.97039
 5.5818   3.92793
 5.5758   3.93029
 5.5698   3.95415
 5.5638   3.97691
 5.5578   4.06562
 5.5519   4.10994
 5.5460   4.07766
 5.5400   4.09864
 5.5341   4.23230
 5.5282   4.31235
 5.5223   4.23676
 5.5164   4.21170
 5.5106   4.28034
 5.5047   4.32570
 5.4989   4.36735
 5.4931   4.38363
 5.4873   4.40576
 5.4815   4.34032
 5.4757   4.39263
 5.4699   4.54778
 5.4641   4.64012
 5.4584   4.56048
 5.4527   4.43398
 5.4469   4.43372
 5.4412   4.51180
 5.4355   4.52288
 5.4298   4.50913
 5.4241   4.48614
 5.4185   4.45098
 5.4128   4.43549
 5.4072   4.43496
 5.4015   4.45119
 5.3959   4.37559
 5.3903   4.27160
 5.3847   4.19420
 5.3791   4.07669
 5.3735   4.01655
 5.3680   4.03234
 5.3624   4.12057
 5.3569   4.16755
 5.3514   4.16137
 5.3458   4.14547
 5.3403   4.10928
 5.3348   4.11073
 5.3294   4.11607
 5.3239   4.12660
 5.3184   4.21394
 5.3130   4.19537
 5.3075   4.17920
 5.3021   4.13518
 5.2967   4.11971
 5.2913   4.23192
 5.2859   4.33911
 5.2805   4.36157
 5.2751   4.39539
 5.2698   4.42676
 5.2644   4.48523
 5.2591   4.45873
 5.2538   4.42467
 5.2485   4.56688
 5.2431   4.71978
 5.2378   4.71247
 5.2326   4.73105
 5.2273   4.82456
 5.2220   4.91931
 5.2168   4.96683
 5.2115   4.94285
 5.2063   4.93888
 5.2011   4.92556
 5.1959   4.88571
 5.1907   4.86726
 5.1855   4.91917
 5.1803   4.87590
 5.1751   4.85978
 5.1700   4.93195
 5.1648   4.94791
 5.1597   5.02319
 5.1545   5.00247
 5.1494   4.95382
 5.1443   4.96693
 5.1392   4.98576
 5.1341   4.97663
 5.1291   4.96910
 5.1240   5.06152
 5.1189   5.08101
 5.1139   4.99388
 5.1088   4.98987
 5.1038   4.99842
 5.0988   5.00893
 5.0938   5.03421
 5.0888   4.99651
 5.0838   4.95598
 5.0788   4.89095
 5.0738   4.87385
 5.0689   4.96855
 5.0639   5.00048
 5.0590   4.99610
 5.0541   5.00740
 5.0491   5.06931
 5.0442   5.07732
 5.0393   4.98643
 5.0344   4.92538
 5.0296   4.96684
 5.0247   4.97864
 5.0198   4.96368
 5.0150   4.91776
 5.0101   4.92841
 5.0053   5.10383
 5.0004   5.17708
 4.9956   5.12089
 4.9908   5.06095
 4.9860   5.09323
 4.9812   5.10608
 4.9765   5.08836
 4.9717   5.18196
 4.9669   5.26749
 4.9622   5.31039
 4.9574   5.29265
 4.9527   5.23931
 4.9480   5.32325
 4.9432   5.36381
 4.9385   5.38256
 4.9338   5.43287
 4.9291   5.46061
 4.9245   5.38217
 4.9198   5.31821
 4.9151   5.45405
 4.9105   5.58361
 4.9058   5.58150
 4.9012   5.59247
 4.8966   5.73169
 4.8919   5.78913
 4.8873   5.70983
 4.8827   5.72697
 4.8781   5.79728
 4.8736   5.91421
 4.8690   5.96125
 4.8644   5.92860
 4.8599   5.92324
 4.8553   5.97775
 4.8508   5.99642
 4.8462   6.01006
 4.8417   6.03457
 4.8372   5.97940
 4.8327   5.87669
 4.8282   5.88045
 4.8237   5.95532
 4.8192   6.01786
 4.8147   6.05902
 4.8103   6.05955
 4.8058   6.11930
 4.8014   6.13010
 4.7969   6.08839
 4.7925   6.08572
 4.7881   6.14979
 4.7836   6.17271
 4.7792   6.12448
 4.7748   6.03660
 4.7704   5.97329
 4.7660   5.99955
 4.7617   6.05824
 4.7573   6.11954
 4.7530   6.24008
 4.7486   6.23019
 4.7443   6.14650
 4.7399   6.16907
 4.7356   6.21493
 4.7313   6.19738
 4.7270   6.14669
 4.7226   6.17220
 4.7184   6.15157
 4.7141   6.14816
 4.7098   6.21486
 4.7055   6.22931
 4.7012   6.19533
 4.6970   6.16170
 4.6927   6.18990
 4.6885   6.20159
 4.6842   6.26360
 4.6800   6.32639
 4.6758   6.31087
 4.6716   6.28485
 4.6674   6.27315
 4.6632   6.25857
 4.6590   6.23292
 4.6548   6.33081
 4.6506   6.34735
 4.6465   6.32805
 4.6423   6.32018
 4.6382   6.34033
 4.6340   6.38218
 4.6299   6.39353
 4.6258   6.42604
 4.6216   6.49480
 4.6175   6.38749
 4.6134   6.37777
 4.6093   6.45673
 4.6052   6.52874
 4.6011   6.54985
 4.5971   6.53029
 4.5930   6.44489
 4.5889   6.47986
 4.5849   6.51445
 4.5808   6.48239
 4.5768   6.48868
 4.5727   6.56991
 4.5687   6.57187
 4.5647   6.54209
 4.5607   6.57813
 4.5567   6.52627
 4.5526   6.60627
 4.5487   6.63392
 4.5447   6.56069
 4.5407   6.53974
 4.5367   6.58703
 4.5328   6.53885
 4.5288   6.52617
 4.5248   6.61578
 4.5209   6.57864
 4.5170   6.49535
 4.5130   6.57451
 4.5091   6.58248
 4.5052   6.51310
 4.5013   6.49741
 4.4974   6.49193
 4.4935   6.55011
 4.4896   6.62937
 4.4857   6.59653
 4.4818   6.70210
 4.4779   6.67243
 4.4741   6.51989
 4.4702   6.50037
 4.4664   6.52829
 4.4625   6.51239
 4.4587   6.48346
 4.4549   6.58356
 4.4510   6.69431
 4.4472   6.67422
 4.4434   6.62969
 4.4396   6.72675
 4.4358   6.75047
 4.4320   6.68637
 4.4282   6.72631
 4.4245   6.78899
 4.4207   6.82351
 4.4169   6.73711
 4.4132   6.72038
 4.4094   6.73457
 4.4057   6.64931
 4.4019   6.54940
 4.3982   6.55571
 4.3945   6.74783
 4.3907   6.93445
 4.3870   6.88275
 4.3833   6.77183
 4.3796   6.82269
 4.3759   6.94922
 4.3722   6.92903
 4.3685   6.83675
 4.3649   6.77332
 4.3612   6.82613
 4.3575   6.87555
 4.3539   6.84232
 4.3502   6.82281
 4.3466   6.85067
 4.3429   6.81721
 4.3393   6.77691
 4.3357   6.89442
 4.3320   7.03062
 4.3284   7.00849
 4.3248   7.00969
 4.3212   6.87854
 4.3176   6.73955
 4.3140   6.71875
 4.3105   6.83772
 4.3069   6.90222
 4.3033   7.02196
 4.2997   6.93819
 4.2962   6.83046
 4.2926   6.84036
 4.2890   6.78499
 4.2855   6.88291
 4.2820   6.86957
 4.2784   6.79320
 4.2749   6.86407
 4.2714   6.95545
 4.2679   6.91791
 4.2644   6.85488
 4.2609   6.95778
 4.2574   6.95762
 4.2539   6.93389
 4.2504   6.97769
 4.2469   7.00790
 4.2434   6.80873
 4.2400   6.73953
 4.2365   6.94105
 4.2330   6.96968
 4.2296   6.94322
 4.2261   6.90423
 4.2227   6.90794
 4.2193   6.91765
 4.2158   6.93024
 4.2124   6.93774
 4.2090   6.96685
 4.2056   7.01539
 4.2022   7.12543
 4.1988   7.16003
 4.1954   7.05790
 4.1920   7.10347
 4.1886   7.25408
 4.1852   7.20466
 4.1818   7.09858
 4.1785   6.97345
 4.1751   6.95387
 4.1717   7.02634
 4.1684   6.99654
 4.1650   6.98863
 4.1617   7.11382
 4.1584   7.11916
 4.1550   7.05239
 4.1517   7.03173
 4.1484   7.15877
 4.1451   7.22892
 4.1418   7.14879
 4.1384   6.98797
 4.1351   7.06990
 4.1319   7.17194
 4.1286   7.14647
 4.1253   7.17775
 4.1220   7.15805
 4.1187   7.21672
 4.1155   7.30658
 4.1122   7.27382
 4.1089   7.21077
 4.1057   7.10239
 4.1024   7.00949
 4.0992   7.01295
 4.0959   7.05962
 4.0927   7.18074
 4.0895   7.21585
 4.0863   6.99376
 4.0830   6.96522
 4.0798   7.16084
 4.0766   7.17154
 4.0734   7.05777
 4.0702   7.11766
 4.0670   7.23085
 4.0639   7.27594
 4.0607   7.13761
 4.0575   7.02863
 4.0543   7.15762
 4.0511   7.14727
 4.0480   6.98552
 4.0448   7.04001
 4.0417   7.01507
 4.0385   7.01539
 4.0354   7.12631
 4.0323   7.06668
 4.0291   6.95400
 4.0260   6.96642
 4.0229   6.91363
 4.0197   6.79114
 4.0166   6.84516
 4.0135   6.87407
 4.0104   6.87964
 4.0073   6.85303
 4.0042   6.61152
 4.0011   6.50548
 3.9981   6.55976
 3.9950   6.47954
 3.9919   6.40716
 3.9888   6.33828
 3.9857   6.30803
 3.9827   6.25361
 3.9796   6.21404
 3.9766   6.27291
 3.9735   6.35725
 3.9705   6.37271
 3.9675   6.41860
 3.9644   6.44338
 3.9614   6.36753
 3.9584   6.44174
 3.9554   6.45105
 3.9523   6.38867
 3.9493   6.45546
 3.9463   6.57165
 3.9433   6.72691
 3.9403   6.81074
 3.9373   6.77352
 3.9343   6.63226
 3.9314   6.66357
 3.9284   6.85834
 3.9254   6.97292
 3.9224   6.88262
 3.9195   6.78028
 3.9165   6.88240
 3.9136   6.96626
 3.9106   6.87079
 3.9077   6.81372
 3.9047   6.87097
 3.9018   6.93301
 3.8988   7.03227
 3.8959   6.97833
 3.8930   6.87973
 3.8901   6.83746
 3.8872   6.94117
 3.8842   7.04690
 3.8813   6.94106
 3.8784   6.97736
 3.8755   7.07668
 3.8726   7.01447
 3.8697   7.02844
 3.8669   7.11421
 3.8640   7.11751
 3.8611   7.02297
 3.8582   7.02205
 3.8554   7.07884
 3.8525   7.07898
 3.8496   7.01299
 3.8468   6.93729
 3.8439   6.89931
 3.8411   6.91993
 3.8382   6.94454
 3.8354   6.99041
 3.8326   7.14704
 3.8297   7.20287
 3.8269   7.14194
 3.8241   7.15651
 3.8213   7.09834
 3.8185   7.06958
 3.8157   7.13725
 3.8128   7.22948
 3.8100   7.17266
 3.8072   7.12800
 3.8045   7.21423
 3.8017   7.25397
 3.7989   7.27352
 3.7961   7.24582
 3.7933   7.14314
 3.7906   7.22692
 3.7878   7.37103
 3.7850   7.24611
 3.7822   7.11219
 3.7795   7.27879
 3.7767   7.43834
 3.7740   7.35658
 3.7713   7.34009
 3.7685   7.31313
 3.7658   7.27795
 3.7630   7.36500
 3.7603   7.25186
 3.7576   7.24824
 3.7549   7.34796
 3.7521   7.29709
 3.7494   7.20022
 3.7467   7.37813
 3.7440   7.56002
 3.7413   7.29633
 3.7386   7.16112
 3.7359   7.22705
 3.7332   7.29122
 3.7306   7.47084
 3.7279   7.57582
 3.7252   7.34820
 3.7225   7.22389
 3.7199   7.30897
 3.7172   7.40215
 3.7145   7.36648
 3.7119   7.33099
 3.7092   7.29873
 3.7066   7.39872
 3.7039   7.43427
 3.7013   7.34157
 3.6986   7.29297
 3.6960   7.29686
 3.6934   7.31823
 3.6907   7.23362
 3.6881   7.10243
 3.6855   7.13399
 3.6829   7.26444
 3.6803   7.36815
 3.6776   7.49765
 3.6750   7.42366
 3.6724   7.32243
 3.6698   7.24780
 3.6672   7.31647
 3.6646   7.36044
 3.6620   7.28216
 3.6595   7.30836
 3.6569   7.18188
 3.6543   7.12983
 3.6517   7.27920
 3.6492   7.24419
 3.6466   7.23373
 3.6440   7.23615
 3.6415   7.23011
 3.6389   7.30803
 3.6364   7.29623
 3.6338   7.11936
 3.6313   7.12706
 3.6287   7.15403
 3.6262   7.13397
 3.6237   7.15376
 3.6211   7.11778
 3.6186   7.17526
 3.6161   7.18748
 3.6136   7.18967
 3.6111   7.04163
 3.6085   7.04671
 3.6060   7.05007
 3.6035   6.94747
 3.6010   6.83595
 3.5985   6.94955
 3.5960   6.99386
 3.5935   7.01087
 3.5910   7.22117
 3.5886   7.25927
 3.5861   7.00157
 3.5836   6.79964
 3.5811   6.92478
 3.5787   7.07768
 3.5762   7.06391
 3.5737   6.94873
 3.5713   7.05143
 3.5688   7.14225
 3.5663   7.06852
 3.5639   7.03489
 3.5614   6.93691
 3.5590   6.70575
 3.5566   6.61644
 3.5541   6.87789
 3.5517   6.85783
 3.5493   6.73814
 3.5468   6.88407
 3.5444   6.93058
 3.5420   6.85170
 3.5396   6.79650
 3.5372   6.79342
 3.5347   6.77103
 3.5323   6.75250
 3.5299   6.80495
 3.5275   6.73093
 3.5251   6.62899
 3.5227   6.58407
 3.5203   6.44963
 3.5180   6.51469
 3.5156   6.55484
 3.5132   6.53193
 3.5108   6.72287
 3.5084   6.76021
 3.5061   6.57044
 3.5037   6.55198
 3.5013   6.45499
 3.4990   6.31448
 3.4966   6.42038
 3.4943   6.59028
 3.4919   6.68722
 3.4895   6.53670
 3.4872   6.44989
 3.4849   6.37926
 3.4825   6.21302
 3.4802   6.17414
 3.4778   6.39002
 3.4755   6.52708
 3.4732   6.48795
 3.4709   6.62379
 3.4685   6.69420
 3.4662   6.51574
 3.4639   6.49089
 3.4616   6.56797
 3.4593   6.57399
 3.4570   6.40741
 3.4547   6.28615
 3.4524   6.45759
 3.4501   6.59075
 3.4478   6.50542
 3.4455   6.58367
 3.4432   6.51150
 3.4409   6.43992
 3.4386   6.42538
 3.4364   6.36421
 3.4341   6.38022
 3.4318   6.43652
 3.4295   6.31305
 3.4273   6.24836
 3.4250   6.35949
 3.4228   6.45498
 3.4205   6.26420
 3.4182   6.13516
 3.4160   6.16292
 3.4137   6.14124
 3.4115   6.09470
 3.4093   6.21153
 3.4070   6.39555
 3.4048   6.49423
 3.4025   6.45740
 3.4003   6.52580
 3.3981   6.59250
 3.3958   6.38009
 3.3936   6.13619
 3.3914   5.99399
 3.3892   6.15957
 3.3870   6.27279
 3.3848   6.33834
 3.3826   6.52997
 3.3804   6.37858
 3.3782   6.12527
 3.3760   6.31594
 3.3738   6.30087
 3.3716   6.10617
 3.3694   6.01216
 3.3672   6.04085
 3.3650   6.10948
 3.3628   6.19216
 3.3606   6.31322
 3.3585   6.11579
 3.3563   6.10410
 3.3541   6.02728
 3.3520   5.89260
 3.3498   6.07947
 3.3476   6.17685
 3.3455   6.10910
 3.3433   6.22992
 3.3411   6.42589
 3.3390   6.33836
 3.3369   6.23894
 3.3347   6.22424
 3.3326   6.08476
 3.3304   6.16650
 3.3283   6.40557
 3.3262   6.29832
 3.3240   6.00934
 3.3219   6.12014
 3.3198   6.17552
 3.3176   6.01840
 3.3155   6.14693
 3.3134   6.25549
 3.3113   6.21786
 3.3092   6.11522
 3.3071   5.98472
 3.3049   6.14425
 3.3028   6.25681
 3.3007   6.47294
 3.2986   6.41901
 3.2965   6.28004
 3.2944   6.26351
 3.2924   6.40655
 3.2903   6.50585
 3.2882   6.12850
 3.2861   6.05434
 3.2840   5.97708
 3.2819   5.86585
 3.2799   5.98166
 3.2778   6.16429
 3.2757   6.25087
 3.2736   6.30132
 3.2716   6.39104
 3.2695   6.34446
 3.2675   6.25090
 3.2654   6.08728
 3.2634   5.89418
 3.2613   5.99439
 3.2593   6.08280
 3.2572   6.05601
 3.2552   6.08827
 3.2531   6.10743
 3.2511   6.27696
 3.2490   6.25159
 3.2470   6.09446
 3.2450   6.09685
 3.2429   6.06903
 3.2409   6.06859
 3.2389   6.19829
 3.2369   6.06485
 3.2348   6.01458
 3.2328   6.15289
 3.2308   6.47945
 3.2288   6.48962
 3.2268   6.29575
 3.2248   6.27708
 3.2228   6.30717
 3.2208   5.99902
 3.2188   5.88494
 3.2168   5.97395
 3.2148   6.00734
 3.2128   6.00230
 3.2108   6.16833
 3.2088   6.25856
 3.2068   6.28198
 3.2049   6.19025
 3.2029   6.14529
 3.2009   6.26109
 3.1989   6.02677
 3.1970   5.76106
 3.1950   5.94635
 3.1930   6.01792
 3.1911   5.95691
 3.1891   6.03375
 3.1871   6.34668
 3.1852   6.46466
 3.1832   6.20969
 3.1813   5.96445
 3.1793   5.75105
 3.1774   5.91302
 3.1754   6.07940
 3.1735   6.04242
 3.1715   6.02642
 3.1696   5.89728
 3.1677   5.82994
 3.1657   5.92159
 3.1638   5.95211
 3.1619   5.98750
 3.1599   6.13231
 3.1580   6.17849
 3.1561   5.90746
 3.1542   5.73677
 3.1523   5.79831
 3.1503   6.03061
 3.1484   5.97338
 3.1465   5.89574
 3.1446   5.99553
 3.1427   6.03250
 3.1408   6.10645
 3.1389   6.09508
 3.1370   5.63104
 3.1351   5.58112
 3.1332   5.76638
 3.1313   5.83891
 3.1294   5.68517
 3.1275   5.74564
 3.1257   5.78548
 3.1238   5.49324
 3.1219   5.47181
 3.1200   5.55536
 3.1181   5.60950
 3.1163   5.86677
 3.1144   5.96908
 3.1125   5.73474
 3.1107   5.32163
 3.1088   5.40677
 3.1069   5.65288
 3.1051   5.58208
 3.1032   5.53897
 3.1014   5.71814
 3.0995   5.76710
 3.0976   5.72484
 3.0958   5.70487
 3.0940   5.62815
 3.0921   5.89022
 3.0903   6.00261
 3.0884   5.69592
 3.0866   5.42455
 3.0848   5.42396
 3.0829   5.34964
 3.0811   5.33788
 3.0793   5.35784
 3.0774   5.43723
 3.0756   5.64778
 3.0738   5.41209
 3.0720   5.26947
 3.0701   5.38241
 3.0683   5.69322
 3.0665   5.54521
 3.0647   5.30519
 3.0629   5.25070
 3.0611   5.54703
 3.0593   5.66190
 3.0575   5.11167
 3.0557   5.07321
 3.0539   5.48406
 3.0521   5.40851
 3.0503   4.91274
 3.0485   5.02134
 3.0467   5.31027
 3.0449   5.35459
 3.0431   5.38934
 3.0413   5.25596
 3.0396   5.16354
 3.0378   5.03777
 3.0360   4.94049
 3.0342   5.08310
 3.0324   5.38726
 3.0307   5.21465
 3.0289   5.34892
 3.0271   5.76298
 3.0254   5.86153
 3.0236   5.35885
 3.0218   5.15048
 3.0201   5.14662
 3.0183   5.40394
 3.0166   5.44422
 3.0148   5.13566
 3.0130   4.96948
 3.0113   5.21252
 3.0096   5.39119
 3.0078   5.26792
 3.0061   5.32061
 3.0043   5.51882
 3.0026   5.64583
 3.0008   5.23438
 2.9991   5.03401
 2.9974   5.45071
 2.9956   5.68320
 2.9939   5.36852
 2.9922   5.09004
 2.9905   5.09246
 2.9887   4.97647
 2.9870   4.98001
 2.9853   5.29187
 2.9836   5.41276
 2.9819   5.96731
 2.9802   5.94347
 2.9784   5.13938
 2.9767   4.92389
 2.9750   4.93541
 2.9733   5.34771
 2.9716   5.21244
 2.9699   5.07297
 2.9682   4.90929
 2.9665   4.82846
 2.9648   4.98275
 2.9631   5.01690
 2.9614   5.30440
 2.9597   5.69457
 2.9581   5.19249
 2.9564   5.12952
 2.9547   5.18708
 2.9530   4.76868
 2.9513   4.45490
 2.9496   4.60465
 2.9480   5.14097
 2.9463   5.52925
 2.9446   5.39914
 2.9429   5.10010
 2.9413   5.32607
 2.9396   5.49076
 2.9379   5.52247
 2.9363   5.70423
 2.9346   5.71635
 2.9330   5.23379
 2.9313   4.84892
 2.9296   4.91903
 2.9280   5.18152
 2.9263   5.49685
 2.9247   5.57750
 2.9230   5.32815
 2.9214   4.98950
 2.9197   5.17368
 2.9181   5.33881
 2.9165   5.17553
 2.9148   5.03985
 2.9132   4.68168
 2.9116   4.66081
 2.9099   4.74775
 2.9083   5.09378
 2.9067   5.00081
 2.9050   5.24760
 2.9034   5.40907
 2.9018   5.46258
 2.9002   5.33657
 2.8985   5.45882
 2.8969   5.89244
 2.8953   5.80503
 2.8937   5.53409
 2.8921   5.49896
 2.8905   5.40460
 2.8888   5.38583
 2.8872   5.30133
 2.8856   5.01752
 2.8840   5.40713
 2.8824   5.80370
 2.8808   6.00590
 2.8792   5.96310
 2.8776   5.62448
 2.8760   5.66344
 2.8744   5.26270
 2.8728   4.73453
 2.8712   4.65442
 2.8697   4.91703
 2.8681   5.17929
 2.8665   5.44200
 2.8649   5.43389
 2.8633   5.37755
 2.8617   5.13757
 2.8602   5.11629
 2.8586   5.07345
 2.8570   4.92109
 2.8554   5.15433
 2.8539   5.46452
 2.8523   5.93781
 2.8507   5.94631
 2.8492   5.63107
 2.8476   5.30063
 2.8460   5.18882
 2.8445   5.20681
 2.8429   5.27815
 2.8413   5.31877
 2.8398   5.19427
 2.8382   5.02214
 2.8367   5.20580
 2.8351   5.37404
 2.8336   5.06779
 2.8320   4.87247
 2.8305   5.12799
 2.8289   5.19053
 2.8274   5.25990
 2.8259   5.30569
 2.8243   5.19315
 2.8228   5.36045
 2.8213   5.69411
 2.8197   5.61531
 2.8182   4.98579
 2.8167   4.69637
 2.8151   4.87730
 2.8136   5.70193
 2.8121   6.33558
 2.8106   6.18242
 2.8090   5.66279
 2.8075   5.29451
 2.8060   5.68236
 2.8045   5.88095
 2.8030   5.08633
 2.8014   4.97930
 2.7999   5.81133
 2.7984   5.70126
 2.7969   5.21665
 2.7954   5.12703
 2.7939   5.07523
 2.7924   5.21062
 2.7909   5.66668
 2.7894   5.79243
 2.7879   5.47442
 2.7864   5.69033
 2.7849   5.75509
 2.7834   5.22318
 2.7819   5.08692
 2.7804   5.19994
 2.7789   5.11647
 2.7774   5.29341
 2.7759   5.41236
 2.7745   5.50892
 2.7730   5.76564
 2.7715   5.72843
 2.7700   5.64768
 2.7685   5.49387
 2.7671   5.04614
 2.7656   4.81032
 2.7641   4.63665
 2.7626   4.60096
 2.7612   4.77597
 2.7597   4.83269
 2.7582   4.30083
 2.7568   4.12005
 2.7553   4.50985
 2.7538   4.69168
 2.7524   4.77171
 2.7509   4.77218
 2.7494   4.81095
 2.7480   5.05639
 2.7465   4.95529
 2.7451   4.65296
 2.7436   4.71110
 2.7422   4.78833
 2.7407   4.69478
 2.7393   4.54885
 2.7378   4.93063
 2.7364   5.29144
 2.7350   5.19513
 2.7335   4.99241
 2.7321   5.01380
 2.7306   4.96272
 2.7292   4.74701
 2.7278   4.78308
 2.7263   5.25527
 2.7249   5.51495
 2.7235   5.22318
 2.7220   5.16987
 2.7206   5.57067
 2.7192   6.08893
 2.7178   6.25633
 2.7163   6.02452
 2.7149   5.97903
 2.7135   6.38114
 2.7121   6.88628
 2.7106   6.82467
 2.7092   6.91952
 2.7078   7.24720
 2.7064   7.00623
 2.7050   6.98153
 2.7036   6.92618
 2.7022   6.71790
 2.7008   6.99225
 2.6994   7.48565
 2.6980   7.61746
 2.6965   7.92073
 2.6951   8.14456
 2.6938   8.07649
 2.6923   7.71940
 2.6910   7.66966
 2.6896   7.98188
 2.6882   8.01667
 2.6868   7.89335
 2.6854   8.24463
 2.6840   8.31582
 2.6826   8.10669
 2.6812   7.91823
 2.6798   7.97419
 2.6784   8.15419
 2.6771   8.27456
 2.6757   8.14546
 2.6743   7.96662
 2.6729   8.51454
 2.6715   8.49181
 2.6702   8.22837
 2.6688   8.47052
 2.6674   8.36910
 2.6660   8.26399
 2.6647   8.68543
 2.6633   8.87119
 2.6619   8.74966
 2.6606   8.44725
 2.6592   8.33319
 2.6578   8.15395
 2.6565   8.03522
 2.6551   8.28308
 2.6538   8.64287
 2.6524   8.47003
 2.6511   8.16772
 2.6497   8.29809
 2.6484   8.27409
 2.6470   8.66430
 2.6456   8.51892
 2.6443   8.12469
 2.6429   8.20472
 2.6416   8.13960
 2.6403   8.33255
 2.6389   8.48288
 2.6376   8.51887
 2.6362   8.49368
 2.6349   8.47548
 2.6336   8.76586
 2.6322   8.87031
 2.6309   8.41661
 2.6296   8.02585
 2.6282   8.00893
 2.6269   8.39070
 2.6256   8.35641
 2.6242   8.47669
 2.6229   8.56978
 2.6216   8.43495
 2.6203   8.64167
 2.6189   8.54774
 2.6176   8.20569
 2.6163   7.97513
 2.6150   8.12708
 2.6136   8.52411
 2.6123   8.44667
 2.6110   8.45177
 2.6097   8.60868
 2.6084   8.73997
 2.6071   8.74608
 2.6058   8.64170
 2.6044   8.53724
 2.6031   8.70134
 2.6018   8.84965
 2.6005   8.80495
 2.5992   8.33692
 2.5979   8.12330
 2.5966   8.44371
 2.5953   8.22622
 2.5940   8.21178
 2.5927   8.46010
 2.5914   8.55911
 2.5901   8.59299
 2.5888   8.52354
 2.5876   8.44494
 2.5863   8.68727
 2.5850   8.44935
 2.5837   8.09381
 2.5824   8.29207
 2.5811   8.36432
 2.5798   8.44961
 2.5785   8.47615
 2.5773   8.19108
 2.5760   8.44011
 2.5747   8.62981
 2.5734   8.17128
 2.5722   7.99196
 2.5709   8.45402
 2.5696   8.41511
 2.5683   8.43681
 2.5671   8.49311
 2.5658   8.42642
 2.5645   8.58542
 2.5633   8.87136
 2.5620   8.20884
 2.5607   7.80450
 2.5595   7.90113
 2.5582   8.59667
 2.5569   8.72455
 2.5557   8.44218
 2.5544   8.62897
 2.5532   8.52987
 2.5519   8.37519
 2.5507   8.72208
 2.5494   9.01615
 2.5481   9.07209
 2.5469   8.62186
 2.5456   8.38059
 2.5444   8.20081
 2.5431   8.73014
 2.5419   9.07876
 2.5406   9.07954
 2.5394   8.76558
 2.5382   8.27604
 2.5369   8.32046
 2.5357   8.58671
 2.5344   8.52304
 2.5332   8.26853
 2.5320   8.56032
 2.5307   8.87646
 2.5295   8.85640
 2.5283   8.75408
 2.5270   8.62620
 2.5258   8.59222
 2.5246   8.49262
 2.5233   8.70228
 2.5221   9.11803
 2.5209   9.11406
 2.5197   8.55782
 2.5184   8.61506
 2.5172   8.93977
 2.5160   8.60083
 2.5148   8.40526
 2.5136   8.69328
 2.5123   8.35567
 2.5111   8.06523
 2.5099   8.60785
 2.5087   8.71481
 2.5075   8.64867
 2.5063   8.76948
 2.5051   8.48139
 2.5038   8.47139
 2.5026   8.54725
 2.5014   8.44222
 2.5002   8.63176
 2.4990   8.95037
 2.4978   8.61269
 2.4966   8.88956
 2.4954   9.41896
 2.4942   9.04207
 2.4930   9.01654
 2.4918   9.29183
 2.4906   8.80460
 2.4894   8.37653
 2.4882   8.39695
 2.4870   8.45489
 2.4858   8.22338
 2.4846   8.18632
 2.4835   8.49536
 2.4823   8.73900
 2.4811   8.57540
 2.4799   8.74572
 2.4787   8.55000
 2.4775   8.09714
 2.4764   7.84981
 2.4752   8.17987
 2.4740   8.94204
 2.4728   8.44754
 2.4716   8.21569
 2.4705   8.71052
 2.4693   8.91042
 2.4681   8.69070
 2.4669   8.47693
 2.4657   8.79942
 2.4646   9.25258
 2.4634   9.60812
 2.4622   9.09033
 2.4611   8.08069
 2.4599   8.09510
 2.4587   8.73766
 2.4576   8.95732
 2.4564   8.74469
 2.4552   8.39925
 2.4541   8.10629
 2.4529   7.75138
 2.4518   7.94503
 2.4506   8.64874
 2.4494   9.08318
 2.4483   8.92853
 2.4471   8.40679
 2.4460   8.58892
 2.4448   8.92180
 2.4437   8.90024
 2.4425   8.76503
 2.4414   8.69328
 2.4402   8.43775
 2.4391   8.20539
 2.4379   8.09847
 2.4368   8.36225
 2.4356   8.67820
 2.4345   8.57439
 2.4333   8.27812
 2.4322   8.14497
 2.4311   7.86562
 2.4299   8.37395
 2.4288   8.99715
 2.4276   8.83400
 2.4265   8.94155
 2.4254   9.03729
 2.4242   8.83342
 2.4231   9.04257
 2.4220   9.35491
 2.4209   9.02309
 2.4197   8.52765
 2.4186   9.09248
 2.4175   9.73524
 2.4163   9.43292
 2.4152   9.16752
 2.4141   9.01758
 2.4130   8.44770
 2.4118   8.28603
 2.4107   9.09663
 2.4096   9.70890
 2.4085   9.54812
 2.4074   9.18189
 2.4063   8.88771
 2.4051   8.56505
 2.4040   8.62988
 2.4029   8.60900
 2.4018   8.54030
 2.4007   9.10534
 2.3996   9.37742
 2.3985   8.89849
 2.3973   8.77605
 2.3962   8.93130
 2.3951   8.84100
 2.3940   8.77747
 2.3929   8.63515
 2.3918   8.80012
 2.3907   8.41467
 2.3896   8.39411
 2.3885   9.15906
 2.3874   9.48712
 2.3863   9.04494
 2.3852   8.87943
 2.3841   8.77711
 2.3830   8.68556
 2.3819   9.10212
 2.3808   9.31227
 2.3798   8.91139
 2.3786   8.95541
 2.3776   9.40312
 2.3765   9.80632
 2.3754   9.67003
 2.3743   8.89069
 2.3732   8.50437
 2.3721   8.87742
 2.3710   9.01841
 2.3700   8.40832
 2.3689   7.97632
 2.3678   8.49886
 2.3667   8.81941
 2.3656   8.73197
 2.3645   8.44146
 2.3635   8.64680
 2.3624   8.90094
 2.3613   8.59033
 2.3603   8.34070
 2.3592   8.36370
 2.3581   8.36989
 2.3570   8.48666
 2.3560   8.59999
 2.3549   9.04462
 2.3538   9.66856
 2.3527   9.28274
 2.3517   9.23546
 2.3506   9.78008
 2.3495   9.24091
 2.3485   8.72184
 2.3474   8.92848
 2.3464   8.99239
 2.3453   9.06347
 2.3442   9.23755
 2.3432   9.27386
 2.3421   9.20798
 2.3411   8.98164
 2.3400   8.27036
 2.3390   8.11859
 2.3379   8.81664
 2.3369   9.45663
 2.3358   9.52410
 2.3347   9.21491
 2.3337   9.19993
 2.3326   9.61892
 2.3316   9.59396
 2.3306   9.05572
 2.3295   8.73740
 2.3285   8.70722
 2.3274   8.63903
 2.3264   8.59396
 2.3253   8.82369
 2.3243   9.31233
 2.3232   9.12765
 2.3222   8.72609
 2.3212   8.93279
 2.3201   9.24366
 2.3191   9.08433
 2.3180   8.75326
 2.3170   9.05543
 2.3160   9.52370
 2.3149   9.23016
 2.3139   9.11039
 2.3129   9.79780
 2.3118   9.99055
 2.3108   9.80270
 2.3098   9.40445
 2.3088   9.01660
 2.3077   8.63835
 2.3067   8.65104
 2.3057   8.75157
 2.3047   8.99269
 2.3036   9.71181
 2.3026   9.77893
 2.3016   9.12229
 2.3006   8.95268
 2.2995   9.32788
 2.2985   9.23185
 2.2975   9.21958
 2.2965   9.49245
 2.2955   9.16395
 2.2944   9.28131
 2.2934   9.10122
 2.2924   8.79590
 2.2914   9.27998
 2.2904   9.57001
 2.2894   9.43618
 2.2884   9.07733
 2.2874   8.77257
 2.2864   8.73748
 2.2854   8.96969
 2.2843   9.21484
 2.2833   9.32901
 2.2823   9.65379
 2.2813   9.40532
 2.2803   9.00794
 2.2793   8.91831
 2.2783   8.76268
 2.2773   8.74867
 2.2763   8.64863
 2.2753   8.79225
 2.2743   9.46970
 2.2733   9.70557
 2.2723   9.11700
 2.2713   8.11978
 2.2703   8.54354
 2.2694   9.19588
 2.2684   9.18077
 2.2674   9.55259
 2.2664   9.55485
 2.2654   9.20406
 2.2644   9.52673
 2.2634   9.88449
 2.2624   9.83832
 2.2614  10.10390
 2.2605   9.75629
 2.2595   9.39839
 2.2585   9.52250
 2.2575  10.00930
 2.2565   9.70015
 2.2555   9.16456
 2.2546   9.16176
 2.2536   8.74390
 2.2526   8.69162
 2.2516   8.70490
 2.2506   8.84873
 2.2497   9.11030
 2.2487   9.58741
 2.2477   9.84425
 2.2467   9.31683
 2.2458   8.77132
 2.2448   9.13619
 2.2438   9.42967
 2.2428   9.19638
 2.2419   9.02363
 2.2409   9.59660
 2.2399   9.25196
 2.2390   9.20120
 2.2380   9.07028
 2.2370   8.72240
 2.2361   9.29029
 2.2351   9.51004
 2.2342   9.64686
 2.2332   9.51827
 2.2322   9.04578
 2.2313   8.93166
 2.2303   9.36041
 2.2294   9.34806
 2.2284   9.13369
 2.2274   9.34273
 2.2265   9.71740
 2.2255   9.73395
 2.2246   9.35398
 2.2236   8.85242
 2.2227   8.37130
 2.2217   9.09969
 2.2208   9.13303
 2.2198   8.11291
 2.2189   7.85040
 2.2179   8.73358
 2.2170   9.00511
 2.2160   8.18775
 2.2151   8.61133
 2.2141   9.76630
 2.2132   9.44092
 2.2122   8.62955
 2.2113   8.40113
 2.2103   8.33280
 2.2094   8.51081
 2.2085   8.87273
 2.2075   9.09778
 2.2066   8.88775
 2.2056   8.73885
 2.2047   8.99354
 2.2038   9.18950
 2.2028   9.08536
 2.2019   9.16236
 2.2010   9.20841
 2.2000   9.06403
 2.1991   8.92413
 2.1982   8.93027
 2.1972   9.09764
 2.1963   9.11624
 2.1954   9.42737
 2.1944   9.21684
 2.1935   8.87883
 2.1926   8.75859
 2.1917   9.02218
 2.1907   9.61261
 2.1898   9.59685
 2.1889  10.00190
 2.1880  10.14730
 2.1870   9.60168
 2.1861   8.81412
 2.1852   8.85910
 2.1843   9.17858
 2.1833   8.41427
 2.1824   8.35297
 2.1815   8.67692
 2.1806   9.26527
 2.1797   9.76261
 2.1788   9.64331
 2.1778   9.56667
 2.1769   9.56839
 2.1760  10.09380
 2.1751   9.60762
 2.1742   9.06711
 2.1733   9.55245
 2.1724   9.68086
 2.1715  10.08650
 2.1706   9.62418
 2.1696   9.63426
 2.1687  10.43700
 2.1678   9.66247
 2.1669   9.05311
 2.1660   9.33682
 2.1651   9.41704
 2.1642   9.47836
 2.1633   8.72366
 2.1624   8.64636
 2.1615   8.85320
 2.1606   9.40898
 2.1597  10.37400
 2.1588  10.47550
 2.1579   9.81894
 2.1570   9.50015
 2.1561   9.05714
 2.1552   9.55991
 2.1543  10.32770
 2.1534   9.84958
 2.1525   9.34752
 2.1517   9.54925
 2.1507   9.34515
 2.1499   8.69404
 2.1490   9.04224
 2.1481  10.03790
 2.1472  10.10420
 2.1463   9.96178
 2.1454  10.05920
 2.1445   9.88591
 2.1436   9.55165
 2.1428   9.85124
 2.1419  10.57150
 2.1410   9.92260
 2.1401   8.81125
 2.1392   9.24247
 2.1383  10.03450
 2.1375   9.54955
 2.1366   7.96275
 2.1357   7.84786
 2.1348   9.21209
 2.1339   9.03960
 2.1331   8.91858
 2.1322   9.58968
 2.1313   9.23096
 2.1304   9.73672
 2.1296   9.68855
 2.1287   9.41022
 2.1278   9.60758
 2.1269   8.98704
 2.1261   9.62986
 2.1252   9.61951
 2.1243   9.76416
 2.1235  10.41090
 2.1226   9.59905
 2.1217   9.01857
 2.1208   9.66592
 2.1200   9.81439
 2.1191   9.36839
 2.1183   9.40832
 2.1174   9.69061
 2.1165   8.87445
 2.1157   9.22850
 2.1148  10.23780
 2.1139  10.58780
 2.1131  10.94440
 2.1122  10.17470
 2.1113   9.86063
 2.1105  10.33260
 2.1096  10.05120
 2.1088  10.10630
 2.1079   9.88236
 2.1071   9.13995
 2.1062   8.83247
 2.1054   9.25656
 2.1045   9.40378
 2.1036   9.54549
 2.1028  10.30870
 2.1019  10.48160
 2.1011   9.96198
 2.1002  10.01850
 2.0994  10.29040
 2.0985  10.19640
 2.0977   9.91805
 2.0968   8.76471
 2.0960   8.57712
 2.0951   9.00976
 2.0943   9.82014
 2.0934  10.43360
 2.0926   9.21275
 2.0918   7.78640
 2.0909   8.09086
 2.0901   8.63007
 2.0892   8.35330
 2.0884   9.16524
 2.0875  10.65500
 2.0867  10.46840
 2.0859   9.33884
 2.0850   8.64699
 2.0842   8.08606
 2.0833   8.86192
 2.0825   8.66836
 2.0817   8.46179
 2.0808   9.04149
 2.0800   9.50575
 2.0792   9.42529
 2.0783   8.55725
 2.0775   8.40150
 2.0767   9.76631
 2.0759   9.91565
 2.0750   9.74973
 2.0742  10.39190
 2.0734   9.94252
 2.0725   9.60397
 2.0717   9.28386
 2.0709   8.82643
 2.0701   9.74844
 2.0692  10.70740
 2.0684   9.31939
 2.0676   8.87913
 2.0667  10.26020
 2.0659   9.80647
 2.0651   8.91619
 2.0643   9.06864
 2.0635  10.13550
 2.0626   9.68187
 2.0618   9.16431
 2.0610   9.82324
 2.0602  10.27470
 2.0594   9.94405
 2.0585   9.90762
 2.0577  11.82770
 2.0569  10.45560
 2.0561   9.80405
 2.0553  10.43360
 2.0545  12.16690
 2.0537  13.34050
 2.0528  11.77210
 2.0520  10.86970
 2.0512  10.99970
 2.0504  10.35290
 2.0496   9.76167
 2.0488   9.43175
 2.0480   8.87208
 2.0472   9.12188
 2.0464   9.38694
 2.0456   6.57629
 2.0447   6.06670
 2.0439   8.10980
 2.0431   7.70112
 2.0423   8.92223
 2.0415  10.01560
 2.0407   7.93052
 2.0399   7.70233
 2.0391   9.02911
 2.0383   9.37729
 2.0375  10.79910
 2.0367  11.42680
 2.0359  10.80370
 2.0351  10.61290
 2.0343   9.25178
 2.0335   9.58272
 2.0327  10.20790
 2.0319  10.24620
 2.0311   9.86783
 2.0303   9.34890
 2.0295   9.18348
 2.0287  10.10090
 2.0280  10.81960
 2.0272  10.15580
 2.0264  11.64480
 2.0256  12.05950
 2.0248   8.52808
 2.0240   9.07420
 2.0232  11.82210
 2.0224  11.97510
 2.0216  10.92460
 2.0208   7.69046
 2.0200   6.79717
 2.0193   8.20307
 2.0185   8.56546
 2.0177   9.73868
 2.0169  10.67670
 2.0161  10.45330
 2.0153   9.88369
 2.0146  10.25270
 2.0138  11.14420
 2.0130  10.43480
 2.0122   8.80193
 2.0114   8.24857
 2.0107   8.72059
 2.0099   9.90768
 2.0091  11.08390
 2.0083  10.88940
 2.0075  10.51820
 2.0068   9.48940
 2.0060   8.63468
 2.0052   9.22882
 2.0044  10.48690
 2.0037  10.57130
 2.0029   8.69571
 2.0021   9.64633
 2.0013  11.13280
 2.0006  10.09720
 1.9998   9.21549
