Name: Rhyolite
Type: Rock
Class: Igneous
Subclass:  Felsic 
Particle Size: Solid surface
Sample No.: Ward07.txt
Owner: JPL
Wavelength range:  VNIR SWIR IR 
Origin: Ward's Collection of American Rocks.  Sample locality - Castle Rock, Douglas County, Colorado.
Collected by:  Ward's Natural Science
Description: A pinkish rock with scattered phenocrysts of glassy quartz
in a felsitic and somewhat vesicular groundmass.
Geologic age - Tertiary (Eocene).



Measurement: Hemispherical reflectance
First Column: X
Second Column: Y
X Units: Wavelength (micrometers)
Y Units: Reflectance (percent)
First X Value: 2.500
Last X Value: 0.400
Number of X Values: 2101
Additional information: None

2.500  44.102563
2.499  43.722076
2.498  43.980933
2.497  43.935467
2.496  43.786727
2.495  43.916194
2.494  43.824264
2.493  43.561393
2.492  44.196490
2.491  43.859774
2.490  44.024404
2.489  43.783630
2.488  43.926011
2.487  43.772122
2.486  44.044593
2.485  43.791642
2.484  43.918012
2.483  43.810060
2.482  43.950965
2.481  44.009725
2.480  44.117295
2.479  44.015475
2.478  43.931391
2.477  44.009954
2.476  43.875456
2.475  43.991156
2.474  44.026708
2.473  44.020873
2.472  44.085012
2.471  43.995863
2.470  44.067890
2.469  43.932967
2.468  43.925467
2.467  44.006293
2.466  44.132747
2.465  43.988507
2.464  44.005089
2.463  44.067125
2.462  44.089276
2.461  43.915537
2.460  44.008546
2.459  44.022710
2.458  44.154446
2.457  44.119470
2.456  44.018069
2.455  43.929918
2.454  44.080929
2.453  44.073176
2.452  44.170921
2.451  44.009233
2.450  44.128620
2.449  44.020144
2.448  44.219485
2.447  44.206380
2.446  44.219430
2.445  44.221416
2.444  44.164998
2.443  44.199183
2.442  44.262317
2.441  44.193645
2.440  44.244857
2.439  44.248493
2.438  44.242978
2.437  44.213824
2.436  44.250201
2.435  44.205925
2.434  44.341552
2.433  44.326174
2.432  44.277033
2.431  44.212944
2.430  44.241793
2.429  44.248581
2.428  44.232621
2.427  44.301376
2.426  44.391810
2.425  44.281164
2.424  44.340244
2.423  44.242563
2.422  44.427983
2.421  44.379243
2.420  44.355008
2.419  44.325324
2.418  44.368512
2.417  44.277413
2.416  44.396095
2.415  44.383332
2.414  44.326884
2.413  44.177782
2.412  44.331699
2.411  44.331493
2.410  44.296511
2.409  44.282123
2.408  44.410931
2.407  44.301170
2.406  44.351766
2.405  44.394159
2.404  44.336365
2.403  44.305615
2.402  44.391317
2.401  44.414907
2.400  44.389192
2.399  44.417060
2.398  44.451694
2.397  44.356475
2.396  44.471066
2.395  44.472890
2.394  44.447821
2.393  44.352715
2.392  44.411051
2.391  44.499562
2.390  44.469028
2.389  44.458660
2.388  44.473849
2.387  44.477337
2.386  44.507767
2.385  44.418117
2.384  44.486116
2.383  44.529957
2.382  44.485513
2.381  44.485071
2.380  44.489830
2.379  44.413752
2.378  44.411009
2.377  44.379370
2.376  44.493021
2.375  44.482600
2.374  44.483429
2.373  44.494932
2.372  44.437262
2.371  44.446543
2.370  44.496222
2.369  44.459711
2.368  44.468757
2.367  44.499273
2.366  44.465488
2.365  44.439243
2.364  44.476696
2.363  44.553425
2.362  44.514593
2.361  44.415915
2.360  44.389705
2.359  44.388742
2.358  44.449678
2.357  44.369521
2.356  44.314256
2.355  44.308486
2.354  44.372631
2.353  44.395519
2.352  44.330408
2.351  44.316438
2.350  44.293149
2.349  44.280130
2.348  44.276230
2.347  44.299836
2.346  44.340515
2.345  44.267982
2.344  44.210087
2.343  44.269584
2.342  44.230206
2.341  44.222342
2.340  44.167218
2.339  44.199445
2.338  44.239659
2.337  44.189115
2.336  44.154265
2.335  44.243110
2.334  44.229138
2.333  44.242626
2.332  44.237274
2.331  44.233376
2.330  44.185027
2.329  44.151340
2.328  44.149925
2.327  44.218172
2.326  44.153975
2.325  44.186891
2.324  44.225776
2.323  44.187017
2.322  44.171378
2.321  44.151846
2.320  44.119051
2.319  44.136679
2.318  44.115499
2.317  44.122687
2.316  44.193392
2.315  44.145653
2.314  44.093309
2.313  44.173630
2.312  44.146014
2.311  44.131096
2.310  44.025627
2.309  43.987388
2.308  44.111778
2.307  44.152422
2.306  44.043240
2.305  44.048420
2.304  44.078599
2.303  44.120048
2.302  44.063674
2.301  44.088700
2.300  44.005326
2.299  43.987596
2.298  43.999811
2.297  44.021895
2.296  44.054080
2.295  44.097983
2.294  44.060010
2.293  44.036205
2.292  44.006984
2.291  44.005193
2.290  43.984362
2.289  44.036558
2.288  44.017013
2.287  44.000689
2.286  43.982489
2.285  43.995500
2.284  43.947236
2.283  43.977784
2.282  43.960736
2.281  43.961492
2.280  43.906476
2.279  44.002597
2.278  43.952103
2.277  43.977635
2.276  43.867074
2.275  43.945045
2.274  43.896323
2.273  43.922462
2.272  43.953150
2.271  43.870029
2.270  43.806580
2.269  43.846881
2.268  43.791478
2.267  43.891009
2.266  43.936452
2.265  43.853422
2.264  43.805504
2.263  43.790978
2.262  43.678396
2.261  43.816141
2.260  43.787963
2.259  43.887065
2.258  43.767496
2.257  43.760126
2.256  43.752749
2.255  43.795751
2.254  43.701659
2.253  43.818851
2.252  43.759101
2.251  43.842111
2.250  43.832547
2.249  43.726713
2.248  43.652541
2.247  43.750011
2.246  43.764290
2.245  43.719229
2.244  43.674324
2.243  43.775584
2.242  43.671164
2.241  43.724404
2.240  43.669262
2.239  43.700203
2.238  43.766026
2.237  43.752676
2.236  43.573600
2.235  43.773220
2.234  43.735284
2.233  43.670629
2.232  43.627620
2.231  43.714901
2.230  43.658491
2.229  43.751863
2.228  43.560462
2.227  43.742406
2.226  43.554468
2.225  43.641453
2.224  43.628707
2.223  43.657438
2.222  43.536328
2.221  43.659486
2.220  43.570971
2.219  43.750642
2.218  43.483922
2.217  43.605654
2.216  43.544606
2.215  43.590419
2.214  43.573750
2.213  43.587688
2.212  43.494564
2.211  43.512227
2.210  43.523814
2.209  43.559127
2.208  43.487777
2.207  43.693022
2.206  43.600682
2.205  43.646895
2.204  43.455824
2.203  43.667491
2.202  43.593190
2.201  43.657123
2.200  43.607101
2.199  43.573228
2.198  43.505435
2.197  43.624134
2.196  43.550283
2.195  43.562297
2.194  43.566370
2.193  43.625423
2.192  43.637912
2.191  43.618650
2.190  43.456046
2.189  43.594090
2.188  43.547258
2.187  43.562232
2.186  43.501419
2.185  43.513533
2.184  43.394944
2.183  43.552400
2.182  43.459697
2.181  43.535862
2.180  43.488230
2.179  43.516328
2.178  43.472772
2.177  43.549945
2.176  43.425677
2.175  43.394310
2.174  43.450940
2.173  43.452916
2.172  43.397926
2.171  43.484064
2.170  43.398008
2.169  43.401838
2.168  43.481399
2.167  43.438825
2.166  43.417735
2.165  43.452273
2.164  43.388823
2.163  43.587032
2.162  43.417479
2.161  43.482480
2.160  43.315645
2.159  43.482168
2.158  43.419574
2.157  43.457911
2.156  43.357797
2.155  43.469581
2.154  43.410795
2.153  43.407589
2.152  43.354819
2.151  43.321896
2.150  43.364693
2.149  43.327232
2.148  43.345411
2.147  43.411441
2.146  43.354750
2.145  43.360963
2.144  43.342771
2.143  43.231395
2.142  43.214806
2.141  43.294553
2.140  43.248249
2.139  43.282916
2.138  43.163827
2.137  43.206851
2.136  43.193724
2.135  43.223048
2.134  43.122863
2.133  43.154003
2.132  43.099579
2.131  43.140588
2.130  43.016878
2.129  43.103829
2.128  43.078446
2.127  43.027622
2.126  42.924259
2.125  42.936744
2.124  42.943648
2.123  42.935845
2.122  42.862462
2.121  42.923861
2.120  42.870655
2.119  42.892580
2.118  42.803106
2.117  42.754403
2.116  42.729887
2.115  42.760804
2.114  42.714223
2.113  42.666961
2.112  42.559300
2.111  42.495809
2.110  42.553152
2.109  42.540417
2.108  42.513092
2.107  42.532433
2.106  42.436424
2.105  42.446235
2.104  42.417247
2.103  42.406076
2.102  42.320119
2.101  42.289398
2.100  42.302116
2.099  42.324778
2.098  42.370139
2.097  42.404505
2.096  42.325001
2.095  42.279496
2.094  42.292380
2.093  42.289960
2.092  42.313770
2.091  42.327148
2.090  42.293166
2.089  42.349927
2.088  42.336502
2.087  42.309444
2.086  42.294651
2.085  42.255336
2.084  42.300238
2.083  42.322925
2.082  42.274752
2.081  42.255366
2.080  42.261933
2.079  42.267877
2.078  42.250627
2.077  42.309381
2.076  42.307899
2.075  42.253738
2.074  42.271435
2.073  42.215413
2.072  42.293925
2.071  42.305896
2.070  42.218798
2.069  42.216026
2.068  42.192881
2.067  42.177226
2.066  42.225976
2.065  42.162992
2.064  42.128387
2.063  42.237872
2.062  42.285559
2.061  42.234221
2.060  42.185196
2.059  42.241419
2.058  42.259416
2.057  42.158378
2.056  42.187778
2.055  42.211625
2.054  42.204915
2.053  42.212220
2.052  42.257509
2.051  42.257531
2.050  42.196333
2.049  42.229915
2.048  42.209704
2.047  42.122878
2.046  42.195924
2.045  42.146592
2.044  42.139170
2.043  42.134715
2.042  42.088916
2.041  42.081306
2.040  42.179717
2.039  42.133926
2.038  42.122086
2.037  42.048954
2.036  42.079788
2.035  42.050449
2.034  42.058792
2.033  42.067818
2.032  42.071556
2.031  42.056110
2.030  42.122844
2.029  42.024777
2.028  42.083570
2.027  42.070693
2.026  42.073619
2.025  42.012352
2.024  42.056612
2.023  42.016449
2.022  42.009297
2.021  41.919464
2.020  41.987474
2.019  41.963956
2.018  41.934501
2.017  41.910231
2.016  41.893821
2.015  41.827506
2.014  41.950553
2.013  41.909986
2.012  41.903051
2.011  41.906276
2.010  41.912608
2.009  41.794458
2.008  41.843805
2.007  41.787458
2.006  41.887338
2.005  41.805145
2.004  41.782449
2.003  41.692669
2.002  41.799963
2.001  41.778354
2.000  41.807849
1.999  41.697813
1.998  41.780732
1.997  41.640306
1.996  41.721984
1.995  41.666219
1.994  41.695523
1.993  41.641434
1.992  41.640297
1.991  41.580062
1.990  41.632011
1.989  41.468426
1.988  41.563785
1.987  41.455248
1.986  41.466291
1.985  41.475909
1.984  41.535838
1.983  41.391826
1.982  41.444849
1.981  41.339813
1.980  41.425254
1.979  41.382361
1.978  41.403669
1.977  41.344179
1.976  41.319547
1.975  41.204895
1.974  41.350705
1.973  41.312666
1.972  41.345959
1.971  41.197367
1.970  41.289370
1.969  41.139801
1.968  41.126540
1.967  41.235089
1.966  41.262354
1.965  41.116430
1.964  41.201442
1.963  41.071338
1.962  41.194968
1.961  41.019976
1.960  41.077960
1.959  40.979472
1.958  41.081287
1.957  41.100259
1.956  41.051210
1.955  40.972384
1.954  41.015617
1.953  40.913747
1.952  40.928714
1.951  40.926381
1.950  40.912829
1.949  40.815688
1.948  40.874233
1.947  40.782668
1.946  40.825682
1.945  40.781573
1.944  40.804252
1.943  40.722471
1.942  40.822102
1.941  40.687856
1.940  40.748153
1.939  40.645379
1.938  40.755822
1.937  40.617319
1.936  40.681211
1.935  40.681969
1.934  40.738786
1.933  40.537287
1.932  40.544515
1.931  40.554582
1.930  40.672728
1.929  40.560592
1.928  40.630474
1.927  40.577606
1.926  40.550239
1.925  40.638201
1.924  40.615464
1.923  40.540520
1.922  40.580592
1.921  40.506320
1.920  40.605986
1.919  40.580496
1.918  40.647771
1.917  40.595212
1.916  40.673305
1.915  40.606539
1.914  40.772162
1.913  40.665617
1.912  40.773655
1.911  40.721746
1.910  40.793990
1.909  40.758105
1.908  40.847744
1.907  40.747956
1.906  40.913561
1.905  40.766389
1.904  40.842354
1.903  40.899251
1.902  41.042478
1.901  40.943415
1.900  41.125895
1.899  41.107918
1.898  41.201560
1.897  41.115586
1.896  41.333819
1.895  41.219499
1.894  41.510935
1.893  41.474379
1.892  41.583330
1.891  41.476852
1.890  41.569847
1.889  41.591770
1.888  41.595857
1.887  41.607354
1.886  41.665756
1.885  41.644251
1.884  41.717635
1.883  41.732662
1.882  41.831949
1.881  41.677149
1.880  41.827612
1.879  41.792881
1.878  41.811128
1.877  41.848306
1.876  41.865640
1.875  41.635703
1.874  41.838050
1.873  41.751664
1.872  41.820567
1.871  41.710000
1.870  41.828705
1.869  41.808965
1.868  41.834537
1.867  41.834913
1.866  41.960813
1.865  41.977314
1.864  42.052346
1.863  42.051923
1.862  42.111829
1.861  42.056519
1.860  42.098262
1.859  42.083113
1.858  42.126452
1.857  42.036008
1.856  42.055927
1.855  42.125765
1.854  42.187321
1.853  42.122913
1.852  42.143562
1.851  42.161358
1.850  42.133483
1.849  42.117735
1.848  42.217366
1.847  42.193855
1.846  42.255051
1.845  42.187961
1.844  42.208953
1.843  42.294681
1.842  42.254034
1.841  42.256525
1.840  42.349512
1.839  42.274729
1.838  42.321531
1.837  42.369566
1.836  42.354152
1.835  42.298403
1.834  42.352011
1.833  42.401050
1.832  42.429419
1.831  42.425864
1.830  42.390174
1.829  42.339520
1.828  42.467209
1.827  42.468680
1.826  42.447394
1.825  42.440166
1.824  42.513057
1.823  42.494981
1.822  42.556544
1.821  42.555828
1.820  42.510175
1.819  42.487236
1.818  42.529020
1.817  42.588839
1.816  42.675400
1.815  42.611033
1.814  42.670946
1.813  42.659378
1.812  42.661298
1.811  42.661325
1.810  42.654315
1.809  42.659256
1.808  42.748126
1.807  42.777540
1.806  42.761956
1.805  42.778943
1.804  42.818598
1.803  42.762798
1.802  42.765528
1.801  42.794549
1.800  42.848172
1.799  42.817098
1.798  42.862213
1.797  42.884213
1.796  42.872652
1.795  42.892128
1.794  42.857914
1.793  42.824245
1.792  42.890677
1.791  42.921068
1.790  42.951258
1.789  42.943796
1.788  42.903169
1.787  42.926907
1.786  42.938336
1.785  42.909880
1.784  42.941547
1.783  42.982035
1.782  43.002012
1.781  43.014505
1.780  43.001521
1.779  43.052522
1.778  43.048636
1.777  43.036031
1.776  43.023620
1.775  43.043823
1.774  43.052798
1.773  43.059104
1.772  43.058662
1.771  43.100682
1.770  43.120888
1.769  43.198824
1.768  43.183370
1.767  43.175458
1.766  43.191759
1.765  43.214356
1.764  43.227608
1.763  43.242044
1.762  43.216961
1.761  43.184978
1.760  43.254917
1.759  43.389352
1.758  43.369683
1.757  43.321099
1.756  43.332459
1.755  43.397335
1.754  43.361764
1.753  43.386120
1.752  43.467207
1.751  43.488031
1.750  43.432157
1.749  43.502447
1.748  43.511619
1.747  43.535645
1.746  43.538318
1.745  43.556855
1.744  43.496062
1.743  43.587876
1.742  43.540870
1.741  43.629250
1.740  43.595921
1.739  43.603930
1.738  43.605085
1.737  43.669736
1.736  43.666565
1.735  43.724622
1.734  43.692450
1.733  43.725772
1.732  43.681979
1.731  43.708561
1.730  43.720381
1.729  43.820757
1.728  43.845246
1.727  43.851917
1.726  43.801242
1.725  43.844249
1.724  43.786013
1.723  43.906933
1.722  43.915772
1.721  43.917931
1.720  43.914619
1.719  43.957585
1.718  43.989471
1.717  44.049991
1.716  43.950255
1.715  44.034686
1.714  43.961852
1.713  44.085052
1.712  44.077582
1.711  44.202491
1.710  44.144886
1.709  44.109268
1.708  44.126286
1.707  44.197358
1.706  44.163052
1.705  44.158553
1.704  44.141146
1.703  44.186594
1.702  44.282974
1.701  44.297359
1.700  44.182606
1.699  44.242036
1.698  44.281783
1.697  44.370455
1.696  44.301403
1.695  44.349414
1.694  44.317061
1.693  44.337665
1.692  44.356324
1.691  44.385276
1.690  44.389682
1.689  44.403170
1.688  44.403739
1.687  44.419431
1.686  44.444611
1.685  44.497109
1.684  44.461994
1.683  44.547439
1.682  44.454240
1.681  44.625828
1.680  44.564202
1.679  44.623948
1.678  44.483332
1.677  44.700916
1.676  44.670309
1.675  44.679943
1.674  44.658043
1.673  44.705539
1.672  44.713220
1.671  44.756899
1.670  44.742760
1.669  44.730754
1.668  44.672501
1.667  44.835235
1.666  44.758823
1.665  44.890366
1.664  44.906962
1.663  44.876320
1.662  44.754748
1.661  44.893605
1.660  44.865070
1.659  44.959064
1.658  44.784502
1.657  44.923462
1.656  44.854276
1.655  44.957497
1.654  44.879605
1.653  45.032566
1.652  45.016152
1.651  44.991699
1.650  45.039215
1.649  45.031400
1.648  45.090725
1.647  45.072040
1.646  45.030491
1.645  45.131891
1.644  44.993855
1.643  45.139180
1.642  45.175380
1.641  45.018016
1.640  45.238844
1.639  45.264016
1.638  45.164038
1.637  45.182949
1.636  45.207555
1.635  45.268345
1.634  45.231727
1.633  45.224486
1.632  45.311518
1.631  45.315972
1.630  45.264525
1.629  45.298214
1.628  45.333156
1.627  45.377590
1.626  45.417856
1.625  45.448005
1.624  45.424592
1.623  45.481428
1.622  45.377413
1.621  45.498199
1.620  45.450604
1.619  45.442474
1.618  45.504907
1.617  45.606050
1.616  45.564606
1.615  45.610020
1.614  45.547440
1.613  45.658931
1.612  45.578536
1.611  45.681883
1.610  45.602502
1.609  45.718524
1.608  45.606030
1.607  45.591730
1.606  45.598680
1.605  45.750625
1.604  45.760685
1.603  45.770244
1.602  45.726969
1.601  45.769026
1.600  45.736690
1.599  45.884568
1.598  45.864760
1.597  45.895858
1.596  45.858116
1.595  45.835421
1.594  45.786861
1.593  45.811070
1.592  45.925782
1.591  45.926191
1.590  45.994024
1.589  45.944162
1.588  45.936862
1.587  45.949182
1.586  45.963533
1.585  45.993343
1.584  45.943537
1.583  46.062465
1.582  46.066717
1.581  46.072351
1.580  46.036488
1.579  46.087605
1.578  46.017535
1.577  46.020847
1.576  46.099110
1.575  46.032066
1.574  46.112768
1.573  46.162765
1.572  46.100437
1.571  46.175190
1.570  46.163860
1.569  46.205583
1.568  46.134508
1.567  46.179740
1.566  46.229042
1.565  46.241957
1.564  46.165438
1.563  46.293426
1.562  46.294165
1.561  46.271750
1.560  46.237447
1.559  46.315036
1.558  46.281896
1.557  46.324129
1.556  46.299138
1.555  46.388346
1.554  46.333983
1.553  46.365898
1.552  46.347206
1.551  46.362458
1.550  46.408999
1.549  46.437115
1.548  46.359092
1.547  46.435101
1.546  46.484009
1.545  46.440082
1.544  46.421586
1.543  46.453433
1.542  46.396020
1.541  46.388359
1.540  46.410181
1.539  46.530673
1.538  46.526777
1.537  46.502312
1.536  46.486181
1.535  46.530792
1.534  46.507612
1.533  46.520807
1.532  46.577690
1.531  46.559761
1.530  46.545961
1.529  46.638249
1.528  46.636757
1.527  46.588861
1.526  46.526772
1.525  46.601140
1.524  46.594004
1.523  46.583232
1.522  46.577285
1.521  46.624686
1.520  46.699631
1.519  46.688759
1.518  46.632563
1.517  46.702888
1.516  46.696348
1.515  46.712195
1.514  46.772992
1.513  46.743077
1.512  46.666319
1.511  46.660952
1.510  46.709534
1.509  46.751743
1.508  46.774355
1.507  46.749314
1.506  46.701074
1.505  46.690158
1.504  46.752923
1.503  46.809063
1.502  46.791120
1.501  46.781953
1.500  46.785986
1.499  46.842795
1.498  46.809740
1.497  46.729317
1.496  46.798641
1.495  46.863564
1.494  46.875567
1.493  46.863898
1.492  46.838411
1.491  46.831602
1.490  46.862962
1.489  46.897612
1.488  46.906829
1.487  46.898780
1.486  46.933640
1.485  46.899885
1.484  46.913417
1.483  46.899187
1.482  46.851032
1.481  46.891526
1.480  46.911912
1.479  46.905560
1.478  46.940159
1.477  46.941313
1.476  47.009353
1.475  46.977437
1.474  46.972824
1.473  46.985964
1.472  46.985667
1.471  46.979281
1.470  46.955392
1.469  46.980367
1.468  47.024727
1.467  46.971618
1.466  47.022834
1.465  46.995643
1.464  46.974687
1.463  46.962022
1.462  46.969202
1.461  47.025511
1.460  47.075814
1.459  47.044546
1.458  47.071636
1.457  47.037954
1.456  47.078934
1.455  47.095809
1.454  47.099935
1.453  47.053261
1.452  47.079566
1.451  47.055501
1.450  47.026112
1.449  47.060873
1.448  47.170638
1.447  47.055269
1.446  47.035557
1.445  47.026894
1.444  47.102862
1.443  47.100915
1.442  47.081676
1.441  47.074018
1.440  47.147092
1.439  47.095482
1.438  47.143184
1.437  47.040949
1.436  47.075664
1.435  47.118583
1.434  47.122251
1.433  47.083697
1.432  47.114606
1.431  47.137973
1.430  47.170574
1.429  47.151782
1.428  47.142579
1.427  47.087303
1.426  47.129070
1.425  47.148940
1.424  47.229343
1.423  47.169296
1.422  47.183017
1.421  47.163274
1.420  47.194804
1.419  47.155994
1.418  47.195958
1.417  47.121496
1.416  47.144622
1.415  47.216226
1.414  47.268032
1.413  47.207652
1.412  47.218802
1.411  47.189771
1.410  47.227319
1.409  47.169141
1.408  47.308102
1.407  47.225245
1.406  47.224631
1.405  47.172652
1.404  47.227160
1.403  47.274611
1.402  47.221383
1.401  47.204604
1.400  47.324641
1.399  47.204717
1.398  47.318388
1.397  47.302561
1.396  47.405853
1.395  47.253947
1.394  47.309071
1.393  47.289421
1.392  47.324717
1.391  47.261148
1.390  47.431155
1.389  47.412521
1.388  47.349948
1.387  47.344420
1.386  47.400011
1.385  47.394798
1.384  47.428995
1.383  47.388990
1.382  47.286522
1.381  47.403898
1.380  47.364380
1.379  47.397661
1.378  47.425301
1.377  47.448851
1.376  47.364752
1.375  47.383452
1.374  47.445545
1.373  47.464958
1.372  47.466873
1.371  47.309353
1.370  47.386878
1.369  47.391797
1.368  47.423348
1.367  47.379385
1.366  47.483773
1.365  47.368853
1.364  47.464911
1.363  47.395650
1.362  47.377571
1.361  47.387936
1.360  47.302427
1.359  47.358388
1.358  47.406530
1.357  47.338434
1.356  47.559772
1.355  47.194589
1.354  47.392998
1.353  47.237218
1.352  47.338556
1.351  47.327965
1.350  47.385032
1.349  47.328000
1.348  47.317090
1.347  47.288176
1.346  47.362704
1.345  47.279642
1.344  47.360465
1.343  47.271925
1.342  47.398934
1.341  47.241777
1.340  47.346948
1.339  47.336187
1.338  47.384438
1.337  47.258333
1.336  47.300678
1.335  47.254074
1.334  47.249357
1.333  47.250240
1.332  47.276104
1.331  47.325490
1.330  47.312379
1.329  47.306832
1.328  47.276773
1.327  47.199627
1.326  47.306741
1.325  47.319332
1.324  47.340245
1.323  47.161091
1.322  47.219156
1.321  47.253967
1.320  47.277473
1.319  47.290194
1.318  47.271973
1.317  47.196047
1.316  47.296025
1.315  47.167087
1.314  47.282327
1.313  47.264345
1.312  47.296704
1.311  47.212245
1.310  47.205767
1.309  47.225059
1.308  47.241531
1.307  47.125153
1.306  47.241824
1.305  47.177714
1.304  47.206368
1.303  47.216324
1.302  47.135004
1.301  47.163550
1.300  47.247067
1.299  47.145205
1.298  47.174556
1.297  47.081903
1.296  47.232968
1.295  47.136052
1.294  47.183485
1.293  47.092931
1.292  47.104847
1.291  47.095073
1.290  47.153041
1.289  47.063941
1.288  47.102088
1.287  47.031365
1.286  46.984196
1.285  47.008667
1.284  47.099359
1.283  47.106568
1.282  47.106520
1.281  47.115751
1.280  47.077897
1.279  47.021353
1.278  47.037610
1.277  46.978835
1.276  47.045804
1.275  47.035960
1.274  47.025742
1.273  46.984199
1.272  47.051483
1.271  46.960289
1.270  47.030334
1.269  47.010363
1.268  46.994417
1.267  46.962854
1.266  46.998786
1.265  46.942720
1.264  46.939669
1.263  46.849150
1.262  46.889723
1.261  46.891394
1.260  46.878212
1.259  46.924638
1.258  46.952874
1.257  46.847957
1.256  46.883531
1.255  46.813987
1.254  46.854488
1.253  46.842041
1.252  46.783082
1.251  46.739129
1.250  46.805424
1.249  46.810900
1.248  46.816437
1.247  46.802477
1.246  46.802702
1.245  46.775493
1.244  46.826357
1.243  46.844398
1.242  46.775796
1.241  46.724377
1.240  46.753811
1.239  46.682577
1.238  46.660043
1.237  46.661502
1.236  46.627940
1.235  46.667506
1.234  46.684696
1.233  46.664325
1.232  46.660613
1.231  46.611658
1.230  46.566918
1.229  46.546311
1.228  46.615510
1.227  46.580150
1.226  46.515629
1.225  46.535882
1.224  46.574260
1.223  46.557703
1.222  46.513857
1.221  46.481068
1.220  46.502201
1.219  46.427017
1.218  46.392829
1.217  46.422507
1.216  46.404362
1.215  46.420157
1.214  46.399665
1.213  46.379598
1.212  46.429659
1.211  46.392607
1.210  46.295217
1.209  46.341926
1.208  46.364502
1.207  46.297733
1.206  46.242425
1.205  46.265216
1.204  46.254315
1.203  46.215590
1.202  46.213529
1.201  46.221741
1.200  46.171197
1.199  46.189568
1.198  46.143866
1.197  46.103791
1.196  46.155271
1.195  46.153181
1.194  46.084167
1.193  46.081407
1.192  46.047193
1.191  46.014060
1.190  45.979696
1.189  46.001892
1.188  45.978212
1.187  46.047660
1.186  45.983099
1.185  45.882878
1.184  45.944244
1.183  45.984176
1.182  45.904406
1.181  45.916847
1.180  45.884043
1.179  45.833985
1.178  45.841083
1.177  45.805742
1.176  45.764532
1.175  45.790075
1.174  45.726302
1.173  45.746845
1.172  45.701968
1.171  45.665154
1.170  45.671578
1.169  45.709639
1.168  45.590904
1.167  45.538580
1.166  45.522609
1.165  45.540504
1.164  45.505809
1.163  45.444189
1.162  45.447708
1.161  45.481984
1.160  45.442924
1.159  45.418656
1.158  45.395498
1.157  45.401782
1.156  45.302989
1.155  45.289898
1.154  45.238035
1.153  45.303613
1.152  45.239013
1.151  45.191567
1.150  45.200341
1.149  45.224701
1.148  45.119397
1.147  45.118182
1.146  45.005547
1.145  45.013236
1.144  44.934666
1.143  44.951604
1.142  44.938326
1.141  45.013658
1.140  44.915937
1.139  44.864562
1.138  44.866331
1.137  44.856348
1.136  44.844517
1.135  44.852573
1.134  44.744426
1.133  44.671622
1.132  44.674572
1.131  44.737296
1.130  44.566313
1.129  44.633255
1.128  44.532530
1.127  44.565813
1.126  44.501808
1.125  44.504009
1.124  44.408662
1.123  44.439380
1.122  44.315888
1.121  44.297735
1.120  44.230880
1.119  44.239366
1.118  44.167940
1.117  44.264913
1.116  44.200131
1.115  44.098272
1.114  44.042883
1.113  44.088501
1.112  43.971461
1.111  43.978242
1.110  43.855175
1.109  43.925316
1.108  43.895051
1.107  43.810500
1.106  43.745302
1.105  43.730566
1.104  43.684029
1.103  43.650848
1.102  43.563641
1.101  43.539150
1.100  43.519459
1.099  43.552495
1.098  43.379355
1.097  43.427994
1.096  43.286180
1.095  43.438113
1.094  43.217808
1.093  43.215770
1.092  43.205898
1.091  43.186772
1.090  43.035417
1.089  43.171925
1.088  42.901434
1.087  43.029256
1.086  42.892141
1.085  42.916355
1.084  42.865930
1.083  42.733412
1.082  42.758632
1.081  42.702479
1.080  42.484150
1.079  42.596150
1.078  42.540958
1.077  42.548453
1.076  42.379529
1.075  42.425624
1.074  42.210734
1.073  42.235580
1.072  42.183426
1.071  42.101790
1.070  41.972461
1.069  42.069152
1.068  41.932189
1.067  41.868690
1.066  41.861814
1.065  41.777881
1.064  41.727018
1.063  41.657864
1.062  41.584923
1.061  41.583470
1.060  41.482165
1.059  41.412846
1.058  41.300554
1.057  41.364352
1.056  41.168371
1.055  41.138406
1.054  41.025405
1.053  41.092581
1.052  40.846465
1.051  40.836108
1.050  40.733914
1.049  40.785047
1.048  40.635478
1.047  40.681820
1.046  40.524391
1.045  40.407326
1.044  40.400256
1.043  40.369102
1.042  40.138423
1.041  40.190218
1.040  39.968300
1.039  39.957179
1.038  39.916043
1.037  39.909684
1.036  39.741514
1.035  39.689026
1.034  39.550746
1.033  39.544881
1.032  39.412185
1.031  39.449247
1.030  39.173728
1.029  39.234878
1.028  39.111542
1.027  39.095422
1.026  38.888942
1.025  38.865512
1.024  38.714606
1.023  38.767189
1.022  38.545905
1.021  38.538206
1.020  38.436581
1.019  38.409162
1.018  38.232451
1.017  38.131832
1.016  38.177702
1.015  38.045442
1.014  37.906079
1.013  37.828432
1.012  37.669765
1.011  37.636119
1.010  37.552495
1.009  37.439548
1.008  37.347300
1.007  37.346452
1.006  37.223302
1.005  37.095045
1.004  36.915798
1.003  36.943103
1.002  36.831063
1.001  36.784477
1.000  36.591035
0.999  36.575723
0.998  36.458907
0.997  36.410835
0.996  36.288784
0.995  36.171824
0.994  36.143836
0.993  36.128961
0.992  35.950420
0.991  35.902130
0.990  35.754082
0.989  35.675457
0.988  35.537619
0.987  35.423202
0.986  35.427938
0.985  35.366083
0.984  35.235761
0.983  35.204447
0.982  35.093690
0.981  35.045466
0.980  34.920531
0.979  34.900293
0.978  34.780092
0.977  34.693877
0.976  34.632474
0.975  34.583659
0.974  34.439942
0.973  34.416757
0.972  34.277869
0.971  34.201134
0.970  34.112393
0.969  34.098495
0.968  33.992094
0.967  33.982494
0.966  33.924938
0.965  33.900451
0.964  33.792693
0.963  33.732323
0.962  33.675443
0.961  33.672952
0.960  33.539542
0.959  33.485456
0.958  33.429036
0.957  33.384743
0.956  33.330674
0.955  33.290310
0.954  33.194252
0.953  33.139385
0.952  33.172202
0.951  33.132632
0.950  33.023439
0.949  33.002455
0.948  32.935043
0.947  32.909631
0.946  32.822518
0.945  32.767831
0.944  32.807356
0.943  32.785452
0.942  32.689766
0.941  32.687407
0.940  32.658295
0.939  32.615211
0.938  32.588678
0.937  32.623524
0.936  32.569603
0.935  32.495679
0.934  32.484382
0.933  32.421589
0.932  32.410903
0.931  32.417950
0.930  32.333657
0.929  32.360191
0.928  32.369559
0.927  32.364697
0.926  32.388629
0.925  32.363552
0.924  32.349437
0.923  32.280993
0.922  32.350752
0.921  32.399720
0.920  32.330431
0.919  32.296897
0.918  32.295692
0.917  32.283066
0.916  32.318350
0.915  32.330551
0.914  32.360075
0.913  32.344160
0.912  32.329421
0.911  32.307991
0.910  32.306421
0.909  32.283515
0.908  32.342902
0.907  32.345906
0.906  32.369025
0.905  32.367863
0.904  32.365703
0.903  32.357274
0.902  32.372044
0.901  32.379220
0.900  32.470578
0.899  32.442822
0.898  32.453200
0.897  32.508221
0.896  32.515214
0.895  32.420218
0.894  32.537106
0.893  32.530264
0.892  32.529264
0.891  32.538559
0.890  32.610549
0.889  32.606677
0.888  32.579116
0.887  32.602756
0.886  32.667231
0.885  32.664602
0.884  32.739834
0.883  32.679222
0.882  32.787055
0.881  32.750985
0.880  32.850116
0.879  32.814309
0.878  32.842020
0.877  32.889523
0.876  32.931058
0.875  32.892230
0.874  32.930778
0.873  32.965064
0.872  33.061718
0.871  33.070892
0.870  33.098830
0.869  33.141349
0.868  33.198158
0.867  33.138445
0.866  33.220938
0.865  33.233145
0.864  33.324182
0.863  33.369928
0.862  33.385281
0.861  33.406925
0.860  33.299724
0.859  33.261033
0.858  33.348680
0.857  33.410948
0.856  33.450298
0.855  33.505436
0.854  33.532198
0.853  33.599278
0.852  33.665257
0.851  33.673197
0.850  33.759916
0.849  33.829734
0.848  33.882515
0.847  33.906108
0.846  33.951335
0.845  34.007530
0.844  34.053424
0.843  34.115451
0.842  34.168856
0.841  34.162616
0.840  34.236530
0.839  34.310940
0.838  34.328522
0.837  34.372559
0.836  34.460279
0.835  34.483572
0.834  34.541983
0.833  34.565867
0.832  34.620076
0.831  34.674303
0.830  34.719720
0.829  34.737344
0.828  34.796112
0.827  34.841373
0.826  34.870960
0.825  34.936560
0.824  34.967051
0.823  34.993066
0.822  35.046101
0.821  35.119378
0.820  35.117409
0.819  35.151774
0.818  35.214461
0.817  35.242737
0.816  35.253617
0.815  35.311797
0.814  35.362098
0.813  35.341791
0.812  35.392046
0.811  35.456611
0.810  35.479235
0.809  35.504886
0.808  35.539287
0.807  35.576016
0.806  35.610276
0.805  35.622405
0.804  35.645866
0.803  35.680715
0.802  35.710843
0.801  35.722390
0.800  35.761186
0.799  35.761511
0.798  35.789342
0.797  35.801624
0.796  35.811801
0.795  35.850236
0.794  35.860131
0.793  35.889631
0.792  35.868900
0.791  35.887672
0.790  35.912826
0.789  35.925349
0.788  35.967527
0.787  35.946606
0.786  35.964233
0.785  35.964802
0.784  35.999927
0.783  35.985248
0.782  35.971131
0.781  36.006310
0.780  36.009790
0.779  36.018838
0.778  36.029564
0.777  36.015854
0.776  35.997355
0.775  35.994365
0.774  35.978836
0.773  35.977980
0.772  35.980668
0.771  35.981234
0.770  36.000186
0.769  35.977524
0.768  35.972901
0.767  35.975681
0.766  35.974998
0.765  35.981238
0.764  35.951598
0.763  35.958870
0.762  35.960337
0.761  35.948302
0.760  35.936534
0.759  35.928481
0.758  35.910169
0.757  35.910910
0.756  35.911653
0.755  35.897638
0.754  35.878133
0.753  35.867483
0.752  35.848016
0.751  35.838905
0.750  35.844773
0.749  35.808559
0.748  35.794182
0.747  35.781769
0.746  35.772608
0.745  35.745676
0.744  35.727244
0.743  35.727839
0.742  35.697562
0.741  35.680827
0.740  35.666540
0.739  35.647223
0.738  35.609759
0.737  35.582609
0.736  35.583143
0.735  35.570587
0.734  35.556410
0.733  35.513897
0.732  35.490514
0.731  35.479609
0.730  35.454086
0.729  35.422112
0.728  35.401823
0.727  35.375686
0.726  35.348343
0.725  35.319937
0.724  35.311827
0.723  35.293491
0.722  35.267157
0.721  35.238080
0.720  35.203550
0.719  35.185004
0.718  35.151443
0.717  35.122130
0.716  35.090762
0.715  35.056475
0.714  35.036664
0.713  35.012316
0.712  34.980190
0.711  34.957572
0.710  34.918449
0.709  34.888516
0.708  34.852134
0.707  34.824834
0.706  34.797652
0.705  34.770613
0.704  34.730808
0.703  34.706360
0.702  34.689365
0.701  34.660831
0.700  34.626401
0.699  34.583177
0.698  34.553946
0.697  34.525294
0.696  34.494217
0.695  34.469845
0.694  34.433401
0.693  34.403632
0.692  34.372876
0.691  34.334421
0.690  34.304600
0.689  34.283070
0.688  34.243666
0.687  34.200993
0.686  34.172447
0.685  34.143585
0.684  34.114271
0.683  34.078244
0.682  34.049224
0.681  34.027745
0.680  33.987982
0.679  33.960311
0.678  33.921882
0.677  33.887018
0.676  33.859083
0.675  33.835076
0.674  33.805238
0.673  33.760190
0.672  33.725678
0.671  33.692929
0.670  33.657773
0.669  33.630116
0.668  33.593570
0.667  33.567291
0.666  33.533767
0.665  33.500529
0.664  33.470674
0.663  33.438794
0.662  33.399167
0.661  33.368682
0.660  33.340816
0.659  33.307453
0.658  33.278460
0.657  33.241594
0.656  33.206579
0.655  33.175157
0.654  33.138441
0.653  33.097228
0.652  33.072883
0.651  33.039687
0.650  32.996071
0.649  32.959264
0.648  32.930202
0.647  32.902651
0.646  32.873833
0.645  32.839811
0.644  32.815466
0.643  32.788163
0.642  32.756991
0.641  32.724336
0.640  32.689720
0.639  32.658808
0.638  32.623562
0.637  32.590993
0.636  32.554813
0.635  32.519170
0.634  32.482028
0.633  32.441441
0.632  32.402403
0.631  32.371459
0.630  32.338518
0.629  32.297630
0.628  32.261202
0.627  32.217528
0.626  32.177044
0.625  32.135539
0.624  32.090810
0.623  32.049004
0.622  32.009712
0.621  31.968789
0.620  31.924882
0.619  31.885954
0.618  31.839598
0.617  31.795249
0.616  31.750754
0.615  31.702082
0.614  31.651582
0.613  31.605766
0.612  31.551328
0.611  31.499859
0.610  31.457530
0.609  31.404692
0.608  31.348955
0.607  31.293472
0.606  31.240353
0.605  31.186911
0.604  31.133930
0.603  31.079224
0.602  31.020700
0.601  30.965544
0.600  30.904813
0.599  30.852594
0.598  30.796726
0.597  30.741387
0.596  30.682235
0.595  30.627686
0.594  30.560478
0.593  30.496752
0.592  30.432633
0.591  30.363051
0.590  30.300400
0.589  30.230889
0.588  30.164011
0.587  30.094186
0.586  30.017368
0.585  29.951724
0.584  29.883544
0.583  29.811068
0.582  29.736076
0.581  29.657531
0.580  29.584092
0.579  29.512333
0.578  29.438233
0.577  29.368244
0.576  29.292102
0.575  29.219402
0.574  29.142950
0.573  29.070387
0.572  29.002954
0.571  28.929463
0.570  28.861681
0.569  28.787534
0.568  28.714346
0.567  28.645825
0.566  28.565085
0.565  28.494027
0.564  28.426705
0.563  28.356754
0.562  28.287904
0.561  28.177068
0.560  28.090500
0.559  28.021855
0.558  27.951135
0.557  27.881670
0.556  27.810543
0.555  27.735521
0.554  27.666088
0.553  27.594247
0.552  27.523928
0.551  27.458976
0.550  27.391441
0.549  27.322952
0.548  27.256125
0.547  27.195735
0.546  27.137917
0.545  27.077853
0.544  27.024225
0.543  26.972682
0.542  26.913282
0.541  26.856760
0.540  26.797743
0.539  26.744942
0.538  26.693140
0.537  26.636253
0.536  26.587351
0.535  26.531258
0.534  26.472486
0.533  26.419507
0.532  26.366557
0.531  26.316238
0.530  26.263153
0.529  26.214398
0.528  26.158676
0.527  26.100642
0.526  26.045859
0.525  25.991522
0.524  25.941702
0.523  25.893027
0.522  25.830343
0.521  25.786582
0.520  25.733606
0.519  25.676626
0.518  25.626851
0.517  25.572932
0.516  25.514098
0.515  25.468021
0.514  25.406445
0.513  25.353217
0.512  25.295894
0.511  25.234556
0.510  25.179035
0.509  25.122707
0.508  25.063867
0.507  25.001775
0.506  24.938580
0.505  24.887054
0.504  24.844461
0.503  24.783138
0.502  24.730427
0.501  24.680572
0.500  24.628541
0.499  24.567515
0.498  24.514760
0.497  24.447677
0.496  24.390561
0.495  24.332534
0.494  24.268580
0.493  24.209098
0.492  24.158290
0.491  24.084173
0.490  24.020303
0.489  23.973420
0.488  23.906697
0.487  23.845925
0.486  23.790143
0.485  23.730735
0.484  23.675297
0.483  23.629133
0.482  23.583210
0.481  23.552542
0.480  23.531190
0.479  23.503752
0.478  23.492838
0.477  23.459666
0.476  23.430249
0.475  23.408978
0.474  23.368314
0.473  23.330148
0.472  23.290321
0.471  23.258574
0.470  23.226162
0.469  23.186507
0.468  23.151737
0.467  23.110633
0.466  23.078511
0.465  23.045483
0.464  23.008280
0.463  22.963884
0.462  22.925348
0.461  22.877809
0.460  22.834370
0.459  22.794876
0.458  22.749121
0.457  22.705753
0.456  22.658233
0.455  22.615474
0.454  22.577993
0.453  22.529158
0.452  22.495206
0.451  22.443249
0.450  22.399655
0.449  22.368117
0.448  22.325109
0.447  22.286961
0.446  22.246441
0.445  22.204135
0.444  22.166481
0.443  22.133478
0.442  22.100087
0.441  22.068822
0.440  22.046612
0.439  22.010969
0.438  21.978071
0.437  21.947379
0.436  21.912913
0.435  21.880080
0.434  21.844359
0.433  21.810773
0.432  21.771912
0.431  21.732023
0.430  21.684242
0.429  21.648785
0.428  21.611584
0.427  21.575756
0.426  21.536994
0.425  21.497441
0.424  21.444199
0.423  21.404359
0.422  21.363681
0.421  21.317586
0.420  21.265772
0.419  21.211192
0.418  21.168147
0.417  21.123701
0.416  21.069074
0.415  21.016859
0.414  20.964729
0.413  20.902279
0.412  20.847219
0.411  20.793305
0.410  20.739351
0.409  20.675833
0.408  20.618578
0.407  20.565404
0.406  20.505135
0.405  20.434832
0.404  20.369571
0.403  20.313173
0.402  20.257192
0.401  20.195044
0.400  20.132523
