Name: Aporhyolite (felsite)
Type: Rock
Class: Igneous
Subclass:  Felsic 
Particle Size: Solid surface
Sample No.: Ward05.txt
Owner: JPL
Wavelength range:  VNIR SWIR IR 
Origin: Ward's Collection of American Rocks.  Sample locality - Mattapan, Suffolk County, Massachusetts.
Collected by:  Ward's Natural Science
Description: A dense felsitic rock varying in color from salmon to red.
The original flow structure is often apparent.
Geologic age - Devonian or Carboniferous. Geologic name - Mattapan Felsite.



Measurement: Hemispherical reflectance
First Column: X
Second Column: Y
X Units: Wavelength (micrometers)
Y Units: Reflectance (percent)
First X Value: 2.500
Last X Value: 0.400
Number of X Values: 2101
Additional information: None

2.500  19.184832
2.499  18.680907
2.498  19.206044
2.497  18.906962
2.496  18.670724
2.495  18.834983
2.494  18.871528
2.493  18.856820
2.492  19.036424
2.491  18.649796
2.490  18.850571
2.489  18.757130
2.488  18.890076
2.487  18.694512
2.486  18.920067
2.485  18.651362
2.484  18.860906
2.483  18.710090
2.482  18.857451
2.481  18.666665
2.480  18.714940
2.479  18.667357
2.478  18.760301
2.477  18.592547
2.476  18.686154
2.475  18.566350
2.474  18.623857
2.473  18.545144
2.472  18.603711
2.471  18.467880
2.470  18.564853
2.469  18.400588
2.468  18.468643
2.467  18.354692
2.466  18.551549
2.465  18.327958
2.464  18.549098
2.463  18.201114
2.462  18.463266
2.461  18.253753
2.460  18.492859
2.459  18.267806
2.458  18.331218
2.457  18.208277
2.456  18.468788
2.455  18.190344
2.454  18.282766
2.453  18.171298
2.452  18.300538
2.451  18.123358
2.450  18.127901
2.449  18.183775
2.448  18.246113
2.447  18.215854
2.446  18.357343
2.445  18.098243
2.444  18.211269
2.443  18.177287
2.442  18.311071
2.441  18.208896
2.440  18.413725
2.439  18.440982
2.438  18.390163
2.437  18.357827
2.436  18.438124
2.435  18.364554
2.434  18.445944
2.433  18.414846
2.432  18.479801
2.431  18.463481
2.430  18.616369
2.429  18.512169
2.428  18.635293
2.427  18.529103
2.426  18.638606
2.425  18.591505
2.424  18.676965
2.423  18.596553
2.422  18.794723
2.421  18.663629
2.420  18.671527
2.419  18.752522
2.418  18.828892
2.417  18.790686
2.416  18.864294
2.415  18.851382
2.414  18.880281
2.413  18.841034
2.412  18.925527
2.411  18.834577
2.410  18.875394
2.409  18.895591
2.408  18.918595
2.407  18.860387
2.406  18.914609
2.405  18.902878
2.404  18.954593
2.403  18.945095
2.402  18.894422
2.401  18.859978
2.400  18.909098
2.399  18.907555
2.398  18.948171
2.397  18.883069
2.396  18.876617
2.395  18.794698
2.394  18.800474
2.393  18.783821
2.392  18.870618
2.391  18.796649
2.390  18.811945
2.389  18.715265
2.388  18.751997
2.387  18.696168
2.386  18.719650
2.385  18.776831
2.384  18.768007
2.383  18.668377
2.382  18.678995
2.381  18.652496
2.380  18.631116
2.379  18.590543
2.378  18.571561
2.377  18.577108
2.376  18.625093
2.375  18.600468
2.374  18.639267
2.373  18.599711
2.372  18.610386
2.371  18.555063
2.370  18.585061
2.369  18.621104
2.368  18.607206
2.367  18.598558
2.366  18.623881
2.365  18.587574
2.364  18.572942
2.363  18.581088
2.362  18.601633
2.361  18.623302
2.360  18.643684
2.359  18.631931
2.358  18.623785
2.357  18.607198
2.356  18.621117
2.355  18.686408
2.354  18.707113
2.353  18.689906
2.352  18.655308
2.351  18.671453
2.350  18.687837
2.349  18.740466
2.348  18.734921
2.347  18.734385
2.346  18.821334
2.345  18.890895
2.344  18.844840
2.343  18.865234
2.342  18.899738
2.341  18.986539
2.340  19.025291
2.339  19.099616
2.338  19.132022
2.337  19.240252
2.336  19.296802
2.335  19.353144
2.334  19.388842
2.333  19.478470
2.332  19.535299
2.331  19.610267
2.330  19.675698
2.329  19.702246
2.328  19.725606
2.327  19.841046
2.326  19.864052
2.325  19.973194
2.324  20.007054
2.323  20.092581
2.322  20.111702
2.321  20.197265
2.320  20.262335
2.319  20.361881
2.318  20.373328
2.317  20.447376
2.316  20.517815
2.315  20.584902
2.314  20.636006
2.313  20.677801
2.312  20.673257
2.311  20.727686
2.310  20.759852
2.309  20.833649
2.308  20.845217
2.307  20.914675
2.306  20.858468
2.305  20.958329
2.304  21.006090
2.303  20.991204
2.302  20.980930
2.301  21.057357
2.300  21.049024
2.299  21.082330
2.298  21.064914
2.297  21.113515
2.296  21.076652
2.295  21.110925
2.294  21.068153
2.293  21.185892
2.292  21.178829
2.291  21.139983
2.290  21.095083
2.289  21.174170
2.288  21.112975
2.287  21.126416
2.286  21.102044
2.285  21.144765
2.284  21.053712
2.283  21.080146
2.282  21.131414
2.281  21.168648
2.280  21.111650
2.279  21.129472
2.278  21.049705
2.277  21.092027
2.276  21.044511
2.275  21.038100
2.274  21.053312
2.273  21.147515
2.272  21.056696
2.271  21.050866
2.270  20.931893
2.269  20.979178
2.268  20.902547
2.267  20.942620
2.266  20.804365
2.265  20.783456
2.264  20.686570
2.263  20.672905
2.262  20.562501
2.261  20.557338
2.260  20.385596
2.259  20.457906
2.258  20.232457
2.257  20.140769
2.256  20.049070
2.255  20.033016
2.254  19.879894
2.253  19.895209
2.252  19.787751
2.251  19.686277
2.250  19.576905
2.249  19.604900
2.248  19.494353
2.247  19.469507
2.246  19.389444
2.245  19.480602
2.244  19.321702
2.243  19.399042
2.242  19.185877
2.241  19.273008
2.240  19.212633
2.239  19.225654
2.238  19.221361
2.237  19.253650
2.236  19.138947
2.235  19.249521
2.234  19.165631
2.233  19.205443
2.232  19.143058
2.231  19.155686
2.230  19.044120
2.229  19.098187
2.228  18.912481
2.227  19.017059
2.226  18.876714
2.225  18.832607
2.224  18.738159
2.223  18.775949
2.222  18.625588
2.221  18.591106
2.220  18.552352
2.219  18.552306
2.218  18.425615
2.217  18.418190
2.216  18.351589
2.215  18.492268
2.214  18.362913
2.213  18.451835
2.212  18.494628
2.211  18.415908
2.210  18.605712
2.209  18.588506
2.208  18.595301
2.207  18.834935
2.206  18.852331
2.205  18.992652
2.204  18.988227
2.203  19.260206
2.202  19.266712
2.201  19.457902
2.200  19.526225
2.199  19.766926
2.198  19.844179
2.197  19.955859
2.196  20.030451
2.195  20.183962
2.194  20.356885
2.193  20.433678
2.192  20.573812
2.191  20.705075
2.190  20.760045
2.189  20.922497
2.188  20.917312
2.187  21.119249
2.186  21.143105
2.185  21.277243
2.184  21.311651
2.183  21.388459
2.182  21.462987
2.181  21.554186
2.180  21.498723
2.179  21.704637
2.178  21.674147
2.177  21.697675
2.176  21.674544
2.175  21.747504
2.174  21.723184
2.173  21.869689
2.172  21.815164
2.171  21.935895
2.170  21.891470
2.169  21.989527
2.168  21.895480
2.167  21.993198
2.166  21.998414
2.165  22.100681
2.164  21.948318
2.163  22.109564
2.162  22.033275
2.161  22.126767
2.160  22.098836
2.159  22.136475
2.158  22.065720
2.157  22.164393
2.156  22.141878
2.155  22.144695
2.154  22.174404
2.153  22.200144
2.152  22.148245
2.151  22.269972
2.150  22.164685
2.149  22.229820
2.148  22.164817
2.147  22.259047
2.146  22.196994
2.145  22.246384
2.144  22.152475
2.143  22.240378
2.142  22.188969
2.141  22.271102
2.140  22.188481
2.139  22.277233
2.138  22.183783
2.137  22.244567
2.136  22.174036
2.135  22.274856
2.134  22.183278
2.133  22.189041
2.132  22.146967
2.131  22.159741
2.130  22.147858
2.129  22.182725
2.128  22.153148
2.127  22.239144
2.126  22.137608
2.125  22.130023
2.124  22.112587
2.123  22.106918
2.122  22.100706
2.121  22.174217
2.120  22.106346
2.119  22.107604
2.118  22.067342
2.117  22.114779
2.116  22.095565
2.115  22.066752
2.114  22.063601
2.113  22.109378
2.112  22.047867
2.111  22.062077
2.110  22.061474
2.109  22.066527
2.108  22.022305
2.107  22.100591
2.106  22.056817
2.105  22.082468
2.104  22.077822
2.103  22.103660
2.102  22.041788
2.101  22.063424
2.100  22.064961
2.099  22.071856
2.098  22.040075
2.097  22.034176
2.096  22.061689
2.095  22.132024
2.094  22.088263
2.093  22.103056
2.092  22.136525
2.091  22.148928
2.090  22.110100
2.089  22.116345
2.088  22.135781
2.087  22.134675
2.086  22.159886
2.085  22.224048
2.084  22.222321
2.083  22.178675
2.082  22.181074
2.081  22.199508
2.080  22.178413
2.079  22.235077
2.078  22.264017
2.077  22.231201
2.076  22.265699
2.075  22.233735
2.074  22.229668
2.073  22.240421
2.072  22.208461
2.071  22.199961
2.070  22.236556
2.069  22.256422
2.068  22.220618
2.067  22.229718
2.066  22.245650
2.065  22.263477
2.064  22.257251
2.063  22.271273
2.062  22.295785
2.061  22.259853
2.060  22.234009
2.059  22.227997
2.058  22.334534
2.057  22.316002
2.056  22.269964
2.055  22.289306
2.054  22.307518
2.053  22.298333
2.052  22.313269
2.051  22.277819
2.050  22.292782
2.049  22.295444
2.048  22.290456
2.047  22.303973
2.046  22.325930
2.045  22.277696
2.044  22.326635
2.043  22.303493
2.042  22.370111
2.041  22.361245
2.040  22.335029
2.039  22.295936
2.038  22.281532
2.037  22.279490
2.036  22.326591
2.035  22.315063
2.034  22.333460
2.033  22.266925
2.032  22.325414
2.031  22.282548
2.030  22.297961
2.029  22.257592
2.028  22.293584
2.027  22.296805
2.026  22.340739
2.025  22.248738
2.024  22.251839
2.023  22.232784
2.022  22.295607
2.021  22.248606
2.020  22.222186
2.019  22.198079
2.018  22.286074
2.017  22.257496
2.016  22.319722
2.015  22.270523
2.014  22.282592
2.013  22.239638
2.012  22.271273
2.011  22.171123
2.010  22.205358
2.009  22.180236
2.008  22.288228
2.007  22.226464
2.006  22.231626
2.005  22.209586
2.004  22.313732
2.003  22.282150
2.002  22.277667
2.001  22.158845
2.000  22.247695
1.999  22.132930
1.998  22.176909
1.997  22.192632
1.996  22.181404
1.995  22.165430
1.994  22.221838
1.993  22.133172
1.992  22.169191
1.991  22.138436
1.990  22.148934
1.989  22.015478
1.988  22.070030
1.987  22.028553
1.986  22.084249
1.985  22.120440
1.984  22.108599
1.983  21.978477
1.982  22.072892
1.981  22.033439
1.980  22.060589
1.979  21.974004
1.978  22.061340
1.977  21.948736
1.976  21.960149
1.975  21.999136
1.974  22.011477
1.973  21.952649
1.972  21.987930
1.971  21.938755
1.970  21.989635
1.969  21.863325
1.968  22.030364
1.967  21.911943
1.966  21.914395
1.965  21.849734
1.964  21.944551
1.963  21.884568
1.962  22.016320
1.961  21.819055
1.960  21.907944
1.959  21.804028
1.958  21.947755
1.957  21.795884
1.956  21.896797
1.955  21.823611
1.954  21.840097
1.953  21.816610
1.952  21.912476
1.951  21.749037
1.950  21.822466
1.949  21.738627
1.948  21.841280
1.947  21.796914
1.946  21.876815
1.945  21.638896
1.944  21.848626
1.943  21.737377
1.942  21.784797
1.941  21.752708
1.940  21.786092
1.939  21.688980
1.938  21.823776
1.937  21.641677
1.936  21.847354
1.935  21.617052
1.934  21.733202
1.933  21.652331
1.932  21.778788
1.931  21.640885
1.930  21.674711
1.929  21.637671
1.928  21.673192
1.927  21.686082
1.926  21.571343
1.925  21.625243
1.924  21.661705
1.923  21.543114
1.922  21.676816
1.921  21.550837
1.920  21.671876
1.919  21.648984
1.918  21.639777
1.917  21.651278
1.916  21.582280
1.915  21.656743
1.914  21.680947
1.913  21.550913
1.912  21.584124
1.911  21.500057
1.910  21.610252
1.909  21.691776
1.908  21.638113
1.907  21.534234
1.906  21.772381
1.905  21.653561
1.904  21.731871
1.903  21.701255
1.902  21.804604
1.901  21.703581
1.900  21.796370
1.899  21.683757
1.898  21.920125
1.897  21.845782
1.896  21.961357
1.895  21.890437
1.894  22.023183
1.893  21.962381
1.892  22.089359
1.891  22.018146
1.890  22.080646
1.889  21.989609
1.888  22.148537
1.887  22.015162
1.886  22.163581
1.885  22.014861
1.884  22.136571
1.883  22.111742
1.882  22.196302
1.881  22.139343
1.880  22.177186
1.879  22.143471
1.878  22.242308
1.877  22.120861
1.876  22.148799
1.875  22.089110
1.874  22.107330
1.873  22.008166
1.872  22.114918
1.871  22.042126
1.870  22.130281
1.869  22.063867
1.868  22.120947
1.867  22.129002
1.866  22.188414
1.865  22.201462
1.864  22.216223
1.863  22.182561
1.862  22.222373
1.861  22.217807
1.860  22.283111
1.859  22.117193
1.858  22.239167
1.857  22.158265
1.856  22.169593
1.855  22.157146
1.854  22.219655
1.853  22.195896
1.852  22.258021
1.851  22.234833
1.850  22.229495
1.849  22.204800
1.848  22.226839
1.847  22.174201
1.846  22.213444
1.845  22.141370
1.844  22.236555
1.843  22.239063
1.842  22.299126
1.841  22.251935
1.840  22.272803
1.839  22.207586
1.838  22.252689
1.837  22.213525
1.836  22.168138
1.835  22.173821
1.834  22.205397
1.833  22.221816
1.832  22.285006
1.831  22.224755
1.830  22.274665
1.829  22.284755
1.828  22.278376
1.827  22.262552
1.826  22.280439
1.825  22.287115
1.824  22.286711
1.823  22.221517
1.822  22.279541
1.821  22.219118
1.820  22.243830
1.819  22.230038
1.818  22.300240
1.817  22.235207
1.816  22.274671
1.815  22.273343
1.814  22.322355
1.813  22.304043
1.812  22.330932
1.811  22.286347
1.810  22.269864
1.809  22.306386
1.808  22.318906
1.807  22.289542
1.806  22.298158
1.805  22.285706
1.804  22.312400
1.803  22.343744
1.802  22.341629
1.801  22.313451
1.800  22.314095
1.799  22.281175
1.798  22.299118
1.797  22.295920
1.796  22.324757
1.795  22.342021
1.794  22.348897
1.793  22.333201
1.792  22.286088
1.791  22.265415
1.790  22.261403
1.789  22.288853
1.788  22.295989
1.787  22.240110
1.786  22.272395
1.785  22.277708
1.784  22.276380
1.783  22.228034
1.782  22.239516
1.781  22.307554
1.780  22.244780
1.779  22.249678
1.778  22.254322
1.777  22.234640
1.776  22.247691
1.775  22.230670
1.774  22.174749
1.773  22.213681
1.772  22.238021
1.771  22.203124
1.770  22.200979
1.769  22.237886
1.768  22.268275
1.767  22.272254
1.766  22.233621
1.765  22.268749
1.764  22.236198
1.763  22.219538
1.762  22.195077
1.761  22.258718
1.760  22.235340
1.759  22.262389
1.758  22.189141
1.757  22.177739
1.756  22.196126
1.755  22.231714
1.754  22.204491
1.753  22.233711
1.752  22.252771
1.751  22.229686
1.750  22.251768
1.749  22.308062
1.748  22.245344
1.747  22.255990
1.746  22.257157
1.745  22.244404
1.744  22.194630
1.743  22.219531
1.742  22.211076
1.741  22.263541
1.740  22.234107
1.739  22.280986
1.738  22.230794
1.737  22.289862
1.736  22.296579
1.735  22.299836
1.734  22.185179
1.733  22.198353
1.732  22.201317
1.731  22.248565
1.730  22.265247
1.729  22.261529
1.728  22.270079
1.727  22.307816
1.726  22.278242
1.725  22.256548
1.724  22.203804
1.723  22.222042
1.722  22.192351
1.721  22.310539
1.720  22.217199
1.719  22.285231
1.718  22.218623
1.717  22.304381
1.716  22.251680
1.715  22.319491
1.714  22.216186
1.713  22.277454
1.712  22.274980
1.711  22.337169
1.710  22.226625
1.709  22.294898
1.708  22.218596
1.707  22.279635
1.706  22.237963
1.705  22.300000
1.704  22.259492
1.703  22.285243
1.702  22.270059
1.701  22.264693
1.700  22.189976
1.699  22.236576
1.698  22.271840
1.697  22.323193
1.696  22.207201
1.695  22.318898
1.694  22.246912
1.693  22.302807
1.692  22.252858
1.691  22.301010
1.690  22.250195
1.689  22.304082
1.688  22.193758
1.687  22.349178
1.686  22.312873
1.685  22.356152
1.684  22.215568
1.683  22.326400
1.682  22.232613
1.681  22.277892
1.680  22.216680
1.679  22.392172
1.678  22.255544
1.677  22.324319
1.676  22.253771
1.675  22.356906
1.674  22.295133
1.673  22.336943
1.672  22.304982
1.671  22.374972
1.670  22.282043
1.669  22.396946
1.668  22.255786
1.667  22.446318
1.666  22.342128
1.665  22.382466
1.664  22.238197
1.663  22.386904
1.662  22.344028
1.661  22.418152
1.660  22.320518
1.659  22.342605
1.658  22.358620
1.657  22.486707
1.656  22.302542
1.655  22.417542
1.654  22.344602
1.653  22.441845
1.652  22.294436
1.651  22.448127
1.650  22.355496
1.649  22.357966
1.648  22.307926
1.647  22.457256
1.646  22.380345
1.645  22.455595
1.644  22.298310
1.643  22.444769
1.642  22.461684
1.641  22.315811
1.640  22.362120
1.639  22.423656
1.638  22.301911
1.637  22.504750
1.636  22.349555
1.635  22.436464
1.634  22.435529
1.633  22.480419
1.632  22.444451
1.631  22.503007
1.630  22.402080
1.629  22.446593
1.628  22.381157
1.627  22.377292
1.626  22.460519
1.625  22.472858
1.624  22.497238
1.623  22.507719
1.622  22.377344
1.621  22.487912
1.620  22.379879
1.619  22.463598
1.618  22.486978
1.617  22.482405
1.616  22.364490
1.615  22.558986
1.614  22.462420
1.613  22.490344
1.612  22.434418
1.611  22.507669
1.610  22.388324
1.609  22.467960
1.608  22.453706
1.607  22.510079
1.606  22.465116
1.605  22.525068
1.604  22.424907
1.603  22.545542
1.602  22.451116
1.601  22.512589
1.600  22.411056
1.599  22.493492
1.598  22.426964
1.597  22.530478
1.596  22.456144
1.595  22.502429
1.594  22.468141
1.593  22.523520
1.592  22.478315
1.591  22.571212
1.590  22.510664
1.589  22.584624
1.588  22.479869
1.587  22.565022
1.586  22.476392
1.585  22.571732
1.584  22.507165
1.583  22.627465
1.582  22.496428
1.581  22.548719
1.580  22.505915
1.579  22.598581
1.578  22.508769
1.577  22.603121
1.576  22.548286
1.575  22.602569
1.574  22.515715
1.573  22.593629
1.572  22.568374
1.571  22.606087
1.570  22.560651
1.569  22.689565
1.568  22.588064
1.567  22.633783
1.566  22.485025
1.565  22.663127
1.564  22.551938
1.563  22.650450
1.562  22.538829
1.561  22.634246
1.560  22.563687
1.559  22.655663
1.558  22.612079
1.557  22.613251
1.556  22.542523
1.555  22.651665
1.554  22.591338
1.553  22.626217
1.552  22.609349
1.551  22.643868
1.550  22.673471
1.549  22.666123
1.548  22.615913
1.547  22.665208
1.546  22.674518
1.545  22.716795
1.544  22.634819
1.543  22.676664
1.542  22.680670
1.541  22.703708
1.540  22.651614
1.539  22.700899
1.538  22.695653
1.537  22.685523
1.536  22.670514
1.535  22.726264
1.534  22.668683
1.533  22.687517
1.532  22.724009
1.531  22.799675
1.530  22.727032
1.529  22.737209
1.528  22.692888
1.527  22.711266
1.526  22.646737
1.525  22.757531
1.524  22.787344
1.523  22.765163
1.522  22.733775
1.521  22.717685
1.520  22.767636
1.519  22.788608
1.518  22.709511
1.517  22.743921
1.516  22.772023
1.515  22.788135
1.514  22.761000
1.513  22.751206
1.512  22.763004
1.511  22.771356
1.510  22.781327
1.509  22.793650
1.508  22.785459
1.507  22.773686
1.506  22.766314
1.505  22.796815
1.504  22.831074
1.503  22.818628
1.502  22.812404
1.501  22.824605
1.500  22.794102
1.499  22.796357
1.498  22.799315
1.497  22.794648
1.496  22.815466
1.495  22.862532
1.494  22.919560
1.493  22.885090
1.492  22.873268
1.491  22.862509
1.490  22.926951
1.489  22.947902
1.488  22.924161
1.487  22.875849
1.486  22.865315
1.485  22.867353
1.484  22.918813
1.483  22.937102
1.482  22.963684
1.481  22.922112
1.480  22.917797
1.479  22.943613
1.478  22.928599
1.477  22.884443
1.476  22.958790
1.475  22.957746
1.474  22.962658
1.473  22.934702
1.472  22.987202
1.471  22.965561
1.470  22.986641
1.469  22.937655
1.468  23.010686
1.467  22.946335
1.466  23.003663
1.465  23.010782
1.464  22.986857
1.463  22.970229
1.462  23.009954
1.461  23.000859
1.460  23.004099
1.459  23.017844
1.458  23.061503
1.457  23.055887
1.456  23.003829
1.455  22.989137
1.454  23.011187
1.453  23.043585
1.452  23.048786
1.451  22.982012
1.450  23.072052
1.449  23.033455
1.448  23.087358
1.447  23.046333
1.446  23.067130
1.445  22.990774
1.444  22.952349
1.443  22.930618
1.442  22.935894
1.441  22.938741
1.440  22.902776
1.439  22.876536
1.438  22.805690
1.437  22.744828
1.436  22.687138
1.435  22.554867
1.434  22.561392
1.433  22.471127
1.432  22.528333
1.431  22.350573
1.430  22.327363
1.429  22.200244
1.428  22.137425
1.427  22.077365
1.426  22.052330
1.425  21.919817
1.424  21.873890
1.423  21.730227
1.422  21.772493
1.421  21.701596
1.420  21.645552
1.419  21.471992
1.418  21.548330
1.417  21.486952
1.416  21.590337
1.415  21.547809
1.414  21.562497
1.413  21.493081
1.412  21.676991
1.411  21.668726
1.410  21.901526
1.409  21.919093
1.408  22.057213
1.407  21.982516
1.406  22.258629
1.405  22.230130
1.404  22.414189
1.403  22.490277
1.402  22.711984
1.401  22.606557
1.400  22.769187
1.399  22.850991
1.398  23.065172
1.397  23.080022
1.396  23.245577
1.395  23.135082
1.394  23.333793
1.393  23.296103
1.392  23.454073
1.391  23.484231
1.390  23.541432
1.389  23.459117
1.388  23.570443
1.387  23.536191
1.386  23.594367
1.385  23.527164
1.384  23.575044
1.383  23.555828
1.382  23.588711
1.381  23.553676
1.380  23.752478
1.379  23.616434
1.378  23.749901
1.377  23.674219
1.376  23.806303
1.375  23.659857
1.374  23.844801
1.373  23.684697
1.372  23.782104
1.371  23.713877
1.370  23.777905
1.369  23.743548
1.368  23.832527
1.367  23.749291
1.366  23.891147
1.365  23.816129
1.364  23.870219
1.363  23.816975
1.362  23.810812
1.361  23.848803
1.360  24.013630
1.359  23.950050
1.358  24.019560
1.357  23.891993
1.356  24.117364
1.355  23.731338
1.354  23.930137
1.353  23.989960
1.352  24.095030
1.351  24.012336
1.350  24.062857
1.349  23.991635
1.348  24.099607
1.347  23.958808
1.346  24.062361
1.345  24.059431
1.344  24.132261
1.343  24.091498
1.342  24.151417
1.341  24.163137
1.340  24.195122
1.339  24.108990
1.338  24.190274
1.337  24.165645
1.336  24.210855
1.335  24.131171
1.334  24.215562
1.333  24.123587
1.332  24.250676
1.331  24.190075
1.330  24.234537
1.329  24.157564
1.328  24.321802
1.327  24.252988
1.326  24.317516
1.325  24.179574
1.324  24.249953
1.323  24.252978
1.322  24.472578
1.321  24.314000
1.320  24.365950
1.319  24.278587
1.318  24.362874
1.317  24.358045
1.316  24.433416
1.315  24.380523
1.314  24.476068
1.313  24.393007
1.312  24.460386
1.311  24.394870
1.310  24.463400
1.309  24.458865
1.308  24.547572
1.307  24.463429
1.306  24.502719
1.305  24.464397
1.304  24.645544
1.303  24.567482
1.302  24.601444
1.301  24.554871
1.300  24.588822
1.299  24.589934
1.298  24.663940
1.297  24.570347
1.296  24.630213
1.295  24.555722
1.294  24.653848
1.293  24.654262
1.292  24.722492
1.291  24.696484
1.290  24.769983
1.289  24.722745
1.288  24.800985
1.287  24.820966
1.286  24.834758
1.285  24.798299
1.284  24.882084
1.283  24.847648
1.282  24.888641
1.281  24.850967
1.280  24.900765
1.279  24.879353
1.278  24.942126
1.277  24.912301
1.276  24.932803
1.275  24.929598
1.274  24.959756
1.273  24.958720
1.272  24.978042
1.271  24.974732
1.270  25.113318
1.269  24.957136
1.268  25.031042
1.267  25.053397
1.266  25.068949
1.265  25.076937
1.264  25.131782
1.263  25.114522
1.262  25.197098
1.261  25.169237
1.260  25.164010
1.259  25.141337
1.258  25.155022
1.257  25.146500
1.256  25.217186
1.255  25.161472
1.254  25.251268
1.253  25.247704
1.252  25.274626
1.251  25.255714
1.250  25.288913
1.249  25.286983
1.248  25.305900
1.247  25.345495
1.246  25.362148
1.245  25.350700
1.244  25.379580
1.243  25.409666
1.242  25.457262
1.241  25.446922
1.240  25.453832
1.239  25.484002
1.238  25.501329
1.237  25.517765
1.236  25.558952
1.235  25.540876
1.234  25.596547
1.233  25.573360
1.232  25.572889
1.231  25.546238
1.230  25.552546
1.229  25.588593
1.228  25.641910
1.227  25.663610
1.226  25.672351
1.225  25.663217
1.224  25.698203
1.223  25.665266
1.222  25.691824
1.221  25.718879
1.220  25.736745
1.219  25.735961
1.218  25.766064
1.217  25.783908
1.216  25.760853
1.215  25.803268
1.214  25.850783
1.213  25.855892
1.212  25.873722
1.211  25.897097
1.210  25.905984
1.209  25.894826
1.208  25.877571
1.207  25.911114
1.206  25.909026
1.205  25.964817
1.204  25.989448
1.203  26.007823
1.202  26.016622
1.201  26.036866
1.200  26.043809
1.199  26.089122
1.198  26.105830
1.197  26.140876
1.196  26.137750
1.195  26.174367
1.194  26.117217
1.193  26.123598
1.192  26.148974
1.191  26.155774
1.190  26.169336
1.189  26.212702
1.188  26.131306
1.187  26.302182
1.186  26.325489
1.185  26.282531
1.184  26.248336
1.183  26.334373
1.182  26.338493
1.181  26.358464
1.180  26.364506
1.179  26.345780
1.178  26.392792
1.177  26.404260
1.176  26.400724
1.175  26.480513
1.174  26.455185
1.173  26.495317
1.172  26.475803
1.171  26.568276
1.170  26.532227
1.169  26.507652
1.168  26.506655
1.167  26.551494
1.166  26.543676
1.165  26.647946
1.164  26.615789
1.163  26.634035
1.162  26.619385
1.161  26.674696
1.160  26.664518
1.159  26.710636
1.158  26.629023
1.157  26.677024
1.156  26.646830
1.155  26.780381
1.154  26.695236
1.153  26.775145
1.152  26.758345
1.151  26.864617
1.150  26.807923
1.149  26.861568
1.148  26.838397
1.147  26.843989
1.146  26.846360
1.145  26.982539
1.144  26.847008
1.143  26.849936
1.142  26.875011
1.141  26.976868
1.140  26.947950
1.139  26.963576
1.138  26.981447
1.137  27.008782
1.136  26.946517
1.135  27.048626
1.134  26.946019
1.133  26.975015
1.132  27.042382
1.131  27.098183
1.130  27.060564
1.129  27.178984
1.128  27.071437
1.127  27.178758
1.126  27.068690
1.125  27.118369
1.124  27.092333
1.123  27.237760
1.122  27.127102
1.121  27.198735
1.120  27.115710
1.119  27.206725
1.118  27.153173
1.117  27.236149
1.116  27.190043
1.115  27.325440
1.114  27.221113
1.113  27.311239
1.112  27.245377
1.111  27.324169
1.110  27.250279
1.109  27.390843
1.108  27.259553
1.107  27.310732
1.106  27.295092
1.105  27.379881
1.104  27.272280
1.103  27.444634
1.102  27.394854
1.101  27.523924
1.100  27.357273
1.099  27.471787
1.098  27.388454
1.097  27.498934
1.096  27.427034
1.095  27.486033
1.094  27.480142
1.093  27.516533
1.092  27.448621
1.091  27.545466
1.090  27.511430
1.089  27.623980
1.088  27.464819
1.087  27.648253
1.086  27.540563
1.085  27.654393
1.084  27.608650
1.083  27.560535
1.082  27.515591
1.081  27.645077
1.080  27.529099
1.079  27.601904
1.078  27.549345
1.077  27.657627
1.076  27.586947
1.075  27.638193
1.074  27.493095
1.073  27.733764
1.072  27.600693
1.071  27.737376
1.070  27.617823
1.069  27.711444
1.068  27.625965
1.067  27.699659
1.066  27.669847
1.065  27.700079
1.064  27.591886
1.063  27.706700
1.062  27.662124
1.061  27.764534
1.060  27.708194
1.059  27.705615
1.058  27.680915
1.057  27.772078
1.056  27.733876
1.055  27.796531
1.054  27.719326
1.053  27.756063
1.052  27.654076
1.051  27.728643
1.050  27.603672
1.049  27.714359
1.048  27.753003
1.047  27.839412
1.046  27.627837
1.045  27.768048
1.044  27.637609
1.043  27.781375
1.042  27.670844
1.041  27.766667
1.040  27.724308
1.039  27.699313
1.038  27.711771
1.037  27.683725
1.036  27.683284
1.035  27.752737
1.034  27.665103
1.033  27.745451
1.032  27.598328
1.031  27.709552
1.030  27.615572
1.029  27.691390
1.028  27.556563
1.027  27.664381
1.026  27.562853
1.025  27.564925
1.024  27.525305
1.023  27.614847
1.022  27.511404
1.021  27.526439
1.020  27.522117
1.019  27.470288
1.018  27.456690
1.017  27.554023
1.016  27.494068
1.015  27.444206
1.014  27.378805
1.013  27.463916
1.012  27.326638
1.011  27.418316
1.010  27.343732
1.009  27.352098
1.008  27.284864
1.007  27.279311
1.006  27.208364
1.005  27.262995
1.004  27.164286
1.003  27.194459
1.002  27.066958
1.001  27.104948
1.000  27.040974
0.999  27.085877
0.998  27.042845
0.997  26.990645
0.996  26.853205
0.995  26.939751
0.994  26.850317
0.993  26.875598
0.992  26.795035
0.991  26.774319
0.990  26.686640
0.989  26.731496
0.988  26.591969
0.987  26.521888
0.986  26.458594
0.985  26.524180
0.984  26.373844
0.983  26.331166
0.982  26.284388
0.981  26.282931
0.980  26.229307
0.979  26.211133
0.978  26.116357
0.977  26.101894
0.976  25.976784
0.975  25.940729
0.974  25.894119
0.973  25.900495
0.972  25.743620
0.971  25.734534
0.970  25.643906
0.969  25.629974
0.968  25.604474
0.967  25.495461
0.966  25.382746
0.965  25.409285
0.964  25.344223
0.963  25.325197
0.962  25.200345
0.961  25.145307
0.960  25.112611
0.959  25.095536
0.958  24.989860
0.957  24.969961
0.956  24.937834
0.955  24.941448
0.954  24.929205
0.953  24.825431
0.952  24.691035
0.951  24.673045
0.950  24.573867
0.949  24.529582
0.948  24.497922
0.947  24.454648
0.946  24.392608
0.945  24.340394
0.944  24.288203
0.943  24.269562
0.942  24.230867
0.941  24.139236
0.940  24.005876
0.939  23.977786
0.938  23.952441
0.937  23.880001
0.936  23.835913
0.935  23.797706
0.934  23.697750
0.933  23.670904
0.932  23.641942
0.931  23.580443
0.930  23.540986
0.929  23.468386
0.928  23.370844
0.927  23.364699
0.926  23.376296
0.925  23.244997
0.924  23.152796
0.923  23.180661
0.922  23.137666
0.921  23.052140
0.920  22.993004
0.919  22.970719
0.918  22.984286
0.917  22.903076
0.916  22.904084
0.915  22.831651
0.914  22.757527
0.913  22.750024
0.912  22.712506
0.911  22.602994
0.910  22.609015
0.909  22.569999
0.908  22.537444
0.907  22.486291
0.906  22.482304
0.905  22.414086
0.904  22.373783
0.903  22.346017
0.902  22.351992
0.901  22.322191
0.900  22.252018
0.899  22.162526
0.898  22.180390
0.897  22.135258
0.896  22.115368
0.895  22.077214
0.894  22.107512
0.893  22.025701
0.892  22.056103
0.891  21.989970
0.890  21.969908
0.889  21.929735
0.888  21.928070
0.887  21.885252
0.886  21.864164
0.885  21.844193
0.884  21.898503
0.883  21.805607
0.882  21.813710
0.881  21.775044
0.880  21.728112
0.879  21.689602
0.878  21.725655
0.877  21.648514
0.876  21.662994
0.875  21.612715
0.874  21.644745
0.873  21.572320
0.872  21.662775
0.871  21.620780
0.870  21.624048
0.869  21.572145
0.868  21.602028
0.867  21.531800
0.866  21.607529
0.865  21.560691
0.864  21.591492
0.863  21.513704
0.862  21.573607
0.861  21.510498
0.860  21.484985
0.859  21.505807
0.858  21.508365
0.857  21.495566
0.856  21.476209
0.855  21.458273
0.854  21.465734
0.853  21.474032
0.852  21.483606
0.851  21.473280
0.850  21.464903
0.849  21.467750
0.848  21.461045
0.847  21.491412
0.846  21.513358
0.845  21.499142
0.844  21.498239
0.843  21.519738
0.842  21.513576
0.841  21.533594
0.840  21.554255
0.839  21.541716
0.838  21.561975
0.837  21.547281
0.836  21.562594
0.835  21.571318
0.834  21.574951
0.833  21.593422
0.832  21.612041
0.831  21.602833
0.830  21.619240
0.829  21.629055
0.828  21.654043
0.827  21.655474
0.826  21.674053
0.825  21.701971
0.824  21.695125
0.823  21.719296
0.822  21.720904
0.821  21.731624
0.820  21.761798
0.819  21.758553
0.818  21.770196
0.817  21.783454
0.816  21.804572
0.815  21.817638
0.814  21.819524
0.813  21.846790
0.812  21.873531
0.811  21.877096
0.810  21.877269
0.809  21.918872
0.808  21.924387
0.807  21.938023
0.806  21.949790
0.805  21.956489
0.804  21.981707
0.803  21.997780
0.802  22.013020
0.801  22.028837
0.800  22.018908
0.799  22.052057
0.798  22.061502
0.797  22.055764
0.796  22.094623
0.795  22.098251
0.794  22.092910
0.793  22.109809
0.792  22.116860
0.791  22.143023
0.790  22.146732
0.789  22.164688
0.788  22.161243
0.787  22.180010
0.786  22.194830
0.785  22.213967
0.784  22.191691
0.783  22.201019
0.782  22.220113
0.781  22.238807
0.780  22.226729
0.779  22.217631
0.778  22.230024
0.777  22.225505
0.776  22.245833
0.775  22.241948
0.774  22.258726
0.773  22.233019
0.772  22.247531
0.771  22.241011
0.770  22.257050
0.769  22.248592
0.768  22.251118
0.767  22.228365
0.766  22.236218
0.765  22.232815
0.764  22.223704
0.763  22.203395
0.762  22.199172
0.761  22.185168
0.760  22.178196
0.759  22.159969
0.758  22.136769
0.757  22.134153
0.756  22.124901
0.755  22.108837
0.754  22.080803
0.753  22.062929
0.752  22.043338
0.751  22.031536
0.750  21.996573
0.749  21.978478
0.748  21.946073
0.747  21.919728
0.746  21.893868
0.745  21.861478
0.744  21.832568
0.743  21.805344
0.742  21.780847
0.741  21.750003
0.740  21.696697
0.739  21.663184
0.738  21.635737
0.737  21.604792
0.736  21.560304
0.735  21.513287
0.734  21.481109
0.733  21.436112
0.732  21.393870
0.731  21.343460
0.730  21.307366
0.729  21.250090
0.728  21.210168
0.727  21.166784
0.726  21.122428
0.725  21.062150
0.724  21.014238
0.723  20.960223
0.722  20.907209
0.721  20.852209
0.720  20.808325
0.719  20.758182
0.718  20.704762
0.717  20.652151
0.716  20.601775
0.715  20.538410
0.714  20.489254
0.713  20.432241
0.712  20.369674
0.711  20.317723
0.710  20.269564
0.709  20.210185
0.708  20.150914
0.707  20.098471
0.706  20.042459
0.705  19.984244
0.704  19.929785
0.703  19.874855
0.702  19.823549
0.701  19.769973
0.700  19.717414
0.699  19.662220
0.698  19.598347
0.697  19.542184
0.696  19.490416
0.695  19.441614
0.694  19.380183
0.693  19.328347
0.692  19.278727
0.691  19.228335
0.690  19.178874
0.689  19.124542
0.688  19.071745
0.687  19.024026
0.686  18.980634
0.685  18.923665
0.684  18.870302
0.683  18.824524
0.682  18.777435
0.681  18.725548
0.680  18.680027
0.679  18.636032
0.678  18.590345
0.677  18.544058
0.676  18.500258
0.675  18.460401
0.674  18.416245
0.673  18.370378
0.672  18.329564
0.671  18.287189
0.670  18.244741
0.669  18.205749
0.668  18.164031
0.667  18.121133
0.666  18.085335
0.665  18.052256
0.664  18.007426
0.663  17.971283
0.662  17.939622
0.661  17.913238
0.660  17.894752
0.659  17.866903
0.658  17.829604
0.657  17.794370
0.656  17.759340
0.655  17.726473
0.654  17.694892
0.653  17.659233
0.652  17.628674
0.651  17.599972
0.650  17.572083
0.649  17.543899
0.648  17.513391
0.647  17.481513
0.646  17.449614
0.645  17.419634
0.644  17.392230
0.643  17.365889
0.642  17.341976
0.641  17.309213
0.640  17.275061
0.639  17.251796
0.638  17.228095
0.637  17.199011
0.636  17.170130
0.635  17.145374
0.634  17.122690
0.633  17.094876
0.632  17.064071
0.631  17.038239
0.630  17.011323
0.629  16.983791
0.628  16.958279
0.627  16.930861
0.626  16.900052
0.625  16.869712
0.624  16.841748
0.623  16.810424
0.622  16.780641
0.621  16.749367
0.620  16.716248
0.619  16.683553
0.618  16.647341
0.617  16.615486
0.616  16.579309
0.615  16.539258
0.614  16.497866
0.613  16.455049
0.612  16.415103
0.611  16.370123
0.610  16.324422
0.609  16.278408
0.608  16.224952
0.607  16.170201
0.606  16.116670
0.605  16.060898
0.604  16.000365
0.603  15.938452
0.602  15.876372
0.601  15.811214
0.600  15.735698
0.599  15.664284
0.598  15.595480
0.597  15.517178
0.596  15.440571
0.595  15.361625
0.594  15.270010
0.593  15.176658
0.592  15.085879
0.591  14.989774
0.590  14.894371
0.589  14.792113
0.588  14.688174
0.587  14.587368
0.586  14.483780
0.585  14.382757
0.584  14.272353
0.583  14.162320
0.582  14.051638
0.581  13.938413
0.580  13.834520
0.579  13.726595
0.578  13.617313
0.577  13.507476
0.576  13.401225
0.575  13.297424
0.574  13.196739
0.573  13.095066
0.572  12.996289
0.571  12.903477
0.570  12.810038
0.569  12.722715
0.568  12.636806
0.567  12.551536
0.566  12.470642
0.565  12.394961
0.564  12.322642
0.563  12.254379
0.562  12.188347
0.561  12.097021
0.560  12.024235
0.559  11.967286
0.558  11.915158
0.557  11.864921
0.556  11.816840
0.555  11.772272
0.554  11.731505
0.553  11.691891
0.552  11.653702
0.551  11.620922
0.550  11.585379
0.549  11.556709
0.548  11.528600
0.547  11.502672
0.546  11.479589
0.545  11.457826
0.544  11.437262
0.543  11.420980
0.542  11.402039
0.541  11.385045
0.540  11.368451
0.539  11.357984
0.538  11.343612
0.537  11.334899
0.536  11.323450
0.535  11.314326
0.534  11.303328
0.533  11.297523
0.532  11.287006
0.531  11.280497
0.530  11.277337
0.529  11.270445
0.528  11.266330
0.527  11.259387
0.526  11.258981
0.525  11.254539
0.524  11.252194
0.523  11.248793
0.522  11.246307
0.521  11.245411
0.520  11.246461
0.519  11.243705
0.518  11.239836
0.517  11.243667
0.516  11.238787
0.515  11.233271
0.514  11.237797
0.513  11.233030
0.512  11.236768
0.511  11.230930
0.510  11.231801
0.509  11.225039
0.508  11.228231
0.507  11.230079
0.506  11.223214
0.505  11.219857
0.504  11.218545
0.503  11.214904
0.502  11.215916
0.501  11.212486
0.500  11.202482
0.499  11.205044
0.498  11.198633
0.497  11.198332
0.496  11.189545
0.495  11.186795
0.494  11.185643
0.493  11.172469
0.492  11.173437
0.491  11.161946
0.490  11.158235
0.489  11.155058
0.488  11.147943
0.487  11.140531
0.486  11.127647
0.485  11.120758
0.484  11.117620
0.483  11.117180
0.482  11.122228
0.481  11.135614
0.480  11.146305
0.479  11.156061
0.478  11.169455
0.477  11.181544
0.476  11.188918
0.475  11.189460
0.474  11.194611
0.473  11.192283
0.472  11.194896
0.471  11.198783
0.470  11.204343
0.469  11.205887
0.468  11.213400
0.467  11.202658
0.466  11.214137
0.465  11.216427
0.464  11.215889
0.463  11.218860
0.462  11.217735
0.461  11.211867
0.460  11.213849
0.459  11.206533
0.458  11.207283
0.457  11.195416
0.456  11.192129
0.455  11.188256
0.454  11.175612
0.453  11.164992
0.452  11.147630
0.451  11.134053
0.450  11.120828
0.449  11.109098
0.448  11.096452
0.447  11.081529
0.446  11.064824
0.445  11.056457
0.444  11.054581
0.443  11.051237
0.442  11.056506
0.441  11.064638
0.440  11.063296
0.439  11.066733
0.438  11.072425
0.437  11.079608
0.436  11.075870
0.435  11.072329
0.434  11.074427
0.433  11.076691
0.432  11.073182
0.431  11.072977
0.430  11.070714
0.429  11.064222
0.428  11.067115
0.427  11.063052
0.426  11.060605
0.425  11.060260
0.424  11.052485
0.423  11.052739
0.422  11.053548
0.421  11.046176
0.420  11.039122
0.419  11.033793
0.418  11.037473
0.417  11.033579
0.416  11.030464
0.415  11.029061
0.414  11.023893
0.413  11.017196
0.412  11.013405
0.411  11.004144
0.410  10.987918
0.409  10.979420
0.408  10.965424
0.407  10.952063
0.406  10.937473
0.405  10.924796
0.404  10.913814
0.403  10.902418
0.402  10.889205
0.401  10.875490
0.400  10.856774
