Name: Borax Na_2B_4O_5(OH)_4.8H_2O
Type: Mineral
Class: Borates
Subclass: 
Particle Size: 0-45um
Sample No.: B-6A
Owner: JPL
Wavelength range: IR
Origin: USA, California, Kern County, Boron
Collected by Burminco
Description: 





Measurement: Hemispherical reflectance
First Column: X
Second Column: Y
X Units:  Wavelength (micrometers)
Y Units:  Reflectance (percent)
First X Value: 15.3853
Last X Value: 2.00032
Number of X Values: 2256
Additional information: b06aa.txt
 
15.3853	3.20071
15.3397	2.97345
15.2945	2.84144
15.2495	2.85818
15.2048	3.00778
15.1603	3.09156
15.1161	2.94157
15.0722	2.8531
15.0285	2.96358
14.9851	2.84744
14.9419	2.5132
14.8989	2.30704
14.8563	2.52781
14.8138	2.69111
14.7716	2.78733
14.7296	2.76415
14.6879	2.84736
14.6464	2.79372
14.6052	2.71618
14.5641	2.91535
14.5233	2.90689
14.4828	2.79674
14.4424	2.60792
14.4023	2.32271
14.3624	2.21288
14.3227	2.27276
14.2833	2.28855
14.244	2.22192
14.205	2.26152
14.1662	2.34379
14.1276	2.31564
14.0892	2.10453
14.051	1.89065
14.0131	1.92606
13.9753	1.9901
13.9377	1.90448
13.9004	1.78108
13.8632	1.71758
13.8262	1.76136
13.7895	1.64849
13.7529	1.71978
13.7165	1.95381
13.6803	1.97249
13.6443	1.91694
13.6085	1.8045
13.5729	1.70399
13.5374	1.72304
13.5022	1.89844
13.4671	1.99743
13.4322	1.96973
13.3975	1.9895
13.363	2.08857
13.3286	2.16779
13.2944	2.13278
13.2604	2.22629
13.2266	2.34039
13.193	2.32395
13.1595	2.19961
13.1262	2.10954
13.093	2.11982
13.06	2.25188
13.0272	2.21786
12.9946	2.11424
12.9621	2.12058
12.9298	2.2756
12.8976	2.4295
12.8656	2.27427
12.8337	2.14254
12.8021	2.27228
12.7705	2.26089
12.7391	2.1045
12.7079	2.13214
12.6769	2.26814
12.6459	2.25087
12.6152	2.2665
12.5845	2.20768
12.5541	2.16933
12.5238	2.39665
12.4936	2.71042
12.4635	2.77326
12.4337	2.77197
12.4039	2.80161
12.3743	2.77867
12.3448	2.85329
12.3155	3.02099
12.2863	3.13441
12.2573	3.37442
12.2284	3.68198
12.1996	3.92196
12.171	4.21729
12.1425	4.45861
12.1141	4.68568
12.0859	4.57691
12.0578	4.12815
12.0298	3.80684
12.0019	3.45603
11.9742	3.11053
11.9466	2.72739
11.9192	2.10718
11.8918	1.62633
11.8646	1.30743
11.8375	1.1107
11.8106	0.921811
11.7837	0.831763
11.757	0.898796
11.7304	0.908892
11.7039	0.854997
11.6776	0.778165
11.6513	0.932785
11.6252	1.12252
11.5992	1.21167
11.5733	1.17405
11.5475	1.18867
11.5219	1.22272
11.4963	1.26163
11.4709	1.35265
11.4455	1.40561
11.4203	1.41019
11.3952	1.52901
11.3702	1.5988
11.3454	1.471
11.3206	1.46766
11.2959	1.59391
11.2714	1.60731
11.2469	1.52072
11.2226	1.4247
11.1983	1.44875
11.1742	1.6173
11.1502	1.66863
11.1263	1.74037
11.1024	1.85645
11.0787	1.80505
11.0551	1.75796
11.0316	1.76101
11.0081	1.81743
10.9848	1.92242
10.9616	2.03264
10.9385	2.15546
10.9154	2.24699
10.8925	2.27504
10.8697	2.35334
10.8469	2.44492
10.8243	2.55048
10.8017	2.66054
10.7793	2.76292
10.7569	2.82023
10.7346	2.91206
10.7125	3.04226
10.6904	3.21145
10.6684	3.39868
10.6465	3.57284
10.6247	3.80307
10.6029	4.04722
10.5813	4.23997
10.5597	4.25658
10.5383	4.01272
10.5169	3.45523
10.4956	2.76465
10.4744	2.07727
10.4533	1.52524
10.4323	1.28319
10.4113	1.3811
10.3904	1.63475
10.3697	1.69425
10.349	1.78429
10.3284	1.92782
10.3078	2.07385
10.2874	2.28882
10.267	2.49177
10.2467	2.63703
10.2265	2.89576
10.2064	3.13648
10.1863	3.25795
10.1663	3.4865
10.1464	3.81598
10.1266	4.2019
10.1069	4.48707
10.0872	4.75532
10.0676	5.20691
10.0481	5.67331
10.0287	6.12536
10.0093	6.39371
9.99005	6.62567
9.97084	6.71527
9.95169	6.66419
9.93263	6.66503
9.91364	6.54338
9.89472	6.2944
9.87587	5.93664
9.8571	5.47444
9.83839	4.98075
9.81976	4.44014
9.80119	4.12205
9.78271	3.95273
9.76428	3.90966
9.74592	4.02055
9.72764	4.11622
9.70943	4.16841
9.69128	4.30557
9.6732	4.4035
9.65518	4.3318
9.63724	4.26205
9.61935	4.35092
9.60155	4.27887
9.5838	3.98878
9.56611	3.62359
9.5485	3.24208
9.53094	2.92474
9.51345	2.51577
9.49604	2.03372
9.47867	1.61206
9.46137	1.28871
9.44414	1.03442
9.42697	0.85169
9.40986	0.68992
9.39281	0.604552
9.37583	0.664995
9.35891	0.810543
9.34204	0.929492
9.32524	1.09615
9.3085	1.16171
9.29182	1.09541
9.27519	1.07857
9.25863	0.997855
9.24213	0.918309
9.22568	0.810683
9.2093	0.771191
9.19297	0.753869
9.17669	0.711431
9.16048	0.816958
9.14433	0.852195
9.12823	0.637153
9.11218	0.563376
9.0962	0.553303
9.08027	0.457903
9.06439	0.53165
9.04858	0.630119
9.03281	0.679706
9.0171	0.786097
9.00145	0.861658
8.98585	0.931975
8.9703	0.954106
8.9548	1.01483
8.93937	1.19781
8.92398	1.53514
8.90865	1.8755
8.89337	2.05787
8.87814	2.36829
8.86296	2.82745
8.84784	3.21039
8.83277	3.27635
8.81774	3.15551
8.80277	3.0718
8.78786	2.78236
8.77298	2.353
8.75816	1.98713
8.7434	1.74694
8.72868	1.40655
8.714	1.27652
8.69938	1.36272
8.68481	1.24402
8.67029	0.994336
8.65581	0.904351
8.64139	0.871116
8.62701	0.800746
8.61268	0.709234
8.5984	0.611941
8.58416	0.590455
8.56997	0.710116
8.55583	0.759881
8.54174	0.637294
8.52769	0.430948
8.51368	0.369312
8.49973	0.440759
8.48582	0.508434
8.47195	0.581961
8.45813	0.688416
8.44436	0.717231
8.43062	0.714119
8.41693	0.96698
8.4033	1.02804
8.3897	0.918614
8.37614	0.848071
8.36264	0.936929
8.34917	1.02038
8.33574	0.965793
8.32236	0.846523
8.30903	0.848304
8.29573	0.975488
8.28248	0.923786
8.26927	0.861278
8.2561	0.927066
8.24298	1.01337
8.2299	1.04978
8.21685	1.02855
8.20385	1.01899
8.19089	1.03476
8.17797	1.01417
8.16509	0.932631
8.15225	0.965166
8.13946	1.06331
8.1267	1.08569
8.11398	1.09384
8.10131	1.24554
8.08867	1.26469
8.07606	1.16101
8.0635	1.15462
8.05099	1.19856
8.0385	1.32444
8.02606	1.44433
8.01366	1.49106
8.00129	1.4744
7.98896	1.52482
7.97667	1.62258
7.96442	1.60425
7.9522	1.53477
7.94002	1.37554
7.92788	1.33076
7.91578	1.24693
7.90371	1.16751
7.89168	1.219
7.87969	1.18704
7.86773	1.11155
7.85581	1.14884
7.84392	1.25515
7.83207	1.26344
7.82026	1.34819
7.80849	1.33521
7.79674	1.26699
7.78503	1.25371
7.77337	1.16493
7.76173	1.0554
7.75012	1.06066
7.73856	1.02862
7.72703	0.991441
7.71553	0.933161
7.70406	0.899585
7.69263	0.899053
7.68123	0.887622
7.66987	0.949747
7.65855	1.02767
7.64725	1.02543
7.63598	0.976038
7.62475	0.992946
7.61356	1.09523
7.60239	1.2003
7.59126	1.31157
7.58017	1.36582
7.5691	1.43702
7.55806	1.53699
7.54707	1.66194
7.5361	1.73726
7.52516	1.8529
7.51425	2.0581
7.50338	2.29091
7.49253	2.36005
7.48172	2.41157
7.47094	2.403
7.46019	2.39833
7.44947	2.47247
7.43879	2.54545
7.42813	2.53215
7.4175	2.46749
7.4069	2.39856
7.39634	2.2953
7.3858	2.19926
7.37529	2.1323
7.36482	2.03402
7.35437	1.7784
7.34396	1.60152
7.33357	1.56226
7.32321	1.59048
7.31288	1.66399
7.30258	1.60948
7.29231	1.4828
7.28207	1.53313
7.27185	1.60161
7.26167	1.61185
7.25152	1.56943
7.24139	1.56184
7.23129	1.63864
7.22122	1.64575
7.21117	1.64185
7.20116	1.56634
7.19117	1.53241
7.18121	1.54835
7.17128	1.5739
7.16137	1.54938
7.1515	1.56995
7.14164	1.50456
7.13182	1.46875
7.12203	1.49858
7.11225	1.51718
7.10251	1.50671
7.0928	1.50878
7.08311	1.48839
7.07344	1.49599
7.06381	1.65548
7.0542	1.76812
7.04461	1.81668
7.03506	1.87248
7.02552	1.95023
7.01601	1.95009
7.00653	1.91934
6.99708	1.92113
6.98765	2.04374
6.97824	2.12211
6.96886	2.11652
6.95951	2.08236
6.95018	1.96664
6.94087	1.76098
6.9316	1.64555
6.92234	1.62436
6.91311	1.59972
6.90391	1.47654
6.89473	1.2644
6.88557	1.26769
6.87644	1.31664
6.86733	1.30088
6.85824	1.4083
6.84918	1.51117
6.84015	1.51073
6.83114	1.55071
6.82215	1.68785
6.81319	1.85648
6.80424	1.92031
6.79532	1.96879
6.78643	2.1347
6.77756	2.27212
6.76871	2.33784
6.75989	2.42923
6.75109	2.5696
6.74231	2.75333
6.73355	2.80135
6.72482	2.8431
6.71611	2.91704
6.70742	2.96333
6.69875	2.93328
6.69011	2.95084
6.68149	2.97257
6.67289	2.93181
6.66431	2.83454
6.65576	2.71137
6.64722	2.6039
6.63871	2.42994
6.63022	2.1483
6.62175	1.80538
6.61331	1.57726
6.60488	1.44414
6.59648	1.21414
6.5881	0.964251
6.57974	0.835371
6.5714	0.789848
6.56308	0.730129
6.55478	0.61857
6.54651	0.606633
6.53825	0.547876
6.53001	0.449518
6.5218	0.44443
6.51361	0.458124
6.50544	0.470771
6.49729	0.434981
6.48915	0.450295
6.48104	0.489076
6.47295	0.497558
6.46488	0.44553
6.45683	0.445341
6.4488	0.405738
6.44079	0.366213
6.4328	0.437704
6.42482	0.475385
6.41687	0.505872
6.40894	0.500571
6.40103	0.477769
6.39314	0.562449
6.38526	0.632796
6.37741	0.514468
6.36957	0.486817
6.36176	0.560331
6.35396	0.62199
6.34618	0.662406
6.33843	0.609627
6.33069	0.59901
6.32297	0.604279
6.31527	0.643519
6.30758	0.765632
6.29992	0.803876
6.29227	0.68703
6.28465	0.658775
6.27704	0.764029
6.26945	0.802132
6.26188	0.754125
6.25432	0.780425
6.24679	0.881093
6.23927	0.949818
6.23177	0.943943
6.22429	0.923199
6.21683	0.929135
6.20938	1.00569
6.20195	0.958781
6.19454	0.87525
6.18715	0.895164
6.17978	0.938145
6.17242	0.938807
6.16508	0.860112
6.15776	0.750871
6.15045	0.741753
6.14317	0.679016
6.1359	0.677687
6.12864	0.757638
6.12141	0.705141
6.11419	0.651686
6.10699	0.694232
6.0998	0.70114
6.09263	0.682545
6.08549	0.706569
6.07835	0.723005
6.07123	0.601832
6.06413	0.508283
6.05705	0.514485
6.04998	0.52861
6.04293	0.509136
6.0359	0.426501
6.02888	0.341324
6.02187	0.347198
6.01489	0.379371
6.00792	0.395234
6.00096	0.450353
5.99403	0.512939
5.98711	0.586178
5.9802	0.62532
5.97331	0.6081
5.96644	0.505467
5.95958	0.452346
5.95274	0.503936
5.94591	0.521114
5.9391	0.533646
5.9323	0.513499
5.92552	0.469974
5.91876	0.477339
5.91201	0.521046
5.90528	0.521834
5.89856	0.591291
5.89186	0.611682
5.88517	0.635017
5.8785	0.637962
5.87184	0.631602
5.8652	0.745575
5.85857	0.874003
5.85196	0.957403
5.84536	0.943565
5.83878	0.903035
5.83221	0.920841
5.82566	0.962044
5.81912	1.10237
5.81259	1.15149
5.80608	1.13064
5.79959	1.2042
5.79311	1.32788
5.78665	1.41589
5.78019	1.47556
5.77376	1.46361
5.76734	1.51741
5.76093	1.61173
5.75453	1.59581
5.74815	1.58169
5.74179	1.67902
5.73543	1.78246
5.7291	1.78163
5.72277	1.78908
5.71646	1.84316
5.71017	1.92948
5.70389	2.0074
5.69762	2.09903
5.69136	2.15317
5.68513	2.16192
5.6789	2.16883
5.67268	2.07783
5.66648	2.02897
5.6603	2.06644
5.65413	2.1015
5.64797	2.16411
5.64182	2.21856
5.63569	2.22507
5.62957	2.32101
5.62347	2.44553
5.61737	2.40074
5.61129	2.31427
5.60522	2.35596
5.59917	2.37691
5.59313	2.38956
5.5871	2.4818
5.58109	2.52603
5.57509	2.52599
5.5691	2.50128
5.56312	2.54176
5.55716	2.59907
5.55121	2.61531
5.54528	2.66673
5.53935	2.71662
5.53344	2.71393
5.52754	2.69241
5.52166	2.69173
5.51578	2.73193
5.50992	2.82676
5.50407	2.86347
5.49823	2.83396
5.49241	2.8692
5.4866	2.94509
5.4808	3.01936
5.47501	3.1231
5.46923	3.18061
5.46347	3.22553
5.45772	3.19122
5.45198	3.15582
5.44625	3.24425
5.44054	3.29814
5.43484	3.27652
5.42914	3.3057
5.42347	3.35759
5.4178	3.38178
5.41214	3.39079
5.4065	3.41904
5.40087	3.50688
5.39525	3.66085
5.38964	3.76331
5.38404	3.79903
5.37846	3.86489
5.37288	3.9519
5.36732	4.05641
5.36177	4.1503
5.35623	4.15506
5.35071	4.17133
5.34519	4.25811
5.33968	4.32025
5.33419	4.37116
5.32871	4.39627
5.32324	4.4045
5.31778	4.49909
5.31233	4.58736
5.30689	4.53107
5.30147	4.44509
5.29605	4.55529
5.29065	4.65198
5.28525	4.69299
5.27987	4.69673
5.2745	4.68926
5.26914	4.6877
5.26379	4.61852
5.25845	4.6539
5.25312	4.71649
5.24781	4.65808
5.2425	4.59246
5.23721	4.55544
5.23192	4.54904
5.22665	4.59335
5.22138	4.62287
5.21613	4.58833
5.21089	4.55464
5.20566	4.56081
5.20044	4.55811
5.19522	4.56774
5.19002	4.53057
5.18483	4.54174
5.17965	4.59669
5.17448	4.55944
5.16933	4.50329
5.16418	4.54799
5.15904	4.61741
5.15391	4.5765
5.14879	4.6119
5.14368	4.69035
5.13859	4.77659
5.1335	4.77817
5.12842	4.74309
5.12335	4.80732
5.1183	4.86073
5.11325	4.84654
5.10821	4.83239
5.10318	4.92061
5.09817	5.01827
5.09316	5.04993
5.08816	5.03508
5.08317	5.06986
5.07819	5.15472
5.07322	5.1901
5.06826	5.21747
5.06331	5.24912
5.05837	5.17198
5.05344	5.19563
5.04852	5.25724
5.04361	5.25985
5.03871	5.33786
5.03382	5.42913
5.02894	5.38073
5.02406	5.40384
5.0192	5.36632
5.01435	5.32399
5.0095	5.39686
5.00467	5.4327
4.99984	5.43465
4.99502	5.46722
4.99021	5.42127
4.98542	5.3726
4.98063	5.32732
4.97585	5.3012
4.97108	5.33005
4.96632	5.36775
4.96156	5.43185
4.95682	5.47688
4.95209	5.43552
4.94736	5.40216
4.94264	5.32686
4.93794	5.34956
4.93324	5.36495
4.92855	5.33413
4.92387	5.33355
4.9192	5.38012
4.91453	5.42737
4.90988	5.44046
4.90524	5.43851
4.9006	5.49201
4.89597	5.51085
4.89135	5.51236
4.88674	5.59209
4.88214	5.6098
4.87755	5.54977
4.87296	5.54161
4.86839	5.61501
4.86382	5.75766
4.85926	5.87775
4.85471	5.88566
4.85017	5.846
4.84564	5.84353
4.84111	5.84655
4.8366	5.87725
4.83209	5.92154
4.82759	5.97614
4.8231	5.90798
4.81862	5.90529
4.81415	6.05125
4.80968	6.13424
4.80522	6.11915
4.80077	6.10894
4.79633	6.04812
4.7919	5.99795
4.78747	5.9774
4.78306	6.01774
4.77865	5.98847
4.77425	6.01149
4.76986	6.04598
4.76547	6.05987
4.7611	6.03721
4.75673	5.96339
4.75237	5.89598
4.74802	5.81195
4.74367	5.78339
4.73934	5.88381
4.73501	5.99919
4.73069	6.00616
4.72638	5.93334
4.72207	5.89275
4.71777	5.84929
4.71348	5.87885
4.7092	5.93449
4.70493	5.91977
4.70066	5.81513
4.69641	5.77627
4.69216	5.82249
4.68791	5.78717
4.68368	5.77662
4.67945	5.79628
4.67523	5.80357
4.67102	5.85227
4.66682	5.7982
4.66262	5.72897
4.65843	5.65068
4.65425	5.64584
4.65007	5.65257
4.64591	5.61828
4.64175	5.60401
4.6376	5.59772
4.63345	5.6212
4.62932	5.55887
4.62519	5.49826
4.62106	5.45622
4.61695	5.44591
4.61284	5.4613
4.60874	5.37814
4.60465	5.32846
4.60056	5.38056
4.59648	5.4065
4.59241	5.44648
4.58835	5.39972
4.58429	5.36333
4.58024	5.35791
4.5762	5.22154
4.57216	5.15692
4.56814	5.14768
4.56411	5.09624
4.5601	5.14827
4.55609	5.17488
4.55209	5.11225
4.5481	5.07266
4.54411	5.06539
4.54013	5.06911
4.53616	5.06538
4.5322	4.99882
4.52824	4.89829
4.52429	4.96935
4.52034	5.03026
4.51641	4.96713
4.51247	4.91676
4.50855	4.95557
4.50463	5.06661
4.50072	5.11584
4.49682	5.04207
4.49292	5.02318
4.48903	5.04439
4.48515	5.06534
4.48127	5.12721
4.4774	5.16009
4.47354	5.15847
4.46968	5.19306
4.46584	5.30917
4.46199	5.35093
4.45815	5.35407
4.45432	5.41525
4.4505	5.46377
4.44668	5.5278
4.44287	5.52023
4.43907	5.47884
4.43527	5.52535
4.43148	5.54843
4.4277	5.5562
4.42392	5.52916
4.42015	5.52921
4.41638	5.5417
4.41262	5.56122
4.40887	5.57916
4.40513	5.51982
4.40139	5.52994
4.39765	5.52749
4.39393	5.46258
4.39021	5.45142
4.38649	5.45137
4.38278	5.30681
4.37908	5.21167
4.37539	5.18276
4.3717	5.29745
4.36801	5.36324
4.36434	5.33171
4.36067	5.39027
4.357	5.37907
4.35335	5.26072
4.34969	5.25631
4.34605	5.30879
4.34241	5.33289
4.33877	5.27825
4.33514	5.26659
4.33152	5.26774
4.32791	5.27458
4.3243	5.26685
4.32069	5.25334
4.3171	5.26598
4.31351	5.2451
4.30992	5.1993
4.30634	5.21472
4.30277	5.23197
4.2992	5.09177
4.29564	5.16304
4.29208	5.19375
4.28853	5.12191
4.28499	5.03235
4.28145	4.99313
4.27792	5.03359
4.27439	5.05866
4.27087	5.04628
4.26735	4.97647
4.26384	4.88691
4.26034	4.85836
4.25684	4.84874
4.25335	4.83531
4.24986	4.77663
4.24638	4.68382
4.24291	4.61747
4.23944	4.59884
4.23598	4.54431
4.23252	4.43171
4.22906	4.33835
4.22562	4.28242
4.22218	4.22284
4.21874	4.19367
4.21531	4.18677
4.21189	4.11827
4.20847	3.9654
4.20506	3.76125
4.20165	3.7222
4.19825	3.70023
4.19485	3.55739
4.19146	3.41919
4.18807	3.32641
4.18469	3.23198
4.18132	3.16144
4.17795	3.11314
4.17458	2.93797
4.17123	2.74782
4.16787	2.61546
4.16453	2.47254
4.16118	2.33398
4.15785	2.25825
4.15451	2.2175
4.15119	2.18715
4.14787	2.08205
4.14455	1.98716
4.14124	1.90719
4.13794	1.79244
4.13464	1.67912
4.13134	1.67486
4.12805	1.64885
4.12477	1.60886
4.12149	1.52941
4.11822	1.40518
4.11495	1.4338
4.11168	1.47857
4.10843	1.54813
4.10517	1.60115
4.10192	1.64122
4.09868	1.6049
4.09545	1.53471
4.09221	1.51645
4.08899	1.52066
4.08576	1.61137
4.08255	1.63627
4.07933	1.59367
4.07613	1.55091
4.07292	1.59025
4.06973	1.67424
4.06654	1.68411
4.06335	1.63665
4.06017	1.64258
4.05699	1.70659
4.05382	1.7409
4.05065	1.71864
4.04749	1.70098
4.04433	1.69578
4.04118	1.65717
4.03803	1.54726
4.03489	1.54022
4.03175	1.65012
4.02862	1.72765
4.02549	1.75762
4.02237	1.6969
4.01925	1.64503
4.01614	1.69106
4.01303	1.66028
4.00993	1.68526
4.00683	1.71733
4.00373	1.62596
4.00064	1.6479
3.99756	1.75891
3.99448	1.83637
3.9914	1.86425
3.98833	1.82599
3.98527	1.79368
3.98221	1.80805
3.97915	1.86219
3.9761	1.8464
3.97305	1.89127
3.97001	1.91681
3.96697	1.82892
3.96394	1.87734
3.96091	1.95153
3.95789	1.94949
3.95487	1.99097
3.95186	2.04392
3.94885	2.04666
3.94584	2.01691
3.94284	1.93106
3.93984	1.85909
3.93685	1.92088
3.93386	2.06134
3.93088	2.13647
3.9279	2.01321
3.92493	1.84744
3.92196	1.85691
3.919	1.81303
3.91604	1.7414
3.91308	1.66568
3.91013	1.67515
3.90718	1.77985
3.90424	1.73878
3.9013	1.71087
3.89837	1.72827
3.89544	1.73983
3.89252	1.74796
3.8896	1.71129
3.88668	1.65267
3.88377	1.53512
3.88086	1.45051
3.87796	1.53481
3.87506	1.58961
3.87217	1.58169
3.86928	1.55228
3.86639	1.52203
3.86351	1.43616
3.86064	1.41896
3.85776	1.46734
3.8549	1.37099
3.85203	1.28368
3.84917	1.26841
3.84631	1.3654
3.84346	1.32417
3.84062	1.24512
3.83777	1.27254
3.83494	1.33968
3.8321	1.27683
3.82927	1.27193
3.82644	1.37472
3.82362	1.39859
3.82081	1.339
3.81799	1.32879
3.81518	1.32187
3.81238	1.30403
3.80958	1.316
3.80678	1.43154
3.80399	1.45762
3.8012	1.32322
3.79841	1.35192
3.79563	1.41346
3.79286	1.35827
3.79008	1.30212
3.78731	1.34596
3.78455	1.42188
3.78179	1.38329
3.77903	1.3712
3.77628	1.35436
3.77353	1.39673
3.77079	1.42521
3.76805	1.39344
3.76531	1.46193
3.76258	1.51455
3.75985	1.5207
3.75713	1.52032
3.7544	1.48863
3.75169	1.53905
3.74898	1.59856
3.74627	1.64803
3.74356	1.60851
3.74086	1.52268
3.73816	1.59529
3.73547	1.65863
3.73278	1.62637
3.7301	1.63392
3.72741	1.61647
3.72474	1.64264
3.72206	1.59777
3.71939	1.52382
3.71673	1.48607
3.71406	1.5264
3.71141	1.55918
3.70875	1.52248
3.7061	1.47904
3.70345	1.56469
3.70081	1.60789
3.69817	1.68096
3.69553	1.63188
3.6929	1.52112
3.69027	1.48966
3.68765	1.43692
3.68503	1.4837
3.68241	1.58413
3.6798	1.48814
3.67719	1.47013
3.67458	1.51593
3.67198	1.48208
3.66938	1.43079
3.66678	1.44154
3.66419	1.48992
3.66161	1.50214
3.65902	1.49018
3.65644	1.44982
3.65387	1.43901
3.65129	1.38351
3.64872	1.3231
3.64616	1.35456
3.64359	1.34379
3.64103	1.35129
3.63848	1.32149
3.63593	1.2582
3.63338	1.21427
3.63084	1.2006
3.6283	1.33258
3.62576	1.27175
3.62322	1.21858
3.62069	1.23526
3.61817	1.22164
3.61564	1.28074
3.61312	1.25121
3.61061	1.23141
3.6081	1.24689
3.60559	1.18315
3.60308	1.22992
3.60058	1.19403
3.59808	1.11675
3.59558	1.17813
3.59309	1.13651
3.59061	1.10442
3.58812	1.17876
3.58564	1.15335
3.58316	1.07663
3.58069	1.07733
3.57822	1.13545
3.57575	1.23783
3.57328	1.25019
3.57082	1.13564
3.56836	1.09234
3.56591	0.993412
3.56346	0.9698
3.56101	1.07223
3.55857	1.07704
3.55613	1.03245
3.55369	1.08314
3.55126	1.11673
3.54883	1.1326
3.5464	1.07861
3.54397	1.02698
3.54155	1.11881
3.53914	1.11928
3.53672	1.07692
3.53431	1.09257
3.5319	1.13441
3.5295	1.16667
3.5271	1.13712
3.5247	1.11968
3.52231	1.15408
3.51991	1.163
3.51753	1.18416
3.51514	1.09703
3.51276	1.02316
3.51038	1.07983
3.50801	1.08577
3.50563	1.13522
3.50327	1.154
3.5009	1.06555
3.49854	1.10311
3.49618	1.10043
3.49382	1.10581
3.49147	1.1715
3.48912	1.13838
3.48677	1.02853
3.48443	1.0348
3.48209	1.03666
3.47975	0.917054
3.47742	0.892819
3.47509	1.00876
3.47276	1.07708
3.47044	1.0532
3.46812	1.12132
3.4658	1.1329
3.46348	1.16821
3.46117	1.07903
3.45886	1.00302
3.45656	1.03145
3.45425	1.11517
3.45195	1.10434
3.44966	1.00822
3.44736	0.977154
3.44507	1.04005
3.44279	1.10884
3.4405	1.06875
3.43822	0.98364
3.43594	0.999192
3.43367	1.06699
3.43139	1.14575
3.42912	1.08626
3.42686	0.948948
3.42459	0.971278
3.42233	1.04473
3.42007	1.0196
3.41782	1.02932
3.41557	1.03959
3.41332	1.06377
3.41108	1.11911
3.40883	1.14442
3.40659	1.08973
3.40435	1.05344
3.40212	1.05991
3.39989	1.02953
3.39766	1.0127
3.39544	1.00737
3.39322	1.01478
3.391	0.936597
3.38878	0.992214
3.38657	1.06593
3.38436	1.09032
3.38215	1.09678
3.37994	1.06866
3.37774	1.09122
3.37554	1.03266
3.37335	0.90102
3.37115	0.824401
3.36896	0.894067
3.36678	0.971746
3.36459	0.99201
3.36241	0.99598
3.36023	0.988691
3.35805	0.994562
3.35588	1.03923
3.35371	1.00297
3.35154	0.949662
3.34938	0.919206
3.34721	0.935001
3.34505	0.896243
3.3429	0.964167
3.34074	0.99144
3.33859	0.914973
3.33644	0.944356
3.3343	0.984487
3.33215	1.01509
3.33001	0.964734
3.32788	0.987945
3.32574	1.01291
3.32361	1.03158
3.32148	1.02231
3.31936	1.02379
3.31723	1.05817
3.31511	1.03177
3.31299	0.985193
3.31088	0.864094
3.30876	0.862713
3.30665	0.887601
3.30455	0.86822
3.30244	0.889398
3.30034	0.988569
3.29824	0.969812
3.29614	0.9449
3.29405	0.938391
3.29196	0.928013
3.28987	1.09646
3.28778	1.15006
3.2857	0.981568
3.28362	0.902696
3.28154	0.901261
3.27946	0.971914
3.27739	0.952563
3.27532	0.878692
3.27325	0.946552
3.27119	0.989215
3.26913	0.901126
3.26707	0.807165
3.26501	0.914987
3.26295	0.989955
3.2609	0.976
3.25885	0.956569
3.2568	1.00185
3.25476	0.971343
3.25272	0.94742
3.25068	0.937823
3.24864	0.936675
3.24661	0.957689
3.24458	0.964331
3.24255	0.849425
3.24052	0.743951
3.2385	0.835034
3.23648	0.968122
3.23446	0.984031
3.23244	0.984268
3.23043	0.967631
3.22841	0.877272
3.2264	0.880123
3.2244	0.861977
3.22239	0.84008
3.22039	0.744754
3.21839	0.766617
3.2164	0.776045
3.2144	0.749013
3.21241	0.766807
3.21042	0.899347
3.20844	1.0119
3.20645	0.992781
3.20447	0.948914
3.20249	0.876764
3.20051	0.864874
3.19854	0.872379
3.19657	0.877191
3.1946	0.777416
3.19263	0.826532
3.19067	0.926774
3.1887	0.884036
3.18674	0.885327
3.18479	0.982909
3.18283	0.964412
3.18088	1.02677
3.17893	1.00023
3.17698	0.908567
3.17504	0.88559
3.17309	0.929992
3.17115	0.950305
3.16921	1.0165
3.16728	0.978861
3.16534	0.902841
3.16341	0.962606
3.16148	0.957919
3.15956	0.940207
3.15763	0.950153
3.15571	0.910198
3.15379	0.877484
3.15187	0.873895
3.14996	0.959861
3.14805	0.971069
3.14614	0.92349
3.14423	0.936808
3.14232	0.883166
3.14042	0.774878
3.13852	0.804353
3.13662	0.902587
3.13472	0.973796
3.13283	1.0302
3.13094	1.05841
3.12905	1.07492
3.12716	0.961929
3.12528	1.02522
3.12339	1.09656
3.12151	1.08775
3.11964	1.09111
3.11776	0.964051
3.11589	0.918932
3.11401	0.834113
3.11214	0.804091
3.11028	0.906754
3.10841	1.06772
3.10655	0.986414
3.10469	0.885046
3.10283	0.986197
3.10098	1.06535
3.09912	1.08536
3.09727	1.03681
3.09542	0.966112
3.09358	0.916505
3.09173	0.949336
3.08989	0.903666
3.08805	0.967591
3.08621	0.979079
3.08437	0.973482
3.08254	1.1146
3.08071	1.08822
3.07888	0.993101
3.07705	0.966632
3.07523	0.958468
3.0734	1.00653
3.07158	1.11623
3.06977	1.10232
3.06795	1.04781
3.06613	1.0673
3.06432	1.04008
3.06251	1.08587
3.0607	1.14631
3.0589	1.08974
3.0571	1.01169
3.05529	1.09638
3.05349	1.16475
3.0517	1.08219
3.0499	0.970081
3.04811	1.0866
3.04632	1.1152
3.04453	0.995718
3.04274	0.995442
3.04096	1.15136
3.03918	1.21238
3.0374	1.14425
3.03562	1.08099
3.03384	1.14605
3.03207	1.1178
3.03029	1.15116
3.02852	1.13472
3.02676	1.12954
3.02499	1.13682
3.02323	1.13828
3.02146	1.12758
3.0197	1.11099
3.01795	1.10791
3.01619	1.24384
3.01444	1.24456
3.01269	1.18312
3.01094	1.21811
3.00919	1.27796
3.00744	1.21612
3.0057	1.2007
3.00396	1.26695
3.00222	1.18248
3.00048	1.23874
2.99875	1.42113
2.99701	1.4362
2.99528	1.33291
2.99355	1.31423
2.99183	1.30679
2.9901	1.34449
2.98838	1.38774
2.98666	1.21053
2.98494	1.03953
2.98322	1.13963
2.9815	1.24947
2.97979	1.21695
2.97808	1.03361
2.97637	0.883007
2.97466	0.880333
2.97295	1.00688
2.97125	1.01636
2.96955	0.884749
2.96785	0.877576
2.96615	0.883429
2.96446	0.844157
2.96276	0.83728
2.96107	0.810909
2.95938	0.634858
2.95769	0.471717
2.95601	0.485838
2.95432	0.607083
2.95264	0.547503
2.95096	0.501843
2.94928	0.492122
2.9476	0.452313
2.94593	0.493852
2.94425	0.511145
2.94258	0.519572
2.94092	0.422599
2.93925	0.411335
2.93758	0.451995
2.93592	0.432762
2.93426	0.386963
2.9326	0.426184
2.93094	0.531966
2.92928	0.522773
2.92763	0.525976
2.92598	0.518754
2.92433	0.517692
2.92268	0.539092
2.92103	0.429488
2.91939	0.229225
2.91775	0.285253
2.9161	0.474923
2.91447	0.47363
2.91283	0.454956
2.91119	0.495365
2.90956	0.583751
2.90793	0.525256
2.9063	0.494456
2.90467	0.4656
2.90304	0.448571
2.90142	0.557158
2.89979	0.54113
2.89817	0.467439
2.89656	0.520056
2.89494	0.461083
2.89332	0.499315
2.89171	0.525723
2.8901	0.483733
2.88849	0.496588
2.88688	0.371952
2.88527	0.488742
2.88367	0.679264
2.88206	0.657927
2.88046	0.49171
2.87886	0.407356
2.87727	0.529943
2.87567	0.557366
2.87408	0.560754
2.87248	0.535027
2.87089	0.434399
2.8693	0.423102
2.86772	0.411737
2.86613	0.406256
2.86455	0.4369
2.86297	0.552367
2.86139	0.637629
2.85981	0.513125
2.85823	0.476705
2.85666	0.458617
2.85508	0.33291
2.85351	0.334342
2.85194	0.451988
2.85038	0.589558
2.84881	0.523846
2.84724	0.451314
2.84568	0.451729
2.84412	0.452756
2.84256	0.525367
2.841	0.593761
2.83945	0.669492
2.83789	0.466009
2.83634	0.339305
2.83479	0.437785
2.83324	0.450047
2.83169	0.418995
2.83015	0.277637
2.82861	0.30999
2.82706	0.453712
2.82552	0.459384
2.82398	0.453056
2.82245	0.334652
2.82091	0.264692
2.81938	0.463014
2.81784	0.628152
2.81631	0.531054
2.81479	0.455462
2.81326	0.531315
2.81173	0.61118
2.81021	0.713099
2.80869	0.703685
2.80716	0.647049
2.80565	0.584933
2.80413	0.526289
2.80261	0.546838
2.8011	0.606805
2.79959	0.6732
2.79808	0.698759
2.79657	0.736324
2.79506	0.706118
2.79355	0.5632
2.79205	0.467244
2.79055	0.578023
2.78904	0.672329
2.78754	0.681226
2.78605	0.624667
2.78455	0.614227
2.78306	0.656717
2.78156	0.746112
2.78007	0.774908
2.77858	0.732063
2.77709	0.838752
2.77561	0.752886
2.77412	0.774661
2.77264	0.912802
2.77116	0.93665
2.76968	0.856056
2.7682	0.89998
2.76672	1.01675
2.76524	1.04857
2.76377	0.936554
2.7623	0.923425
2.76083	1.04628
2.75936	1.2033
2.75789	1.18302
2.75642	1.24432
2.75496	1.38372
2.7535	1.25487
2.75203	1.19736
2.75057	1.58118
2.74912	1.67911
2.74766	1.68629
2.7462	1.87739
2.74475	2.2702
2.7433	2.61179
2.74185	2.81078
2.7404	3.06882
2.73895	3.29707
2.7375	3.34381
2.73606	3.44209
2.73462	3.77279
2.73318	4.10815
2.73174	4.37802
2.7303	4.64317
2.72886	4.8944
2.72742	5.23212
2.72599	5.71401
2.72456	6.16583
2.72313	6.36019
2.7217	6.62106
2.72027	7.03927
2.71884	7.31942
2.71742	7.57828
2.71599	7.85747
2.71457	8.26889
2.71315	8.70013
2.71173	9.06849
2.71032	9.42047
2.7089	9.73227
2.70748	9.96144
2.70607	10.1642
2.70466	10.431
2.70325	10.8206
2.70184	11.2142
2.70043	11.4958
2.69903	11.6632
2.69762	11.8188
2.69622	12.1621
2.69482	12.6856
2.69342	12.9421
2.69202	12.9938
2.69062	13.1659
2.68923	13.4682
2.68783	13.7032
2.68644	13.8265
2.68505	14.0636
2.68366	14.346
2.68227	14.4669
2.68089	14.6256
2.6795	14.9848
2.67812	15.2532
2.67673	15.5063
2.67535	15.6793
2.67397	15.863
2.6726	16.1368
2.67122	16.511
2.66984	16.6463
2.66847	16.5321
2.6671	16.9682
2.66572	17.2623
2.66435	17.1852
2.66299	17.0122
2.66162	17.1573
2.66025	17.464
2.65889	17.816
2.65753	17.8731
2.65616	17.8748
2.65481	17.9998
2.65345	18.4025
2.65209	18.6329
2.65073	18.6219
2.64938	18.7176
2.64803	18.8765
2.64667	19.08
2.64532	19.2262
2.64397	19.3424
2.64263	19.5429
2.64128	19.6082
2.63994	19.6555
2.63859	19.7104
2.63725	19.93
2.63591	20.2621
2.63457	20.5739
2.63323	20.6319
2.6319	20.7453
2.63056	21.1049
2.62923	21.0384
2.62789	20.9466
2.62656	21.1813
2.62523	21.287
2.6239	21.3347
2.62258	21.3682
2.62125	21.6102
2.61993	21.7088
2.6186	21.6438
2.61728	21.9813
2.61596	22.0957
2.61464	21.9826
2.61332	22.1121
2.61201	22.213
2.61069	22.4183
2.60938	22.5985
2.60807	22.6633
2.60675	22.7757
2.60544	23.0505
2.60414	22.9389
2.60283	22.8517
2.60152	22.8375
2.60022	22.6401
2.59891	22.5606
2.59761	22.7989
2.59631	23.3932
2.59501	23.97
2.59371	23.5809
2.59242	23.1501
2.59112	23.1112
2.58983	23.1606
2.58853	23.2011
2.58724	23.3278
2.58595	23.2335
2.58466	23.3044
2.58338	23.4312
2.58209	23.3634
2.5808	23.3987
2.57952	23.2639
2.57824	23.2875
2.57695	23.3671
2.57567	23.3117
2.5744	23.3342
2.57312	23.3756
2.57184	23.1051
2.57057	23.1855
2.56929	23.2927
2.56802	23.1041
2.56675	23.0294
2.56548	23.0946
2.56421	23.1691
2.56294	23.0677
2.56168	23.0114
2.56041	22.9218
2.55915	22.7307
2.55789	22.5836
2.55662	22.5363
2.55536	22.5006
2.5541	22.3674
2.55285	22.233
2.55159	22.1068
2.55034	21.9871
2.54908	21.9123
2.54783	21.8383
2.54658	21.8503
2.54533	21.8826
2.54408	21.8334
2.54283	21.8243
2.54159	21.6402
2.54034	21.4518
2.5391	21.358
2.53785	21.337
2.53661	21.355
2.53537	21.2495
2.53413	21.2917
2.53289	21.2748
2.53166	21.2545
2.53042	21.3098
2.52919	21.261
2.52795	21.2215
2.52672	21.3081
2.52549	21.4497
2.52426	21.4184
2.52303	21.4421
2.52181	21.6719
2.52058	21.8271
2.51936	21.9592
2.51813	21.9835
2.51691	22.2264
2.51569	22.5103
2.51447	22.6513
2.51325	22.7518
2.51203	22.9615
2.51082	23.1154
2.5096	23.3032
2.50839	23.5735
2.50717	23.7877
2.50596	23.9073
2.50475	24.0914
2.50354	24.3049
2.50233	24.4956
2.50113	24.6111
2.49992	24.7968
2.49872	25.049
2.49751	25.2602
2.49631	25.3529
2.49511	25.5229
2.49391	25.7027
2.49271	25.9128
2.49151	26.1773
2.49031	26.2301
2.48912	26.3578
2.48792	26.5195
2.48673	26.6747
2.48554	26.8798
2.48435	27.1017
2.48316	27.2024
2.48197	27.3337
2.48078	27.485
2.4796	27.5464
2.47841	27.7148
2.47723	27.8236
2.47604	27.872
2.47486	28.0667
2.47368	28.2422
2.4725	28.3276
2.47132	28.5052
2.47014	28.7117
2.46897	28.8237
2.46779	29.059
2.46662	29.2585
2.46545	29.3161
2.46427	29.3542
2.4631	29.3105
2.46193	29.3487
2.46077	29.4691
2.4596	29.4905
2.45843	29.4972
2.45727	29.6983
2.4561	29.8958
2.45494	29.8921
2.45378	29.8472
2.45262	30.0003
2.45146	30.065
2.4503	30.0603
2.44914	30.0833
2.44799	30.1034
2.44683	30.1102
2.44568	30.2724
2.44452	30.3113
2.44337	30.2389
2.44222	30.3403
2.44107	30.5019
2.43992	30.5235
2.43877	30.4035
2.43763	30.395
2.43648	30.516
2.43534	30.6529
2.43419	30.7262
2.43305	30.8035
2.43191	30.8881
2.43077	30.894
2.42963	31.052
2.42849	31.2813
2.42736	31.4154
2.42622	31.4528
2.42509	31.5725
2.42395	31.6769
2.42282	31.8006
2.42169	31.9966
2.42056	32.0422
2.41943	32.2303
2.4183	32.4617
2.41717	32.5229
2.41605	32.6496
2.41492	32.7691
2.4138	32.9966
2.41267	33.2347
2.41155	33.4588
2.41043	33.6218
2.40931	33.6275
2.40819	33.5938
2.40707	33.8292
2.40595	34.1739
2.40484	34.3471
2.40372	34.5245
2.40261	34.8132
2.4015	35.0075
2.40039	35.0535
2.39928	35.123
2.39817	35.258
2.39706	35.3903
2.39595	35.3707
2.39484	35.5035
2.39374	35.8793
2.39263	36.1618
2.39153	36.5263
2.39043	36.7527
2.38932	36.8144
2.38822	36.9334
2.38712	37.0049
2.38603	37.1348
2.38493	37.2717
2.38383	37.4784
2.38274	37.6433
2.38164	37.8716
2.38055	38.0642
2.37946	38.1562
2.37836	38.274
2.37727	38.422
2.37618	38.6076
2.3751	38.7909
2.37401	38.8105
2.37292	38.9172
2.37184	39.1046
2.37075	39.1626
2.36967	39.1668
2.36859	39.2946
2.3675	39.4448
2.36642	39.5545
2.36534	39.6943
2.36427	39.6901
2.36319	39.7305
2.36211	39.7931
2.36104	39.8902
2.35996	40.0006
2.35889	39.9613
2.35781	40.0536
2.35674	40.1522
2.35567	40.1477
2.3546	40.2992
2.35353	40.4774
2.35247	40.4394
2.3514	40.3258
2.35033	40.4205
2.34927	40.6551
2.3482	40.6612
2.34714	40.6646
2.34608	40.6704
2.34502	40.6708
2.34396	40.7248
2.3429	40.7217
2.34184	40.7416
2.34078	40.8194
2.33973	40.7651
2.33867	40.6838
2.33762	40.8319
2.33656	41.0416
2.33551	41.0529
2.33446	40.9356
2.33341	40.8431
2.33236	40.7798
2.33131	40.8942
2.33026	40.9746
2.32922	41.0471
2.32817	41.0281
2.32712	41.0175
2.32608	41.1591
2.32504	41.1956
2.324	41.067
2.32295	41.0523
2.32191	41.1223
2.32087	41.0101
2.31984	40.9875
2.3188	41.1165
2.31776	41.1335
2.31673	41.0923
2.31569	41.0751
2.31466	41.0356
2.31362	41.1409
2.31259	41.181
2.31156	41.0987
2.31053	41.1713
2.3095	41.1478
2.30847	41.0048
2.30745	40.9218
2.30642	40.9467
2.3054	41.0338
2.30437	41.0849
2.30335	41.0682
2.30232	41.0795
2.3013	41.0124
2.30028	41.0992
2.29926	41.0875
2.29824	41.072
2.29722	41.1679
2.29621	41.0426
2.29519	40.9065
2.29417	41.0203
2.29316	41.0997
2.29215	41.1713
2.29113	41.0654
2.29012	40.94
2.28911	41.0818
2.2881	41.2048
2.28709	40.9847
2.28608	40.8342
2.28507	41.0354
2.28407	41.1101
2.28306	41.0363
2.28206	41.1029
2.28105	41.0678
2.28005	40.9871
2.27905	41.0107
2.27805	41.0342
2.27705	40.9827
2.27605	41.0099
2.27505	41.1767
2.27405	41.3178
2.27305	41.2787
2.27206	41.1602
2.27106	41.2154
2.27007	41.3135
2.26907	41.1686
2.26808	40.9956
2.26709	41.0648
2.2661	41.2636
2.26511	41.2717
2.26412	41.0958
2.26313	41.046
2.26214	41.0764
2.26116	41.1369
2.26017	41.129
2.25919	41.0204
2.2582	41.0268
2.25722	41.0851
2.25624	41.1868
2.25526	41.2843
2.25428	41.2792
2.2533	41.2913
2.25232	41.2629
2.25134	41.209
2.25036	41.3054
2.24939	41.297
2.24841	41.2234
2.24744	41.2146
2.24646	41.2318
2.24549	41.3371
2.24452	41.2441
2.24355	41.2252
2.24257	41.3924
2.24161	41.4278
2.24064	41.3788
2.23967	41.3036
2.2387	41.3905
2.23774	41.5101
2.23677	41.5003
2.23581	41.4712
2.23484	41.5087
2.23388	41.5424
2.23292	41.5589
2.23196	41.4941
2.231	41.5315
2.23004	41.5528
2.22908	41.6146
2.22812	41.6774
2.22716	41.7097
2.22621	41.6718
2.22525	41.7121
2.2243	41.7835
2.22334	41.8477
2.22239	41.849
2.22144	41.8371
2.22049	41.9053
2.21953	42.1183
2.21859	42.2535
2.21764	42.0812
2.21669	42.0428
2.21574	42.0702
2.21479	42.1297
2.21385	42.1963
2.2129	42.209
2.21196	42.4284
2.21102	42.4975
2.21007	42.2731
2.20913	42.1932
2.20819	42.241
2.20725	42.3295
2.20631	42.5387
2.20537	42.7266
2.20444	42.6938
2.2035	42.6905
2.20256	42.7955
2.20163	42.8603
2.20069	42.7326
2.19976	42.7003
2.19883	42.7576
2.19789	42.8398
2.19696	42.7525
2.19603	42.6038
2.1951	42.784
2.19417	42.8906
2.19325	42.856
2.19232	42.8786
2.19139	42.8684
2.19047	42.8654
2.18954	42.9018
2.18862	42.7072
2.18769	42.6268
2.18677	42.6554
2.18585	42.5299
2.18493	42.4977
2.18401	42.5536
2.18309	42.4807
2.18217	42.4002
2.18125	42.3656
2.18033	42.2479
2.17942	42.2
2.1785	42.0527
2.17759	41.9137
2.17667	41.8633
2.17576	41.7642
2.17485	41.7934
2.17393	41.8223
2.17302	41.6549
2.17211	41.4227
2.1712	41.2056
2.17029	41.1748
2.16939	41.0529
2.16848	40.6951
2.16757	40.5221
2.16667	40.3568
2.16576	40.3736
2.16486	40.4314
2.16395	40.1403
2.16305	40.0474
2.16215	39.9579
2.16125	39.8632
2.16035	39.9525
2.15945	39.8967
2.15855	39.7199
2.15765	39.618
2.15675	39.6848
2.15586	39.6809
2.15496	39.5523
2.15406	39.6376
2.15317	39.7109
2.15228	39.5836
2.15138	39.4481
2.15049	39.5495
2.1496	39.6343
2.14871	39.6217
2.14782	39.787
2.14693	40.099
2.14604	40.1248
2.14515	40.1257
2.14427	40.3389
2.14338	40.5438
2.14249	40.6466
2.14161	40.874
2.14072	40.9911
2.13984	40.9438
2.13896	41.1083
2.13808	41.2425
2.13719	41.432
2.13631	41.5961
2.13543	41.6936
2.13455	41.7483
2.13368	41.8068
2.1328	41.9377
2.13192	42.0357
2.13105	42.1363
2.13017	42.1249
2.1293	42.0856
2.12842	42.1489
2.12755	42.1464
2.12668	42.1284
2.1258	42.1392
2.12493	42.0879
2.12406	42.1241
2.12319	42.2522
2.12232	42.2803
2.12145	42.303
2.12059	42.3701
2.11972	42.395
2.11885	42.2085
2.11799	42.1601
2.11712	42.3419
2.11626	42.1279
2.1154	41.9474
2.11453	42.1002
2.11367	42.1018
2.11281	42.0578
2.11195	42.1239
2.11109	41.9798
2.11023	42.1281
2.10937	42.1365
2.10851	41.8734
2.10766	41.6818
2.1068	41.6008
2.10594	41.5743
2.10509	41.4922
2.10423	41.6754
2.10338	41.675
2.10253	41.5119
2.10168	41.5838
2.10082	41.8087
2.09997	41.9002
2.09912	41.9222
2.09827	41.9738
2.09742	41.6875
2.09658	41.4411
2.09573	41.4085
2.09488	41.6578
2.09404	41.8295
2.09319	41.7854
2.09235	41.6428
2.0915	41.7837
2.09066	41.8321
2.08982	41.8476
2.08897	41.744
2.08813	41.8957
2.08729	42.1146
2.08645	41.7808
2.08561	41.5445
2.08477	41.7727
2.08394	41.7333
2.0831	41.4755
2.08226	41.509
2.08143	41.4733
2.08059	41.4807
2.07976	41.694
2.07892	41.7725
2.07809	41.5714
2.07726	41.7142
2.07643	41.6463
2.07559	41.6213
2.07476	41.6701
2.07393	41.859
2.0731	41.798
2.07228	41.6455
2.07145	41.5581
2.07062	41.4637
2.06979	41.5927
2.06897	41.5329
2.06814	41.4425
2.06732	41.3107
2.06649	41.0277
2.06567	41.0626
2.06485	41.2751
2.06403	41.3257
2.0632	41.3386
2.06238	41.3137
2.06156	41.3143
2.06074	41.3102
2.05993	41.3083
2.05911	41.1413
2.05829	40.9885
2.05747	40.88
2.05666	40.9233
2.05584	40.9022
2.05503	41.0551
2.05421	41.0648
2.0534	40.5853
2.05259	40.6069
2.05177	40.8342
2.05096	40.8131
2.05015	40.9284
2.04934	41.0011
2.04853	40.8451
2.04772	40.9407
2.04691	40.9277
2.04611	40.8042
2.0453	40.5258
2.04449	40.3364
2.04369	40.5295
2.04288	40.5562
2.04208	40.4078
2.04127	40.435
2.04047	40.2296
2.03967	40.1023
2.03886	40.1849
2.03806	40.2499
2.03726	40.2727
2.03646	40.3757
2.03566	40.2902
2.03486	40.1568
2.03407	40.198
2.03327	40.2291
2.03247	40.0938
2.03167	39.9578
2.03088	39.8895
2.03008	39.9701
2.02929	39.8014
2.0285	39.8412
2.0277	39.9578
2.02691	39.8485
2.02612	39.8244
2.02533	39.6211
2.02453	39.4605
2.02374	39.3518
2.02295	39.516
2.02217	39.6786
2.02138	39.8466
2.02059	39.8576
2.0198	39.6365
2.01902	39.4975
2.01823	39.4151
2.01744	39.4218
2.01666	39.3487
2.01588	39.4177
2.01509	39.5475
2.01431	39.4413
2.01353	39.1079
2.01275	38.9645
2.01196	38.9566
2.01118	38.922
2.0104	39.0059
2.00963	39.147
2.00885	39.1148
2.00807	38.8994
2.00729	38.8192
2.00651	38.9607
2.00574	39.0337
2.00496	38.9254
2.00419	38.7414
2.00341	38.5528
2.00264	38.5507
2.00187	38.6131
2.00109	38.5135
2.00032	38.5243
