Name: Gypsum CaSO_4.2H_2O
Type: Mineral
Class: Sulfates
Subclass: 
Particle Size: 125-500um
Sample No.: SO-2B
Owner: JPL
Wavelength range: IR
Origin: USA, Utah
Collected by Ward's
Description: 





Measurement: Hemispherical reflectance
First Column: X
Second Column: Y
X Units:  Wavelength (micrometers)
Y Units:  Reflectance (percent)
First X Value: 15.3853
Last X Value: 2.00032
Number of X Values: 2256
Additional information: so02ba.txt
 
15.3853	2.41893
15.3397	2.80274
15.2945	2.81796
15.2495	3.10211
15.2048	3.54688
15.1603	4.05669
15.1161	4.52275
15.0722	5.68439
15.0285	7.20608
14.9851	8.65284
14.9419	9.73263
14.8989	10.705
14.8563	11.0405
14.8138	11.0769
14.7716	10.8314
14.7296	10.4208
14.6879	9.74584
14.6464	8.73803
14.6052	7.37566
14.5641	6.15038
14.5233	5.13806
14.4828	4.00197
14.4424	3.11282
14.4023	2.698
14.3624	2.36119
14.3227	2.09833
14.2833	1.823
14.244	1.64366
14.205	1.49198
14.1662	1.5819
14.1276	1.62374
14.0892	1.42564
14.051	1.34163
14.0131	1.62669
13.9753	1.5577
13.9377	1.44059
13.9004	1.52672
13.8632	1.62758
13.8262	1.54241
13.7895	1.52245
13.7529	1.61301
13.7165	1.51623
13.6803	1.36946
13.6443	1.58958
13.6085	1.64992
13.5729	1.64039
13.5374	1.62353
13.5022	1.65585
13.4671	1.6756
13.4322	1.77206
13.3975	1.92708
13.363	1.89503
13.3286	1.77924
13.2944	1.76061
13.2604	1.90682
13.2266	2.08364
13.193	1.94752
13.1595	1.78208
13.1262	1.76337
13.093	1.90408
13.06	2.01479
13.0272	2.04699
12.9946	2.09876
12.9621	2.1471
12.9298	2.11913
12.8976	2.16723
12.8656	2.12179
12.8337	2.11134
12.8021	2.16722
12.7705	2.21285
12.7391	2.21084
12.7079	2.2273
12.6769	2.28196
12.6459	2.40406
12.6152	2.41233
12.5845	2.43315
12.5541	2.33534
12.5238	2.32756
12.4936	2.37719
12.4635	2.41343
12.4337	2.33514
12.4039	2.31048
12.3743	2.37439
12.3448	2.44177
12.3155	2.4433
12.2863	2.54462
12.2573	2.58447
12.2284	2.47859
12.1996	2.39466
12.171	2.55044
12.1425	2.60744
12.1141	2.49246
12.0859	2.41252
12.0578	2.63146
12.0298	2.62499
12.0019	2.55358
11.9742	2.75285
11.9466	2.87515
11.9192	2.8356
11.8918	2.62239
11.8646	2.5785
11.8375	2.64466
11.8106	2.62814
11.7837	2.76005
11.757	2.85055
11.7304	2.77571
11.7039	2.77045
11.6776	2.8663
11.6513	2.88365
11.6252	2.91425
11.5992	2.91107
11.5733	2.95596
11.5475	2.94564
11.5219	2.83008
11.4963	2.82185
11.4709	2.85278
11.4455	2.8764
11.4203	2.91411
11.3952	2.99557
11.3702	3.08522
11.3454	3.08964
11.3206	3.12825
11.2959	3.02429
11.2714	2.96178
11.2469	3.0604
11.2226	3.127
11.1983	3.1004
11.1742	2.97968
11.1502	2.9162
11.1263	2.99643
11.1024	3.05317
11.0787	3.17023
11.0551	3.20211
11.0316	3.24379
11.0081	3.21111
10.9848	3.10278
10.9616	3.17246
10.9385	3.35616
10.9154	3.38254
10.8925	3.35773
10.8697	3.41857
10.8469	3.26943
10.8243	3.198
10.8017	3.33349
10.7793	3.2911
10.7569	3.28442
10.7346	3.33674
10.7125	3.24924
10.6904	3.2063
10.6684	3.38215
10.6465	3.50075
10.6247	3.44113
10.6029	3.43059
10.5813	3.46369
10.5597	3.50165
10.5383	3.63923
10.5169	3.68958
10.4956	3.63637
10.4744	3.61745
10.4533	3.59617
10.4323	3.50692
10.4113	3.54232
10.3904	3.62916
10.3697	3.73522
10.349	3.64496
10.3284	3.56413
10.3078	3.58129
10.2874	3.60273
10.267	3.72551
10.2467	3.90634
10.2265	3.96963
10.2064	3.89302
10.1863	3.86913
10.1663	3.80276
10.1464	3.86772
10.1266	3.8447
10.1069	3.81569
10.0872	3.89808
10.0676	3.95524
10.0481	4.05073
10.0287	4.10757
10.0093	4.10095
9.99005	4.02146
9.97084	4.00225
9.95169	4.1381
9.93263	4.282
9.91364	4.25353
9.89472	4.23057
9.87587	4.27178
9.8571	4.35114
9.83839	4.39637
9.81976	4.46355
9.80119	4.53369
9.78271	4.60958
9.76428	4.65796
9.74592	4.75116
9.72764	4.81363
9.70943	4.79592
9.69128	4.76595
9.6732	4.73939
9.65518	4.85981
9.63724	5.03548
9.61935	5.10785
9.60155	5.10651
9.5838	5.07503
9.56611	5.24344
9.5485	5.38373
9.53094	5.50084
9.51345	5.60363
9.49604	5.64676
9.47867	5.63749
9.46137	5.71745
9.44414	5.89931
9.42697	6.14001
9.40986	6.36588
9.39281	6.5076
9.37583	6.52422
9.35891	6.5895
9.34204	6.77911
9.32524	7.0076
9.3085	7.21792
9.29182	7.37687
9.27519	7.52252
9.25863	7.84174
9.24213	8.07575
9.22568	8.42856
9.2093	8.88811
9.19297	9.32526
9.17669	9.67775
9.16048	10.0062
9.14433	10.5351
9.12823	11.1941
9.11218	11.8575
9.0962	12.5699
9.08027	13.1927
9.06439	14.004
9.04858	15.1407
9.03281	16.3306
9.0171	17.6664
9.00145	18.9325
8.98585	20.1343
8.9703	21.0563
8.9548	21.8153
8.93937	22.5755
8.92398	23.2089
8.90865	23.8121
8.89337	24.4045
8.87814	24.9568
8.86296	25.6063
8.84784	26.315
8.83277	27.2172
8.81774	27.8891
8.80277	28.451
8.78786	29.3081
8.77298	30.1742
8.75816	30.8466
8.7434	31.3788
8.72868	31.8317
8.714	32.0981
8.69938	32.1051
8.68481	31.9608
8.67029	31.8337
8.65581	31.7134
8.64139	31.4557
8.62701	31.1388
8.61268	30.8361
8.5984	30.5899
8.58416	30.1682
8.56997	29.5315
8.55583	28.6812
8.54174	27.5063
8.52769	26.0394
8.51368	24.4895
8.49973	23.2048
8.48582	22.0886
8.47195	20.9539
8.45813	19.9621
8.44436	19.0607
8.43062	18.1887
8.41693	17.2038
8.4033	16.5343
8.3897	16.0936
8.37614	15.6452
8.36264	15.0803
8.34917	14.3074
8.33574	13.4389
8.32236	12.4578
8.30903	11.4498
8.29573	10.3964
8.28248	9.13014
8.26927	7.86637
8.2561	6.83718
8.24298	5.81342
8.2299	4.83794
8.21685	4.14024
8.20385	3.54008
8.19089	2.90752
8.17797	2.41226
8.16509	2.11093
8.15225	1.82961
8.13946	1.51034
8.1267	1.27913
8.11398	1.15698
8.10131	1.08556
8.08867	0.94307
8.07606	0.878248
8.0635	0.789362
8.05099	0.669484
8.0385	0.6861
8.02606	0.601012
8.01366	0.418313
8.00129	0.330049
7.98896	0.30613
7.97667	0.256744
7.96442	0.320756
7.9522	0.435324
7.94002	0.410234
7.92788	0.443799
7.91578	0.366818
7.90371	0.300977
7.89168	0.370905
7.87969	0.369912
7.86773	0.319308
7.85581	0.32945
7.84392	0.368988
7.83207	0.423411
7.82026	0.36737
7.80849	0.351051
7.79674	0.348512
7.78503	0.383794
7.77337	0.441325
7.76173	0.486647
7.75012	0.483839
7.73856	0.448625
7.72703	0.427871
7.71553	0.423761
7.70406	0.434541
7.69263	0.486841
7.68123	0.521279
7.66987	0.576623
7.65855	0.623551
7.64725	0.624714
7.63598	0.672663
7.62475	0.670789
7.61356	0.61464
7.60239	0.641277
7.59126	0.726079
7.58017	0.76688
7.5691	0.78928
7.55806	0.766466
7.54707	0.800873
7.5361	0.838754
7.52516	0.837585
7.51425	0.975666
7.50338	1.05098
7.49253	1.08055
7.48172	0.996944
7.47094	0.971247
7.46019	1.13166
7.44947	1.1395
7.43879	1.09624
7.42813	1.20797
7.4175	1.22143
7.4069	1.27005
7.39634	1.33513
7.3858	1.36153
7.37529	1.31286
7.36482	1.26645
7.35437	1.36803
7.34396	1.53177
7.33357	1.57438
7.32321	1.55335
7.31288	1.59406
7.30258	1.58175
7.29231	1.59047
7.28207	1.71214
7.27185	1.85429
7.26167	1.88822
7.25152	1.93722
7.24139	1.97254
7.23129	2.00328
7.22122	1.96577
7.21117	1.9334
7.20116	1.98189
7.19117	2.02756
7.18121	2.14105
7.17128	2.1634
7.16137	2.16663
7.1515	2.26201
7.14164	2.32451
7.13182	2.2713
7.12203	2.33512
7.11225	2.46075
7.10251	2.52251
7.0928	2.48263
7.08311	2.49693
7.07344	2.52898
7.06381	2.5711
7.0542	2.67847
7.04461	2.71152
7.03506	2.71766
7.02552	2.82036
7.01601	2.82659
7.00653	2.88039
6.99708	2.99537
6.98765	3.12511
6.97824	3.14106
6.96886	3.09311
6.95951	3.12398
6.95018	3.1478
6.94087	3.13406
6.9316	3.10406
6.92234	3.11812
6.91311	3.1987
6.90391	3.27537
6.89473	3.27668
6.88557	3.28797
6.87644	3.3049
6.86733	3.39157
6.85824	3.46271
6.84918	3.43578
6.84015	3.50272
6.83114	3.56689
6.82215	3.47119
6.81319	3.38855
6.80424	3.39166
6.79532	3.42351
6.78643	3.49295
6.77756	3.53372
6.76871	3.64117
6.75989	3.64597
6.75109	3.66577
6.74231	3.70331
6.73355	3.66228
6.72482	3.56203
6.71611	3.58646
6.70742	3.64344
6.69875	3.61576
6.69011	3.66974
6.68149	3.759
6.67289	3.65001
6.66431	3.53089
6.65576	3.58619
6.64722	3.66171
6.63871	3.76141
6.63022	3.73875
6.62175	3.62189
6.61331	3.60081
6.60488	3.55212
6.59648	3.48013
6.5881	3.44473
6.57974	3.40324
6.5714	3.3439
6.56308	3.30351
6.55478	3.33661
6.54651	3.35474
6.53825	3.28527
6.53001	3.27819
6.5218	3.3937
6.51361	3.32816
6.50544	3.29812
6.49729	3.37662
6.48915	3.34653
6.48104	3.28964
6.47295	3.23711
6.46488	3.21468
6.45683	3.2102
6.4488	3.20781
6.44079	3.24445
6.4328	3.31208
6.42482	3.32369
6.41687	3.35689
6.40894	3.37464
6.40103	3.30924
6.39314	3.27926
6.38526	3.26854
6.37741	3.25829
6.36957	3.20535
6.36176	3.1584
6.35396	3.14783
6.34618	3.25731
6.33843	3.29873
6.33069	3.24152
6.32297	3.16099
6.31527	3.22138
6.30758	3.27947
6.29992	3.20052
6.29227	3.22208
6.28465	3.2474
6.27704	3.27112
6.26945	3.36014
6.26188	3.30098
6.25432	3.28324
6.24679	3.30305
6.23927	3.35222
6.23177	3.42653
6.22429	3.41962
6.21683	3.52537
6.20938	3.70493
6.20195	3.83588
6.19454	4.04361
6.18715	4.4212
6.17978	4.72314
6.17242	4.77262
6.16508	4.66469
6.15776	4.35332
6.15045	3.68617
6.14317	2.90533
6.1359	2.35601
6.12864	2.06451
6.12141	1.83949
6.11419	1.74048
6.10699	1.69676
6.0998	1.7049
6.09263	1.78392
6.08549	1.84222
6.07835	1.92371
6.07123	2.01419
6.06413	2.08031
6.05705	2.14669
6.04998	2.31519
6.04293	2.28328
6.0359	2.21488
6.02888	2.24804
6.02187	2.40886
6.01489	2.55009
6.00792	2.49016
6.00096	2.41334
5.99403	2.36231
5.98711	2.35267
5.9802	2.2887
5.97331	2.26192
5.96644	2.27216
5.95958	2.24379
5.95274	2.17561
5.94591	2.121
5.9391	2.06138
5.9323	1.99815
5.92552	2.00764
5.91876	2.05575
5.91201	2.29638
5.90528	2.51029
5.89856	2.70335
5.89186	2.83369
5.88517	2.96629
5.8785	3.0478
5.87184	3.06478
5.8652	3.17961
5.85857	3.2114
5.85196	3.25923
5.84536	3.44612
5.83878	3.6236
5.83221	3.7139
5.82566	3.80796
5.81912	3.78738
5.81259	3.71672
5.80608	3.77336
5.79959	3.88234
5.79311	4.00021
5.78665	4.16011
5.78019	4.26102
5.77376	4.31811
5.76734	4.37623
5.76093	4.36221
5.75453	4.41378
5.74815	4.45725
5.74179	4.43835
5.73543	4.53338
5.7291	4.67544
5.72277	4.77028
5.71646	4.89992
5.71017	5.01862
5.70389	5.036
5.69762	5.07725
5.69136	5.14692
5.68513	5.2578
5.6789	5.39359
5.67268	5.53677
5.66648	5.61391
5.6603	5.7188
5.65413	5.75255
5.64797	5.79417
5.64182	5.94758
5.63569	6.10316
5.62957	6.15526
5.62347	6.16472
5.61737	6.17255
5.61129	6.23657
5.60522	6.37357
5.59917	6.48312
5.59313	6.54524
5.5871	6.61861
5.58109	6.75403
5.57509	6.81661
5.5691	6.83154
5.56312	6.89159
5.55716	6.97189
5.55121	7.07258
5.54528	7.22381
5.53935	7.33031
5.53344	7.50266
5.52754	7.69647
5.52166	7.79152
5.51578	7.92911
5.50992	8.09521
5.50407	8.25293
5.49823	8.38841
5.49241	8.54278
5.4866	8.69112
5.4808	8.82978
5.47501	8.98641
5.46923	9.12811
5.46347	9.21411
5.45772	9.21337
5.45198	9.27458
5.44625	9.37489
5.44054	9.44585
5.43484	9.46771
5.42914	9.56406
5.42347	9.78645
5.4178	9.8056
5.41214	9.80622
5.4065	9.82789
5.40087	9.86975
5.39525	9.95168
5.38964	9.96972
5.38404	9.9262
5.37846	9.95663
5.37288	9.99772
5.36732	10.0675
5.36177	10.1057
5.35623	10.1963
5.35071	10.2893
5.34519	10.3016
5.33968	10.3251
5.33419	10.3356
5.32871	10.3852
5.32324	10.4578
5.31778	10.4567
5.31233	10.4838
5.30689	10.5874
5.30147	10.6979
5.29605	10.6996
5.29065	10.7275
5.28525	10.7842
5.27987	10.8538
5.2745	10.9259
5.26914	10.8742
5.26379	10.8986
5.25845	10.9588
5.25312	11.0182
5.24781	11.1161
5.2425	11.1418
5.23721	11.1424
5.23192	11.1203
5.22665	11.1541
5.22138	11.2032
5.21613	11.1904
5.21089	11.2022
5.20566	11.1742
5.20044	11.1897
5.19522	11.2387
5.19002	11.153
5.18483	11.0654
5.17965	11.0316
5.17448	10.9528
5.16933	10.9222
5.16418	10.919
5.15904	10.8242
5.15391	10.8236
5.14879	10.8734
5.14368	10.7611
5.13859	10.6331
5.1335	10.5897
5.12842	10.5901
5.12335	10.5994
5.1183	10.5294
5.11325	10.4502
5.10821	10.4278
5.10318	10.4023
5.09817	10.4322
5.09316	10.4294
5.08816	10.4019
5.08317	10.4504
5.07819	10.4038
5.07322	10.3728
5.06826	10.3306
5.06331	10.2573
5.05837	10.1737
5.05344	10.1806
5.04852	10.2235
5.04361	10.2661
5.03871	10.2155
5.03382	10.1652
5.02894	10.1324
5.02406	10.1627
5.0192	10.2278
5.01435	10.19
5.0095	10.1778
5.00467	10.1938
4.99984	10.2125
4.99502	10.1275
4.99021	9.97783
4.98542	9.8299
4.98063	9.66771
4.97585	9.5569
4.97108	9.57991
4.96632	9.68987
4.96156	9.83314
4.95682	9.82672
4.95209	9.85049
4.94736	9.89473
4.94264	9.85539
4.93794	9.78078
4.93324	9.70227
4.92855	9.6359
4.92387	9.56187
4.9192	9.50033
4.91453	9.53724
4.90988	9.49208
4.90524	9.34155
4.9006	9.27846
4.89597	9.17356
4.89135	9.0441
4.88674	8.985
4.88214	8.95014
4.87755	8.80223
4.87296	8.69011
4.86839	8.63579
4.86382	8.5276
4.85926	8.402
4.85471	8.39327
4.85017	8.3212
4.84564	8.25925
4.84111	8.16699
4.8366	7.9491
4.83209	7.75393
4.82759	7.62699
4.8231	7.44666
4.81862	7.33147
4.81415	7.24265
4.80968	7.1019
4.80522	6.89997
4.80077	6.7183
4.79633	6.57509
4.7919	6.38247
4.78747	6.09823
4.78306	5.84378
4.77865	5.5041
4.77425	5.18039
4.76986	4.98389
4.76547	4.81233
4.7611	4.52379
4.75673	4.22113
4.75237	3.99816
4.74802	3.79792
4.74367	3.58647
4.73934	3.47482
4.73501	3.43622
4.73069	3.34257
4.72638	3.28775
4.72207	3.31602
4.71777	3.3404
4.71348	3.36128
4.7092	3.32027
4.70493	3.35248
4.70066	3.36554
4.69641	3.38102
4.69216	3.42502
4.68791	3.4235
4.68368	3.42451
4.67945	3.49534
4.67523	3.51162
4.67102	3.54411
4.66682	3.60485
4.66262	3.65216
4.65843	3.68309
4.65425	3.70909
4.65007	3.70475
4.64591	3.68613
4.64175	3.74663
4.6376	3.88072
4.63345	3.90881
4.62932	3.83464
4.62519	3.71372
4.62106	3.68938
4.61695	3.71098
4.61284	3.73773
4.60874	3.70693
4.60465	3.63773
4.60056	3.62447
4.59648	3.64024
4.59241	3.64724
4.58835	3.59863
4.58429	3.50317
4.58024	3.42527
4.5762	3.36372
4.57216	3.2321
4.56814	3.15558
4.56411	3.13761
4.5601	3.1645
4.55609	3.15445
4.55209	3.11446
4.5481	3.11998
4.54411	3.04268
4.54013	2.91255
4.53616	2.92102
4.5322	3.00951
4.52824	3.09164
4.52429	3.07698
4.52034	2.99277
4.51641	2.9623
4.51247	3.02146
4.50855	3.03364
4.50463	3.02799
4.50072	2.96888
4.49682	2.94683
4.49292	2.97513
4.48903	3.02671
4.48515	3.07551
4.48127	3.04854
4.4774	2.96991
4.47354	2.99706
4.46968	3.0829
4.46584	3.08452
4.46199	3.07347
4.45815	3.15348
4.45432	3.17759
4.4505	3.11457
4.44668	3.08487
4.44287	3.16331
4.43907	3.23134
4.43527	3.18922
4.43148	3.17046
4.4277	3.2791
4.42392	3.28819
4.42015	3.31419
4.41638	3.38844
4.41262	3.43766
4.40887	3.48987
4.40513	3.57027
4.40139	3.6549
4.39765	3.63964
4.39393	3.67337
4.39021	3.73772
4.38649	3.74261
4.38278	3.84186
4.37908	3.91881
4.37539	3.94941
4.3717	3.92992
4.36801	3.89553
4.36434	3.95575
4.36067	4.07264
4.357	4.21318
4.35335	4.29024
4.34969	4.28448
4.34605	4.34839
4.34241	4.36709
4.33877	4.41224
4.33514	4.50884
4.33152	4.58662
4.32791	4.67926
4.3243	4.76693
4.32069	4.91857
4.3171	5.08638
4.31351	5.16063
4.30992	5.22439
4.30634	5.32969
4.30277	5.4313
4.2992	5.67078
4.29564	5.91322
4.29208	6.00024
4.28853	6.11881
4.28499	6.28012
4.28145	6.4398
4.27792	6.57329
4.27439	6.70729
4.27087	6.86267
4.26735	7.07992
4.26384	7.32049
4.26034	7.46284
4.25684	7.55123
4.25335	7.68916
4.24986	7.88418
4.24638	8.04182
4.24291	8.19858
4.23944	8.3769
4.23598	8.52035
4.23252	8.70889
4.22906	8.86881
4.22562	9.07212
4.22218	9.28961
4.21874	9.4114
4.21531	9.53996
4.21189	9.70643
4.20847	9.88147
4.20506	10.0228
4.20165	10.1573
4.19825	10.4061
4.19485	10.5863
4.19146	10.7059
4.18807	10.8325
4.18469	10.9225
4.18132	11.0697
4.17795	11.2028
4.17458	11.3643
4.17123	11.5948
4.16787	11.8569
4.16453	12.0094
4.16118	12.0766
4.15785	12.2107
4.15451	12.3667
4.15119	12.5777
4.14787	12.7906
4.14455	13.0133
4.14124	13.1662
4.13794	13.2612
4.13464	13.3967
4.13134	13.5586
4.12805	13.6691
4.12477	13.7806
4.12149	13.9501
4.11822	14.172
4.11495	14.3624
4.11168	14.5735
4.10843	14.7163
4.10517	14.827
4.10192	15.0551
4.09868	15.2901
4.09545	15.4527
4.09221	15.6581
4.08899	15.8134
4.08576	15.9174
4.08255	16.0958
4.07933	16.2993
4.07613	16.4695
4.07292	16.6881
4.06973	16.9392
4.06654	17.114
4.06335	17.2522
4.06017	17.3961
4.05699	17.5871
4.05382	17.7731
4.05065	17.9054
4.04749	18.1474
4.04433	18.4949
4.04118	18.6301
4.03803	18.7406
4.03489	18.9433
4.03175	19.1381
4.02862	19.3073
4.02549	19.3541
4.02237	19.5332
4.01925	19.8075
4.01614	19.977
4.01303	20.0774
4.00993	20.2799
4.00683	20.4561
4.00373	20.5076
4.00064	20.6379
3.99756	20.68
3.99448	20.6969
3.9914	20.7484
3.98833	20.7039
3.98527	20.6007
3.98221	20.3812
3.97915	20.1551
3.9761	20.0332
3.97305	20.0081
3.97001	20.2311
3.96697	20.7401
3.96394	21.1923
3.96091	21.6063
3.95789	22.0413
3.95487	22.447
3.95186	22.7044
3.94885	22.9411
3.94584	23.1516
3.94284	23.3167
3.93984	23.5677
3.93685	23.827
3.93386	23.9815
3.93088	24.0905
3.9279	24.2598
3.92493	24.4768
3.92196	24.6452
3.919	24.7163
3.91604	24.8378
3.91308	24.9953
3.91013	24.9773
3.90718	25.0339
3.90424	25.1915
3.9013	25.2618
3.89837	25.3262
3.89544	25.3527
3.89252	25.3273
3.8896	25.2605
3.88668	25.1449
3.88377	24.951
3.88086	24.7171
3.87796	24.364
3.87506	24.0469
3.87217	24.043
3.86928	24.2745
3.86639	24.6915
3.86351	25.1063
3.86064	25.4817
3.85776	25.7832
3.8549	26.0058
3.85203	26.1941
3.84917	26.3
3.84631	26.4321
3.84346	26.5616
3.84062	26.5936
3.83777	26.6107
3.83494	26.6307
3.8321	26.6847
3.82927	26.7343
3.82644	26.8576
3.82362	26.8542
3.82081	26.7278
3.81799	26.7752
3.81518	26.8691
3.81238	26.9186
3.80958	26.8974
3.80678	26.8628
3.80399	26.816
3.8012	26.8076
3.79841	26.8154
3.79563	26.7675
3.79286	26.6609
3.79008	26.676
3.78731	26.7521
3.78455	26.7704
3.78179	26.7446
3.77903	26.7248
3.77628	26.7319
3.77353	26.7627
3.77079	26.7578
3.76805	26.7795
3.76531	26.7968
3.76258	26.7506
3.75985	26.6669
3.75713	26.6014
3.7544	26.6191
3.75169	26.6344
3.74898	26.6277
3.74627	26.6661
3.74356	26.6122
3.74086	26.448
3.73816	26.4186
3.73547	26.4514
3.73278	26.3411
3.7301	26.2418
3.72741	26.188
3.72474	26.2584
3.72206	26.2549
3.71939	26.2823
3.71673	26.3927
3.71406	26.3636
3.71141	26.282
3.70875	26.2577
3.7061	26.2354
3.70345	26.2107
3.70081	26.1912
3.69817	26.1654
3.69553	26.033
3.6929	25.9353
3.69027	25.8803
3.68765	25.8465
3.68503	25.8527
3.68241	25.7676
3.6798	25.6459
3.67719	25.6036
3.67458	25.5053
3.67198	25.346
3.66938	25.2458
3.66678	25.1653
3.66419	25.0382
3.66161	24.9225
3.65902	24.8557
3.65644	24.7969
3.65387	24.6179
3.65129	24.4932
3.64872	24.4886
3.64616	24.3995
3.64359	24.1661
3.64103	24.0288
3.63848	23.8994
3.63593	23.7776
3.63338	23.701
3.63084	23.6296
3.6283	23.4552
3.62576	23.2582
3.62322	23.1857
3.62069	23.2347
3.61817	23.1383
3.61564	22.9973
3.61312	22.8371
3.61061	22.6393
3.6081	22.4115
3.60559	22.2149
3.60308	22.0597
3.60058	21.9518
3.59808	21.8677
3.59558	21.7411
3.59309	21.582
3.59061	21.4604
3.58812	21.2942
3.58564	21.1177
3.58316	21.044
3.58069	21.03
3.57822	20.9054
3.57575	20.7469
3.57328	20.5936
3.57082	20.5718
3.56836	20.4672
3.56591	20.2722
3.56346	20.1787
3.56101	20.0949
3.55857	20.0312
3.55613	19.9469
3.55369	19.8185
3.55126	19.7146
3.54883	19.5985
3.5464	19.5993
3.54397	19.5721
3.54155	19.4391
3.53914	19.4276
3.53672	19.4689
3.53431	19.3988
3.5319	19.2532
3.5295	19.1616
3.5271	19.2085
3.5247	19.1718
3.52231	19.0139
3.51991	18.929
3.51753	18.8406
3.51514	18.7243
3.51276	18.7477
3.51038	18.7623
3.50801	18.6696
3.50563	18.4937
3.50327	18.4121
3.5009	18.2833
3.49854	18.2088
3.49618	18.1281
3.49382	18.0242
3.49147	17.9321
3.48912	17.7782
3.48677	17.7357
3.48443	17.669
3.48209	17.5599
3.47975	17.4111
3.47742	17.2697
3.47509	17.1865
3.47276	17.1216
3.47044	16.9948
3.46812	16.9157
3.4658	16.8046
3.46348	16.7201
3.46117	16.715
3.45886	16.5538
3.45656	16.4161
3.45425	16.386
3.45195	16.3392
3.44966	16.2649
3.44736	16.0916
3.44507	15.9336
3.44279	15.8383
3.4405	15.7004
3.43822	15.5802
3.43594	15.5293
3.43367	15.4488
3.43139	15.3696
3.42912	15.3227
3.42686	15.1378
3.42459	15.0101
3.42233	14.925
3.42007	14.778
3.41782	14.728
3.41557	14.6738
3.41332	14.5795
3.41108	14.4975
3.40883	14.3829
3.40659	14.3408
3.40435	14.2374
3.40212	14.008
3.39989	13.9008
3.39766	13.8377
3.39544	13.7047
3.39322	13.5256
3.391	13.3984
3.38878	13.2663
3.38657	13.1021
3.38436	13.0131
3.38215	12.9617
3.37994	12.8761
3.37774	12.7625
3.37554	12.5897
3.37335	12.465
3.37115	12.3425
3.36896	12.1343
3.36678	11.9945
3.36459	11.9865
3.36241	11.7667
3.36023	11.5376
3.35805	11.4666
3.35588	11.5074
3.35371	11.4166
3.35154	11.3317
3.34938	11.1904
3.34721	11.0959
3.34505	11.0486
3.3429	10.8844
3.34074	10.7882
3.33859	10.7833
3.33644	10.5943
3.3343	10.5481
3.33215	10.4805
3.33001	10.2541
3.32788	10.1773
3.32574	10.152
3.32361	10.0851
3.32148	9.93676
3.31936	9.75359
3.31723	9.66825
3.31511	9.67591
3.31299	9.60608
3.31088	9.45268
3.30876	9.3852
3.30665	9.25051
3.30455	9.02081
3.30244	8.93845
3.30034	8.85863
3.29824	8.73738
3.29614	8.56606
3.29405	8.38826
3.29196	8.34086
3.28987	8.30265
3.28778	8.31185
3.2857	8.22075
3.28362	8.06829
3.28154	8.00045
3.27946	7.89832
3.27739	7.79263
3.27532	7.69777
3.27325	7.6179
3.27119	7.64954
3.26913	7.60097
3.26707	7.54616
3.26501	7.55127
3.26295	7.48978
3.2609	7.3109
3.25885	7.13179
3.2568	7.11331
3.25476	7.11684
3.25272	7.16234
3.25068	7.09776
3.24864	6.83416
3.24661	6.77722
3.24458	6.87772
3.24255	6.88931
3.24052	6.66213
3.2385	6.57563
3.23648	6.69331
3.23446	6.61437
3.23244	6.51579
3.23043	6.51484
3.22841	6.47043
3.2264	6.47933
3.2244	6.39164
3.22239	6.12043
3.22039	6.0222
3.21839	6.11842
3.2164	6.18173
3.2144	6.12797
3.21241	6.16918
3.21042	6.07699
3.20844	6.01036
3.20645	6.0037
3.20447	5.87699
3.20249	5.82555
3.20051	5.84508
3.19854	5.72805
3.19657	5.67664
3.1946	5.66444
3.19263	5.65339
3.19067	5.6483
3.1887	5.6649
3.18674	5.55449
3.18479	5.39119
3.18283	5.31896
3.18088	5.23418
3.17893	5.20545
3.17698	5.32925
3.17504	5.23965
3.17309	5.1232
3.17115	5.20911
3.16921	5.26246
3.16728	5.13802
3.16534	5.04779
3.16341	4.92876
3.16148	4.8107
3.15956	4.78062
3.15763	4.88576
3.15571	4.8378
3.15379	4.80814
3.15187	4.86162
3.14996	4.82705
3.14805	4.68232
3.14614	4.54425
3.14423	4.57344
3.14232	4.61858
3.14042	4.51172
3.13852	4.48875
3.13662	4.51696
3.13472	4.40722
3.13283	4.25287
3.13094	4.2773
3.12905	4.33788
3.12716	4.3205
3.12528	4.36875
3.12339	4.35634
3.12151	4.29268
3.11964	4.19782
3.11776	4.19115
3.11589	4.27475
3.11401	4.22618
3.11214	4.17807
3.11028	4.23572
3.10841	4.24398
3.10655	4.16363
3.10469	4.11273
3.10283	4.25127
3.10098	4.32107
3.09912	4.12231
3.09727	3.9214
3.09542	3.9074
3.09358	4.00077
3.09173	4.03285
3.08989	4.00673
3.08805	3.93674
3.08621	3.84261
3.08437	3.76984
3.08254	3.80293
3.08071	3.86149
3.07888	3.80295
3.07705	3.70732
3.07523	3.60128
3.0734	3.52434
3.07158	3.60375
3.06977	3.65066
3.06795	3.70386
3.06613	3.67409
3.06432	3.581
3.06251	3.53
3.0607	3.62827
3.0589	3.76375
3.0571	3.70933
3.05529	3.69702
3.05349	3.67782
3.0517	3.57544
3.0499	3.57256
3.04811	3.64583
3.04632	3.6614
3.04453	3.60526
3.04274	3.62191
3.04096	3.68073
3.03918	3.6824
3.0374	3.63456
3.03562	3.61815
3.03384	3.6119
3.03207	3.6126
3.03029	3.64592
3.02852	3.5999
3.02676	3.65345
3.02499	3.72705
3.02323	3.69851
3.02146	3.63733
3.0197	3.52157
3.01795	3.46302
3.01619	3.53439
3.01444	3.62266
3.01269	3.73907
3.01094	3.6891
3.00919	3.56781
3.00744	3.48328
3.0057	3.51683
3.00396	3.58145
3.00222	3.56597
3.00048	3.67747
2.99875	3.66433
2.99701	3.65591
2.99528	3.72985
2.99355	3.79373
2.99183	3.80449
2.9901	3.7886
2.98838	3.82841
2.98666	3.76907
2.98494	3.62047
2.98322	3.63581
2.9815	3.74092
2.97979	3.80593
2.97808	3.91565
2.97637	3.84126
2.97466	3.76011
2.97295	3.87577
2.97125	4.01114
2.96955	4.14812
2.96785	4.3091
2.96615	4.35413
2.96446	4.29337
2.96276	4.31444
2.96107	4.3967
2.95938	4.46002
2.95769	4.64419
2.95601	4.7927
2.95432	4.85089
2.95264	4.89084
2.95096	4.98309
2.94928	5.01709
2.9476	5.06068
2.94593	5.31037
2.94425	5.57546
2.94258	5.65067
2.94092	5.68094
2.93925	5.80089
2.93758	5.85871
2.93592	5.89906
2.93426	5.98512
2.9326	5.98812
2.93094	5.92762
2.92928	5.89551
2.92763	5.65521
2.92598	5.45585
2.92433	5.27569
2.92268	5.04464
2.92103	4.7024
2.91939	4.33057
2.91775	4.11466
2.9161	3.8922
2.91447	3.56123
2.91283	3.13819
2.91119	2.94992
2.90956	2.90737
2.90793	2.75844
2.9063	2.61049
2.90467	2.47692
2.90304	2.37404
2.90142	2.36546
2.89979	2.20643
2.89817	1.89505
2.89656	1.86452
2.89494	2.04016
2.89332	2.05992
2.89171	1.99885
2.8901	1.97754
2.88849	1.78768
2.88688	1.7497
2.88527	1.83567
2.88367	1.81718
2.88206	1.91703
2.88046	1.92068
2.87886	1.84186
2.87727	1.71428
2.87567	1.65035
2.87408	1.71814
2.87248	1.79216
2.87089	1.74465
2.8693	1.70919
2.86772	1.70372
2.86613	1.73069
2.86455	1.64064
2.86297	1.5308
2.86139	1.56791
2.85981	1.68949
2.85823	1.68822
2.85666	1.47124
2.85508	1.3668
2.85351	1.46132
2.85194	1.52822
2.85038	1.59559
2.84881	1.63212
2.84724	1.59105
2.84568	1.56
2.84412	1.60951
2.84256	1.59502
2.841	1.63154
2.83945	1.78816
2.83789	1.86028
2.83634	1.91766
2.83479	1.91837
2.83324	1.8184
2.83169	1.92893
2.83015	1.96576
2.82861	1.88387
2.82706	1.94381
2.82552	1.99365
2.82398	1.81098
2.82245	1.74546
2.82091	1.79359
2.81938	1.76849
2.81784	1.79205
2.81631	1.90118
2.81479	1.96208
2.81326	1.85247
2.81173	1.91747
2.81021	1.94193
2.80869	1.771
2.80716	1.7951
2.80565	1.96837
2.80413	2.00759
2.80261	1.85441
2.8011	1.80179
2.79959	1.82424
2.79808	1.88269
2.79657	1.91414
2.79506	1.80813
2.79355	1.92122
2.79205	1.98878
2.79055	1.9763
2.78904	1.91469
2.78754	1.85746
2.78605	1.84894
2.78455	1.80125
2.78306	1.77954
2.78156	1.81683
2.78007	1.88434
2.77858	1.90079
2.77709	1.97205
2.77561	2.01085
2.77412	2.01075
2.77264	2.03851
2.77116	1.97904
2.76968	1.9764
2.7682	2.06883
2.76672	2.0934
2.76524	2.11946
2.76377	2.21206
2.7623	2.25794
2.76083	2.32259
2.75936	2.39513
2.75789	2.35054
2.75642	2.28859
2.75496	2.40371
2.7535	2.55357
2.75203	2.57778
2.75057	2.59666
2.74912	2.7039
2.74766	2.79938
2.7462	2.98257
2.74475	3.14728
2.7433	3.18799
2.74185	3.32455
2.7404	3.46859
2.73895	3.39293
2.7375	3.2124
2.73606	3.27707
2.73462	3.46026
2.73318	3.57411
2.73174	3.77464
2.7303	3.77312
2.72886	3.6952
2.72742	3.73038
2.72599	3.9294
2.72456	4.0736
2.72313	4.14498
2.7217	4.28388
2.72027	4.34503
2.71884	4.36207
2.71742	4.58072
2.71599	4.62591
2.71457	4.58956
2.71315	4.71994
2.71173	4.98655
2.71032	5.19792
2.7089	5.19874
2.70748	5.31483
2.70607	5.34403
2.70466	5.30865
2.70325	5.44855
2.70184	5.57182
2.70043	5.74187
2.69903	5.95598
2.69762	6.18539
2.69622	6.31655
2.69482	6.37259
2.69342	6.41206
2.69202	6.39132
2.69062	6.48917
2.68923	6.69448
2.68783	6.77884
2.68644	6.77173
2.68505	6.81114
2.68366	6.90961
2.68227	6.97805
2.68089	7.11229
2.6795	7.38789
2.67812	7.57855
2.67673	7.68282
2.67535	7.56642
2.67397	7.43967
2.6726	7.59003
2.67122	7.82769
2.66984	7.88435
2.66847	8.07656
2.6671	8.39768
2.66572	8.54595
2.66435	8.48914
2.66299	8.41003
2.66162	8.56934
2.66025	8.73304
2.65889	8.70803
2.65753	8.76367
2.65616	8.91672
2.65481	8.96358
2.65345	9.11076
2.65209	9.1302
2.65073	9.24274
2.64938	9.53949
2.64803	9.75845
2.64667	9.80377
2.64532	9.75753
2.64397	9.81409
2.64263	9.99591
2.64128	10.0765
2.63994	10.0714
2.63859	9.96708
2.63725	9.97383
2.63591	10.086
2.63457	10.2335
2.63323	10.3756
2.6319	10.3651
2.63056	10.4574
2.62923	10.4872
2.62789	10.5537
2.62656	10.7205
2.62523	10.6411
2.6239	10.5696
2.62258	10.5555
2.62125	10.6651
2.61993	10.7481
2.6186	10.6547
2.61728	10.7307
2.61596	10.7325
2.61464	10.7295
2.61332	10.732
2.61201	10.6862
2.61069	10.9406
2.60938	11.1573
2.60807	11.1609
2.60675	11.0723
2.60544	11.0989
2.60414	10.978
2.60283	10.7729
2.60152	10.9891
2.60022	11.0473
2.59891	10.9468
2.59761	11.0727
2.59631	11.3011
2.59501	11.5198
2.59371	11.3462
2.59242	11.2051
2.59112	11.1791
2.58983	11.2466
2.58853	11.3833
2.58724	11.3003
2.58595	11.1554
2.58466	11.1666
2.58338	11.2647
2.58209	11.1855
2.5808	10.9823
2.57952	11.0289
2.57824	11.2239
2.57695	11.1703
2.57567	11.0446
2.5744	11.1479
2.57312	11.1711
2.57184	11.1882
2.57057	11.3144
2.56929	11.278
2.56802	11.1593
2.56675	11.1105
2.56548	11.2375
2.56421	11.4581
2.56294	11.5143
2.56168	11.4224
2.56041	11.3138
2.55915	11.3324
2.55789	11.4178
2.55662	11.4664
2.55536	11.5452
2.5541	11.4795
2.55285	11.3648
2.55159	11.4823
2.55034	11.6291
2.54908	11.7121
2.54783	11.8359
2.54658	11.7359
2.54533	11.7294
2.54408	11.8759
2.54283	11.7911
2.54159	11.8138
2.54034	11.8878
2.5391	11.8703
2.53785	11.8898
2.53661	11.9043
2.53537	11.8596
2.53413	11.7645
2.53289	11.8445
2.53166	11.9792
2.53042	12.0271
2.52919	11.9504
2.52795	11.8771
2.52672	11.8899
2.52549	11.7882
2.52426	11.7155
2.52303	11.7298
2.52181	11.6961
2.52058	11.6219
2.51936	11.7134
2.51813	11.7104
2.51691	11.5775
2.51569	11.5245
2.51447	11.3356
2.51325	11.1954
2.51203	11.1058
2.51082	11.2063
2.5096	11.3454
2.50839	11.3288
2.50717	11.0938
2.50596	11.0677
2.50475	11.0605
2.50354	11.0337
2.50233	11.0662
2.50113	11.0672
2.49992	11.0491
2.49872	11.0069
2.49751	10.7441
2.49631	10.6033
2.49511	10.587
2.49391	10.6495
2.49271	10.5988
2.49151	10.5783
2.49031	10.6081
2.48912	10.5388
2.48792	10.5392
2.48673	10.5546
2.48554	10.4805
2.48435	10.5672
2.48316	10.5923
2.48197	10.5931
2.48078	10.719
2.4796	10.7507
2.47841	10.627
2.47723	10.6125
2.47604	10.6205
2.47486	10.6606
2.47368	10.8431
2.4725	10.8732
2.47132	10.8427
2.47014	10.9324
2.46897	11.0624
2.46779	11.1865
2.46662	11.3014
2.46545	11.3085
2.46427	11.2972
2.4631	11.3724
2.46193	11.5844
2.46077	11.7856
2.4596	11.8271
2.45843	11.899
2.45727	12.0435
2.4561	12.1804
2.45494	12.2786
2.45378	12.2145
2.45262	12.0882
2.45146	12.1082
2.4503	12.117
2.44914	12.1355
2.44799	12.3434
2.44683	12.3968
2.44568	12.3368
2.44452	12.5554
2.44337	12.6482
2.44222	12.4409
2.44107	12.4952
2.43992	12.6496
2.43877	12.7622
2.43763	12.6534
2.43648	12.6583
2.43534	12.7083
2.43419	12.7236
2.43305	12.8447
2.43191	13.0041
2.43077	13.155
2.42963	13.1459
2.42849	13.2241
2.42736	13.4115
2.42622	13.4823
2.42509	13.6022
2.42395	13.6872
2.42282	13.4712
2.42169	13.6839
2.42056	14.0708
2.41943	14.2708
2.4183	14.2287
2.41717	14.1071
2.41605	14.2381
2.41492	14.594
2.4138	14.7845
2.41267	14.8358
2.41155	14.9923
2.41043	15.0966
2.40931	15.4476
2.40819	15.7649
2.40707	15.8925
2.40595	16.0826
2.40484	16.4237
2.40372	16.718
2.40261	16.963
2.4015	17.2026
2.40039	17.5181
2.39928	17.7897
2.39817	18.2106
2.39706	18.6294
2.39595	19.0513
2.39484	19.3672
2.39374	19.7479
2.39263	20.249
2.39153	20.5413
2.39043	20.8842
2.38932	21.3837
2.38822	21.7662
2.38712	21.9895
2.38603	22.2904
2.38493	22.64
2.38383	23.0171
2.38274	23.4482
2.38164	23.8556
2.38055	24.2285
2.37946	24.4489
2.37836	24.6982
2.37727	25.1271
2.37618	25.411
2.3751	25.6225
2.37401	25.8713
2.37292	26.1572
2.37184	26.6368
2.37075	27.0484
2.36967	27.2013
2.36859	27.3369
2.3675	27.7378
2.36642	28.0089
2.36534	28.1387
2.36427	28.3496
2.36319	28.6263
2.36211	28.8511
2.36104	29.1635
2.35996	29.4281
2.35889	29.5413
2.35781	29.8317
2.35674	30.1104
2.35567	30.1995
2.3546	30.4179
2.35353	30.6018
2.35247	30.8585
2.3514	31.1554
2.35033	31.2069
2.34927	31.3522
2.3482	31.5577
2.34714	31.5721
2.34608	31.7303
2.34502	32.121
2.34396	32.2768
2.3429	32.2036
2.34184	32.2645
2.34078	32.5177
2.33973	32.6668
2.33867	32.7906
2.33762	33.0182
2.33656	33.1514
2.33551	33.3146
2.33446	33.6034
2.33341	33.6663
2.33236	33.683
2.33131	33.734
2.33026	33.7902
2.32922	33.8778
2.32817	34.0437
2.32712	34.159
2.32608	34.1735
2.32504	34.2108
2.324	34.2313
2.32295	34.1718
2.32191	34.1699
2.32087	34.2251
2.31984	34.2749
2.3188	34.3733
2.31776	34.4185
2.31673	34.2934
2.31569	34.1779
2.31466	34.2451
2.31362	34.2898
2.31259	34.2732
2.31156	34.2892
2.31053	34.5489
2.3095	34.6274
2.30847	34.5009
2.30745	34.4074
2.30642	34.2913
2.3054	34.4195
2.30437	34.4939
2.30335	34.3937
2.30232	34.3139
2.3013	34.3245
2.30028	34.2384
2.29926	34.185
2.29824	34.114
2.29722	34.058
2.29621	34.0908
2.29519	34.1014
2.29417	34.035
2.29316	33.9309
2.29215	33.8291
2.29113	33.7195
2.29012	33.6895
2.28911	33.6242
2.2881	33.5125
2.28709	33.3432
2.28608	33.1249
2.28507	33.0393
2.28407	33.0116
2.28306	32.884
2.28206	32.6533
2.28105	32.2773
2.28005	32.0699
2.27905	31.988
2.27805	31.7652
2.27705	31.5532
2.27605	31.3486
2.27505	31.0777
2.27405	30.6659
2.27305	30.4682
2.27206	30.4834
2.27106	30.2867
2.27007	30.0453
2.26907	30.0175
2.26808	30.0636
2.26709	30.0395
2.2661	30.1134
2.26511	30.3511
2.26412	30.3831
2.26313	30.502
2.26214	30.6209
2.26116	30.7039
2.26017	30.9842
2.25919	31.3338
2.2582	31.4557
2.25722	31.5145
2.25624	31.6013
2.25526	31.7662
2.25428	31.8701
2.2533	31.8866
2.25232	32.005
2.25134	32.061
2.25036	32.0245
2.24939	32.0507
2.24841	31.953
2.24744	31.9869
2.24646	32.0928
2.24549	32.1015
2.24452	32.0402
2.24355	31.9007
2.24257	31.9095
2.24161	31.9167
2.24064	31.8593
2.23967	31.8236
2.2387	31.8019
2.23774	31.8466
2.23677	31.7729
2.23581	31.5461
2.23484	31.4637
2.23388	31.3809
2.23292	31.0718
2.23196	30.7754
2.231	30.5781
2.23004	30.5013
2.22908	30.3311
2.22812	30.085
2.22716	29.7387
2.22621	29.4014
2.22525	29.1582
2.2243	28.9124
2.22334	28.6381
2.22239	28.3865
2.22144	28.1669
2.22049	28.0532
2.21953	27.9673
2.21859	28.0171
2.21764	28.1193
2.21669	28.1914
2.21574	28.3595
2.21479	28.4723
2.21385	28.5943
2.2129	28.6728
2.21196	28.7273
2.21102	28.9415
2.21007	29.2223
2.20913	29.2829
2.20819	29.3353
2.20725	29.5541
2.20631	29.7486
2.20537	29.7528
2.20444	29.8449
2.2035	29.9309
2.20256	30.0064
2.20163	30.301
2.20069	30.5813
2.19976	30.6789
2.19883	30.7643
2.19789	30.8944
2.19696	30.9828
2.19603	31.1721
2.1951	31.2452
2.19417	31.0853
2.19325	31.2865
2.19232	31.4965
2.19139	31.3556
2.19047	31.3838
2.18954	31.4972
2.18862	31.6167
2.18769	31.7467
2.18677	31.6353
2.18585	31.5734
2.18493	31.6579
2.18401	31.7623
2.18309	31.8747
2.18217	31.8198
2.18125	31.7898
2.18033	31.754
2.17942	31.8086
2.1785	31.9154
2.17759	32.0271
2.17667	32.1246
2.17576	32.1955
2.17485	32.2215
2.17393	32.2279
2.17302	32.2233
2.17211	32.356
2.1712	32.4684
2.17029	32.6625
2.16939	33.0485
2.16848	33.1192
2.16757	33.0364
2.16667	33.1383
2.16576	33.1042
2.16486	33.1337
2.16395	33.3677
2.16305	33.5484
2.16215	33.7239
2.16125	33.8849
2.16035	34.1173
2.15945	34.2433
2.15855	34.2437
2.15765	34.393
2.15675	34.8053
2.15586	35.013
2.15496	34.7823
2.15406	34.7306
2.15317	35.0132
2.15228	35.1336
2.15138	35.1802
2.15049	35.3928
2.1496	35.4346
2.14871	35.5175
2.14782	35.487
2.14693	35.5533
2.14604	35.9724
2.14515	36.1986
2.14427	36.2104
2.14338	36.3273
2.14249	36.4904
2.14161	36.5754
2.14072	36.6505
2.13984	36.7158
2.13896	36.7258
2.13808	36.918
2.13719	37.0572
2.13631	37.1435
2.13543	37.1237
2.13455	37.1788
2.13368	37.3292
2.1328	37.4528
2.13192	37.5359
2.13105	37.7429
2.13017	37.774
2.1293	37.8099
2.12842	37.9003
2.12755	37.932
2.12668	37.9274
2.1258	38.0537
2.12493	38.1854
2.12406	38.2917
2.12319	38.4819
2.12232	38.7258
2.12145	38.8596
2.12059	38.9527
2.11972	39.1235
2.11885	39.3309
2.11799	39.6078
2.11712	39.5646
2.11626	39.7264
2.1154	40.1745
2.11453	40.1738
2.11367	39.9598
2.11281	40.042
2.11195	40.24
2.11109	40.3702
2.11023	40.7064
2.10937	40.9653
2.10851	40.9684
2.10766	41.0838
2.1068	41.4336
2.10594	41.4128
2.10509	41.3993
2.10423	41.5572
2.10338	41.6895
2.10253	41.731
2.10168	41.9867
2.10082	42.2942
2.09997	42.4113
2.09912	42.3852
2.09827	42.7145
2.09742	42.7736
2.09658	42.9738
2.09573	43.2513
2.09488	43.1776
2.09404	43.2586
2.09319	43.1579
2.09235	43.0372
2.0915	43.2952
2.09066	43.4064
2.08982	43.4458
2.08897	43.8003
2.08813	44.2032
2.08729	44.2896
2.08645	44.1416
2.08561	43.9967
2.08477	44.2821
2.08394	44.397
2.0831	44.2593
2.08226	44.453
2.08143	44.5074
2.08059	44.1548
2.07976	44.085
2.07892	44.5207
2.07809	44.6844
2.07726	44.7215
2.07643	44.9087
2.07559	44.8951
2.07476	44.767
2.07393	44.8302
2.0731	45.0796
2.07228	45.1562
2.07145	44.8029
2.07062	44.3805
2.06979	44.4086
2.06897	44.3909
2.06814	44.2816
2.06732	44.4117
2.06649	44.5682
2.06567	44.5714
2.06485	44.4153
2.06403	44.5664
2.0632	44.805
2.06238	44.9233
2.06156	44.9997
2.06074	45.1082
2.05993	45.1416
2.05911	45.0845
2.05829	44.8801
2.05747	44.8433
2.05666	44.7346
2.05584	44.7972
2.05503	45.1672
2.05421	44.8084
2.0534	44.7776
2.05259	45.1176
2.05177	44.8571
2.05096	44.7512
2.05015	44.7622
2.04934	44.6136
2.04853	44.7615
2.04772	44.8983
2.04691	44.6626
2.04611	44.5374
2.0453	44.4955
2.04449	44.3964
2.04369	44.0708
2.04288	43.9457
2.04208	43.9424
2.04127	43.9163
2.04047	43.8429
2.03967	43.5326
2.03886	43.2801
2.03806	43.2664
2.03726	43.3119
2.03646	43.2684
2.03566	43.1687
2.03486	42.8712
2.03407	42.5993
2.03327	42.4769
2.03247	42.1744
2.03167	41.7558
2.03088	41.3366
2.03008	41.6342
2.02929	41.8587
2.0285	41.7603
2.0277	41.6595
2.02691	41.6618
2.02612	41.3938
2.02533	40.7403
2.02453	40.3372
2.02374	40.6583
2.02295	40.6564
2.02217	39.8476
2.02138	39.0028
2.02059	39.1274
2.0198	39.5236
2.01902	38.9716
2.01823	38.5853
2.01744	38.2837
2.01666	37.6348
2.01588	37.0917
2.01509	36.9634
2.01431	36.8427
2.01353	36.3989
2.01275	35.9177
2.01196	35.7927
2.01118	35.2553
2.0104	34.8028
2.00963	34.6637
2.00885	34.2552
2.00807	33.5654
2.00729	33.11
2.00651	32.4475
2.00574	31.7597
2.00496	31.3253
2.00419	30.9443
2.00341	30.3575
2.00264	29.6046
2.00187	29.1237
2.00109	28.5641
2.00032	27.6964
