Name: Quartzite
Type: Rock
Class: Metamorphic
Subclass:  Quartzite 
Particle Size: Solid surface
Sample No.: Ward93.txt
Owner: JPL
Wavelength range:  VNIR SWIR IR 
Origin: Ward's Collection of American Rocks.  Sample locality - Ableman, Sauk County, Wisconsin.  Collected by - JPL.
Collected by:  Ward's Natural Science
Description: A fine crystalline, purplish quartz rock.  
Geologic age - Pre-Cambrian




Measurement: Hemispherical reflectance
First Column: X
Second Column: Y
X Units: Wavelength (micrometers)
Y Units: Reflectance (percent)
First X Value: 2.500
Last X Value: 0.400
Number of X Values: 2101
Additional information: None

2.500  10.995011
2.499  10.807197
2.498  10.829950
2.497  11.174885
2.496  10.284576
2.495  11.106151
2.494  10.900796
2.493  11.046440
2.492  10.712992
2.491  10.956392
2.490  10.769799
2.489  11.168182
2.488  10.973764
2.487  11.092857
2.486  10.964749
2.485  11.134656
2.484  11.113150
2.483  11.242449
2.482  11.041448
2.481  11.297702
2.480  11.242750
2.479  11.330211
2.478  11.140368
2.477  11.300512
2.476  11.133424
2.475  11.466836
2.474  11.285401
2.473  11.431233
2.472  11.250083
2.471  11.567949
2.470  11.317397
2.469  11.526674
2.468  11.478556
2.467  11.772728
2.466  11.449436
2.465  11.692373
2.464  11.684203
2.463  11.718398
2.462  11.352981
2.461  11.616398
2.460  11.483925
2.459  11.621902
2.458  11.530509
2.457  11.653409
2.456  11.489700
2.455  11.652836
2.454  11.515470
2.453  11.663290
2.452  11.427635
2.451  11.558865
2.450  11.596761
2.449  11.669296
2.448  11.726084
2.447  11.821979
2.446  11.602396
2.445  11.688426
2.444  11.573205
2.443  11.670461
2.442  11.541883
2.441  11.653006
2.440  11.611673
2.439  11.777655
2.438  11.629803
2.437  11.630962
2.436  11.636458
2.435  11.736765
2.434  11.581112
2.433  11.710137
2.432  11.682307
2.431  11.733093
2.430  11.693916
2.429  11.684136
2.428  11.716264
2.427  11.725460
2.426  11.593750
2.425  11.672729
2.424  11.561929
2.423  11.732487
2.422  11.626118
2.421  11.782599
2.420  11.697735
2.419  11.740548
2.418  11.753488
2.417  11.763048
2.416  11.786295
2.415  11.829008
2.414  11.873467
2.413  11.867364
2.412  11.757904
2.411  11.960263
2.410  11.872914
2.409  11.827948
2.408  11.887429
2.407  11.973294
2.406  11.821817
2.405  11.935953
2.404  11.947941
2.403  11.891652
2.402  11.869990
2.401  11.874421
2.400  11.879819
2.399  11.926149
2.398  11.903473
2.397  11.857304
2.396  11.854757
2.395  11.908307
2.394  11.905191
2.393  11.928422
2.392  11.915587
2.391  11.970608
2.390  11.961735
2.389  11.971460
2.388  11.933017
2.387  11.918393
2.386  11.936225
2.385  12.002688
2.384  12.040974
2.383  12.015053
2.382  12.036982
2.381  12.147282
2.380  12.128899
2.379  12.139045
2.378  12.171612
2.377  12.271365
2.376  12.210327
2.375  12.273028
2.374  12.207369
2.373  12.245890
2.372  12.259077
2.371  12.302572
2.370  12.314075
2.369  12.322241
2.368  12.324875
2.367  12.411916
2.366  12.401616
2.365  12.360613
2.364  12.398589
2.363  12.373494
2.362  12.325642
2.361  12.274509
2.360  12.247257
2.359  12.312010
2.358  12.312518
2.357  12.315617
2.356  12.353580
2.355  12.322001
2.354  12.313853
2.353  12.269589
2.352  12.273935
2.351  12.227942
2.350  12.237978
2.349  12.292890
2.348  12.284742
2.347  12.286024
2.346  12.240245
2.345  12.248679
2.344  12.342056
2.343  12.317500
2.342  12.298718
2.341  12.301148
2.340  12.311674
2.339  12.256251
2.338  12.275623
2.337  12.288915
2.336  12.329296
2.335  12.278171
2.334  12.234004
2.333  12.272925
2.332  12.242600
2.331  12.212326
2.330  12.253140
2.329  12.197281
2.328  12.176258
2.327  12.120961
2.326  12.123395
2.325  12.053228
2.324  12.014985
2.323  12.013267
2.322  12.073343
2.321  11.977559
2.320  11.954273
2.319  11.953421
2.318  11.977355
2.317  11.959506
2.316  12.007488
2.315  11.975123
2.314  12.034956
2.313  11.991060
2.312  12.048226
2.311  12.053229
2.310  12.095571
2.309  12.109017
2.308  12.125209
2.307  12.138774
2.306  12.237082
2.305  12.268195
2.304  12.347648
2.303  12.270185
2.302  12.376556
2.301  12.354821
2.300  12.388067
2.299  12.394254
2.298  12.485542
2.297  12.453342
2.296  12.528044
2.295  12.536706
2.294  12.532274
2.293  12.531132
2.292  12.616633
2.291  12.541965
2.290  12.561111
2.289  12.593282
2.288  12.702360
2.287  12.563473
2.286  12.686776
2.285  12.697048
2.284  12.769383
2.283  12.775442
2.282  12.866001
2.281  12.774443
2.280  12.811278
2.279  12.794415
2.278  12.915389
2.277  12.854944
2.276  12.918954
2.275  12.882699
2.274  13.004932
2.273  12.900632
2.272  13.032331
2.271  12.994345
2.270  13.060247
2.269  12.963679
2.268  13.077637
2.267  13.063622
2.266  13.110672
2.265  13.085607
2.264  13.166691
2.263  13.230918
2.262  13.204437
2.261  13.187631
2.260  13.176114
2.259  13.183070
2.258  13.272685
2.257  13.209773
2.256  13.260950
2.255  13.205850
2.254  13.314955
2.253  13.264701
2.252  13.346802
2.251  13.258923
2.250  13.317128
2.249  13.336945
2.248  13.365268
2.247  13.321495
2.246  13.444015
2.245  13.347756
2.244  13.329678
2.243  13.284885
2.242  13.451373
2.241  13.369524
2.240  13.502504
2.239  13.453055
2.238  13.476210
2.237  13.394579
2.236  13.534853
2.235  13.370125
2.234  13.431011
2.233  13.389748
2.232  13.460491
2.231  13.462392
2.230  13.481526
2.229  13.429657
2.228  13.497003
2.227  13.451611
2.226  13.488430
2.225  13.337994
2.224  13.534019
2.223  13.401601
2.222  13.442604
2.221  13.387247
2.220  13.404086
2.219  13.359276
2.218  13.401506
2.217  13.267205
2.216  13.432838
2.215  13.270940
2.214  13.465582
2.213  13.350418
2.212  13.522062
2.211  13.260124
2.210  13.530657
2.209  13.340201
2.208  13.350349
2.207  13.339655
2.206  13.497772
2.205  13.419004
2.204  13.398923
2.203  13.328584
2.202  13.386463
2.201  13.445603
2.200  13.472663
2.199  13.396892
2.198  13.464152
2.197  13.429037
2.196  13.574206
2.195  13.454509
2.194  13.521499
2.193  13.422017
2.192  13.513368
2.191  13.411925
2.190  13.512609
2.189  13.424937
2.188  13.490251
2.187  13.319993
2.186  13.397872
2.185  13.343389
2.184  13.301606
2.183  13.254838
2.182  13.133317
2.181  13.047759
2.180  12.959842
2.179  12.843222
2.178  12.729048
2.177  12.524825
2.176  12.461055
2.175  12.206935
2.174  12.059293
2.173  11.914653
2.172  11.707421
2.171  11.492473
2.170  11.428864
2.169  11.278981
2.168  11.295911
2.167  11.117483
2.166  11.151412
2.165  11.154876
2.164  11.309058
2.163  11.408050
2.162  11.550248
2.161  11.665915
2.160  11.912352
2.159  12.029631
2.158  12.240294
2.157  12.315977
2.156  12.599949
2.155  12.684545
2.154  12.875997
2.153  12.991073
2.152  13.120980
2.151  13.206532
2.150  13.374263
2.149  13.412849
2.148  13.475974
2.147  13.496080
2.146  13.651191
2.145  13.640961
2.144  13.809727
2.143  13.728802
2.142  13.805918
2.141  13.816582
2.140  13.912569
2.139  13.805445
2.138  13.904395
2.137  13.877849
2.136  13.942186
2.135  13.898318
2.134  13.940072
2.133  13.958449
2.132  13.987197
2.131  13.939954
2.130  13.969965
2.129  13.908301
2.128  14.021656
2.127  13.973188
2.126  14.030561
2.125  13.994173
2.124  14.036279
2.123  14.070193
2.122  14.131615
2.121  14.056765
2.120  14.080536
2.119  14.092124
2.118  14.166882
2.117  14.097061
2.116  14.143001
2.115  14.136676
2.114  14.170897
2.113  14.109318
2.112  14.158590
2.111  14.147886
2.110  14.152494
2.109  14.101553
2.108  14.160793
2.107  14.139067
2.106  14.195695
2.105  14.192077
2.104  14.181560
2.103  14.061507
2.102  14.147670
2.101  14.146266
2.100  14.161013
2.099  14.116381
2.098  14.124440
2.097  14.139591
2.096  14.193368
2.095  14.192774
2.094  14.212364
2.093  14.164336
2.092  14.151926
2.091  14.168485
2.090  14.206819
2.089  14.142155
2.088  14.128362
2.087  14.165561
2.086  14.210392
2.085  14.171152
2.084  14.144573
2.083  14.131319
2.082  14.152324
2.081  14.150667
2.080  14.125945
2.079  14.129911
2.078  14.153497
2.077  14.169173
2.076  14.193347
2.075  14.203451
2.074  14.185389
2.073  14.167555
2.072  14.174931
2.071  14.190458
2.070  14.194380
2.069  14.199025
2.068  14.176908
2.067  14.191824
2.066  14.220682
2.065  14.185636
2.064  14.181430
2.063  14.285135
2.062  14.302200
2.061  14.257063
2.060  14.251697
2.059  14.290795
2.058  14.297255
2.057  14.321014
2.056  14.317655
2.055  14.316461
2.054  14.287616
2.053  14.283398
2.052  14.333727
2.051  14.426714
2.050  14.377384
2.049  14.394111
2.048  14.384683
2.047  14.372667
2.046  14.412233
2.045  14.436110
2.044  14.405544
2.043  14.444636
2.042  14.419141
2.041  14.426109
2.040  14.439908
2.039  14.473479
2.038  14.442046
2.037  14.487645
2.036  14.416746
2.035  14.462973
2.034  14.471216
2.033  14.435734
2.032  14.417932
2.031  14.464029
2.030  14.430289
2.029  14.460151
2.028  14.469533
2.027  14.534453
2.026  14.434423
2.025  14.400088
2.024  14.394433
2.023  14.470971
2.022  14.390022
2.021  14.456100
2.020  14.407987
2.019  14.464440
2.018  14.423436
2.017  14.482199
2.016  14.439155
2.015  14.474396
2.014  14.432290
2.013  14.522680
2.012  14.414388
2.011  14.436485
2.010  14.423524
2.009  14.529820
2.008  14.429159
2.007  14.436129
2.006  14.432653
2.005  14.507722
2.004  14.450481
2.003  14.528263
2.002  14.385808
2.001  14.489840
2.000  14.445412
1.999  14.491386
1.998  14.420025
1.997  14.461447
1.996  14.402349
1.995  14.442628
1.994  14.377233
1.993  14.464795
1.992  14.409700
1.991  14.458038
1.990  14.375178
1.989  14.442998
1.988  14.346318
1.987  14.458161
1.986  14.404177
1.985  14.450757
1.984  14.330960
1.983  14.445881
1.982  14.340458
1.981  14.401653
1.980  14.390442
1.979  14.290115
1.978  14.307174
1.977  14.354410
1.976  14.296002
1.975  14.332392
1.974  14.319137
1.973  14.308674
1.972  14.361877
1.971  14.397206
1.970  14.189503
1.969  14.329020
1.968  14.252519
1.967  14.446782
1.966  14.295834
1.965  14.350896
1.964  14.292668
1.963  14.298389
1.962  14.322791
1.961  14.340389
1.960  14.333353
1.959  14.297352
1.958  14.220536
1.957  14.367697
1.956  14.230196
1.955  14.368966
1.954  14.190286
1.953  14.289871
1.952  14.146448
1.951  14.334746
1.950  14.199597
1.949  14.268089
1.948  14.221670
1.947  14.313029
1.946  14.147340
1.945  14.266953
1.944  14.176316
1.943  14.246486
1.942  14.044717
1.941  14.286462
1.940  14.094983
1.939  14.156562
1.938  14.110430
1.937  14.160114
1.936  14.101786
1.935  14.246884
1.934  14.080095
1.933  14.170901
1.932  14.145013
1.931  14.231305
1.930  14.118042
1.929  14.266062
1.928  14.074314
1.927  14.248821
1.926  13.931474
1.925  14.261500
1.924  14.023968
1.923  14.192129
1.922  14.042434
1.921  14.210814
1.920  14.050967
1.919  14.137105
1.918  14.139107
1.917  14.209053
1.916  14.125643
1.915  14.169299
1.914  14.178787
1.913  14.219793
1.912  14.132033
1.911  14.293855
1.910  14.186221
1.909  14.293658
1.908  14.213622
1.907  14.282405
1.906  14.228163
1.905  14.335853
1.904  14.198167
1.903  14.343030
1.902  14.285199
1.901  14.339890
1.900  14.249852
1.899  14.406147
1.898  14.324755
1.897  14.431208
1.896  14.396372
1.895  14.449722
1.894  14.405752
1.893  14.479017
1.892  14.446546
1.891  14.555774
1.890  14.516978
1.889  14.527276
1.888  14.491297
1.887  14.564419
1.886  14.411280
1.885  14.562585
1.884  14.541713
1.883  14.571985
1.882  14.539755
1.881  14.570621
1.880  14.537540
1.879  14.557890
1.878  14.568732
1.877  14.641593
1.876  14.555221
1.875  14.649361
1.874  14.494416
1.873  14.592396
1.872  14.541390
1.871  14.508967
1.870  14.556837
1.869  14.537892
1.868  14.555421
1.867  14.610106
1.866  14.612388
1.865  14.673898
1.864  14.601850
1.863  14.708690
1.862  14.718919
1.861  14.713892
1.860  14.659646
1.859  14.636320
1.858  14.632177
1.857  14.679952
1.856  14.651212
1.855  14.665646
1.854  14.622752
1.853  14.707322
1.852  14.651459
1.851  14.707466
1.850  14.597055
1.849  14.602295
1.848  14.611603
1.847  14.732784
1.846  14.641955
1.845  14.696367
1.844  14.707970
1.843  14.693410
1.842  14.671589
1.841  14.746348
1.840  14.720651
1.839  14.683267
1.838  14.663384
1.837  14.635692
1.836  14.582871
1.835  14.696346
1.834  14.660449
1.833  14.719446
1.832  14.697874
1.831  14.681818
1.830  14.638619
1.829  14.740872
1.828  14.734610
1.827  14.729473
1.826  14.716596
1.825  14.731687
1.824  14.748359
1.823  14.740593
1.822  14.669986
1.821  14.710026
1.820  14.684048
1.819  14.687882
1.818  14.688012
1.817  14.767066
1.816  14.738499
1.815  14.734826
1.814  14.697262
1.813  14.739470
1.812  14.673023
1.811  14.740078
1.810  14.791838
1.809  14.762827
1.808  14.736621
1.807  14.783291
1.806  14.721342
1.805  14.740812
1.804  14.768790
1.803  14.728141
1.802  14.704946
1.801  14.764585
1.800  14.758834
1.799  14.755652
1.798  14.758200
1.797  14.764390
1.796  14.715110
1.795  14.723358
1.794  14.709922
1.793  14.749724
1.792  14.750805
1.791  14.737769
1.790  14.717097
1.789  14.736558
1.788  14.753059
1.787  14.757789
1.786  14.770207
1.785  14.706022
1.784  14.743656
1.783  14.788423
1.782  14.752002
1.781  14.731957
1.780  14.788626
1.779  14.739118
1.778  14.709742
1.777  14.785011
1.776  14.743859
1.775  14.704981
1.774  14.748664
1.773  14.692450
1.772  14.709037
1.771  14.738684
1.770  14.761084
1.769  14.779757
1.768  14.780694
1.767  14.778978
1.766  14.787988
1.765  14.763097
1.764  14.725366
1.763  14.708473
1.762  14.746901
1.761  14.732299
1.760  14.762328
1.759  14.746274
1.758  14.762289
1.757  14.728790
1.756  14.769454
1.755  14.775912
1.754  14.752871
1.753  14.713030
1.752  14.757988
1.751  14.757082
1.750  14.830147
1.749  14.818582
1.748  14.829735
1.747  14.814358
1.746  14.798574
1.745  14.784999
1.744  14.804897
1.743  14.745509
1.742  14.802499
1.741  14.729643
1.740  14.796506
1.739  14.811798
1.738  14.886672
1.737  14.827180
1.736  14.836559
1.735  14.806354
1.734  14.857895
1.733  14.831807
1.732  14.866219
1.731  14.798325
1.730  14.810639
1.729  14.780266
1.728  14.893126
1.727  14.847659
1.726  14.837031
1.725  14.851937
1.724  14.866991
1.723  14.778576
1.722  14.838172
1.721  14.803968
1.720  14.863678
1.719  14.809029
1.718  14.877371
1.717  14.816064
1.716  14.855224
1.715  14.772027
1.714  14.849135
1.713  14.801981
1.712  14.854053
1.711  14.856587
1.710  14.962749
1.709  14.834976
1.708  14.855362
1.707  14.824236
1.706  14.933020
1.705  14.837502
1.704  14.917641
1.703  14.846192
1.702  14.870694
1.701  14.786608
1.700  14.921369
1.699  14.823162
1.698  14.902087
1.697  14.801032
1.696  14.899301
1.695  14.822809
1.694  14.983652
1.693  14.847976
1.692  14.925997
1.691  14.829111
1.690  14.970188
1.689  14.830055
1.688  14.924593
1.687  14.843280
1.686  14.863863
1.685  14.834545
1.684  14.866989
1.683  14.862484
1.682  14.931999
1.681  14.868544
1.680  14.917788
1.679  14.848758
1.678  14.946036
1.677  14.875753
1.676  14.944080
1.675  14.872986
1.674  14.921791
1.673  14.887578
1.672  15.002619
1.671  14.874361
1.670  14.961203
1.669  14.984251
1.668  14.788202
1.667  14.957263
1.666  14.870365
1.665  14.803346
1.664  14.937717
1.663  14.853054
1.662  14.907226
1.661  14.909824
1.660  14.972271
1.659  14.880357
1.658  14.935349
1.657  14.893337
1.656  15.050771
1.655  14.904189
1.654  15.030630
1.653  14.909799
1.652  14.920975
1.651  14.916363
1.650  14.949974
1.649  14.812712
1.648  15.028665
1.647  14.975495
1.646  15.006000
1.645  14.866815
1.644  14.986185
1.643  14.832888
1.642  15.073271
1.641  14.782569
1.640  15.057570
1.639  14.933634
1.638  15.027648
1.637  14.843064
1.636  14.954402
1.635  14.886862
1.634  15.002410
1.633  14.954671
1.632  15.084959
1.631  14.910384
1.630  14.933540
1.629  14.925459
1.628  15.005537
1.627  14.913908
1.626  14.935108
1.625  14.982432
1.624  14.974976
1.623  14.949663
1.622  15.003857
1.621  14.955643
1.620  15.004317
1.619  14.913473
1.618  14.936369
1.617  15.008704
1.616  14.996484
1.615  14.956275
1.614  15.070055
1.613  14.980955
1.612  14.948688
1.611  14.963369
1.610  15.117534
1.609  14.916946
1.608  15.055938
1.607  15.026477
1.606  15.097637
1.605  15.025450
1.604  15.081960
1.603  15.016283
1.602  15.116733
1.601  15.017032
1.600  15.057471
1.599  14.974972
1.598  15.106789
1.597  14.964512
1.596  15.073482
1.595  15.009925
1.594  15.102861
1.593  14.966742
1.592  15.028509
1.591  15.016359
1.590  15.117529
1.589  15.045149
1.588  15.150252
1.587  15.083359
1.586  15.048865
1.585  15.062202
1.584  15.091070
1.583  15.026201
1.582  15.069595
1.581  15.034496
1.580  15.059701
1.579  15.088095
1.578  15.117592
1.577  15.008520
1.576  15.130330
1.575  15.040171
1.574  15.098172
1.573  15.062333
1.572  15.128952
1.571  15.093517
1.570  15.137895
1.569  15.079928
1.568  15.171147
1.567  15.067475
1.566  15.145315
1.565  15.099547
1.564  15.126042
1.563  15.093649
1.562  15.180734
1.561  15.148804
1.560  15.165466
1.559  15.127016
1.558  15.193341
1.557  15.132072
1.556  15.081407
1.555  15.076786
1.554  15.084389
1.553  15.012329
1.552  15.116654
1.551  15.140109
1.550  15.148480
1.549  15.107321
1.548  15.146404
1.547  15.120686
1.546  15.145355
1.545  15.128170
1.544  15.132672
1.543  15.161684
1.542  15.176207
1.541  15.135568
1.540  15.196887
1.539  15.226144
1.538  15.225376
1.537  15.187056
1.536  15.251163
1.535  15.165141
1.534  15.222666
1.533  15.172650
1.532  15.149345
1.531  15.135194
1.530  15.253087
1.529  15.290457
1.528  15.260956
1.527  15.196438
1.526  15.193381
1.525  15.172076
1.524  15.247639
1.523  15.205869
1.522  15.220934
1.521  15.264283
1.520  15.232647
1.519  15.177023
1.518  15.233991
1.517  15.209377
1.516  15.195005
1.515  15.263899
1.514  15.258599
1.513  15.209284
1.512  15.263371
1.511  15.262201
1.510  15.289088
1.509  15.276618
1.508  15.256599
1.507  15.225696
1.506  15.234439
1.505  15.239763
1.504  15.289715
1.503  15.318595
1.502  15.301263
1.501  15.283377
1.500  15.310248
1.499  15.349396
1.498  15.334537
1.497  15.327719
1.496  15.337248
1.495  15.331481
1.494  15.309887
1.493  15.305059
1.492  15.271361
1.491  15.278684
1.490  15.343093
1.489  15.342700
1.488  15.300673
1.487  15.308548
1.486  15.302979
1.485  15.342548
1.484  15.363124
1.483  15.412789
1.482  15.354425
1.481  15.328444
1.480  15.304414
1.479  15.318013
1.478  15.324195
1.477  15.347568
1.476  15.339399
1.475  15.379246
1.474  15.347933
1.473  15.369828
1.472  15.385992
1.471  15.430558
1.470  15.392211
1.469  15.373132
1.468  15.429616
1.467  15.439670
1.466  15.379447
1.465  15.406858
1.464  15.339183
1.463  15.414980
1.462  15.436341
1.461  15.471277
1.460  15.423033
1.459  15.454666
1.458  15.373695
1.457  15.402265
1.456  15.416027
1.455  15.415949
1.454  15.408862
1.453  15.460941
1.452  15.443708
1.451  15.480496
1.450  15.444404
1.449  15.446134
1.448  15.511513
1.447  15.529966
1.446  15.458059
1.445  15.498111
1.444  15.459184
1.443  15.574063
1.442  15.466237
1.441  15.486741
1.440  15.434845
1.439  15.574393
1.438  15.473504
1.437  15.496773
1.436  15.473930
1.435  15.548354
1.434  15.486485
1.433  15.533320
1.432  15.484313
1.431  15.559028
1.430  15.464949
1.429  15.564856
1.428  15.529941
1.427  15.545634
1.426  15.484322
1.425  15.533328
1.424  15.476150
1.423  15.528393
1.422  15.543856
1.421  15.574895
1.420  15.491646
1.419  15.532524
1.418  15.442784
1.417  15.481050
1.416  15.465130
1.415  15.549670
1.414  15.404570
1.413  15.541261
1.412  15.508514
1.411  15.637592
1.410  15.475442
1.409  15.610670
1.408  15.440874
1.407  15.475738
1.406  15.364423
1.405  15.467147
1.404  15.411388
1.403  15.508185
1.402  15.391115
1.401  15.305777
1.400  15.027510
1.399  14.957979
1.398  14.565110
1.397  14.243457
1.396  13.392311
1.395  12.943844
1.394  12.579512
1.393  12.994582
1.392  13.511753
1.391  14.212893
1.390  14.762195
1.389  15.202795
1.388  15.304780
1.387  15.541970
1.386  15.569150
1.385  15.697674
1.384  15.656292
1.383  15.790993
1.382  15.721048
1.381  15.833486
1.380  15.663810
1.379  15.865422
1.378  15.791107
1.377  15.932755
1.376  15.771990
1.375  15.895282
1.374  15.848366
1.373  15.955344
1.372  15.839319
1.371  15.899226
1.370  15.884225
1.369  15.973147
1.368  15.776685
1.367  15.982683
1.366  15.860343
1.365  15.949671
1.364  15.847257
1.363  16.023564
1.362  15.822611
1.361  15.991765
1.360  15.887877
1.359  15.981212
1.358  15.975659
1.357  15.954074
1.356  16.000593
1.355  15.925658
1.354  16.034473
1.353  15.990431
1.352  15.984626
1.351  16.082070
1.350  15.987547
1.349  16.138552
1.348  15.987972
1.347  16.100492
1.346  16.064821
1.345  16.101033
1.344  16.036339
1.343  16.108589
1.342  15.945518
1.341  16.107247
1.340  16.096146
1.339  16.038835
1.338  16.012781
1.337  16.097295
1.336  16.020344
1.335  16.246865
1.334  16.081394
1.333  16.117072
1.332  16.062919
1.331  16.184639
1.330  16.128532
1.329  16.167532
1.328  16.161394
1.327  16.167101
1.326  16.060535
1.325  16.207092
1.324  16.174611
1.323  16.259032
1.322  16.229227
1.321  16.235602
1.320  16.164348
1.319  16.325767
1.318  16.208236
1.317  16.277949
1.316  16.293833
1.315  16.314447
1.314  16.279160
1.313  16.429952
1.312  16.297530
1.311  16.356645
1.310  16.318439
1.309  16.399793
1.308  16.288855
1.307  16.315276
1.306  16.289325
1.305  16.435203
1.304  16.353308
1.303  16.407928
1.302  16.395828
1.301  16.437784
1.300  16.336319
1.299  16.478181
1.298  16.475855
1.297  16.384149
1.296  16.424708
1.295  16.486398
1.294  16.444801
1.293  16.515251
1.292  16.538484
1.291  16.526606
1.290  16.506713
1.289  16.499106
1.288  16.501201
1.287  16.566195
1.286  16.568242
1.285  16.520951
1.284  16.489579
1.283  16.585459
1.282  16.572104
1.281  16.607572
1.280  16.586631
1.279  16.634423
1.278  16.576272
1.277  16.650568
1.276  16.631300
1.275  16.654594
1.274  16.588678
1.273  16.637984
1.272  16.650858
1.271  16.705063
1.270  16.692261
1.269  16.701260
1.268  16.698945
1.267  16.704527
1.266  16.709789
1.265  16.732757
1.264  16.705669
1.263  16.745432
1.262  16.728532
1.261  16.782254
1.260  16.822552
1.259  16.807568
1.258  16.758206
1.257  16.801718
1.256  16.867577
1.255  16.875703
1.254  16.800421
1.253  16.869503
1.252  16.883079
1.251  16.935042
1.250  16.912584
1.249  16.834415
1.248  16.824705
1.247  16.901875
1.246  16.921288
1.245  16.929677
1.244  16.917170
1.243  16.971223
1.242  16.912193
1.241  16.977875
1.240  17.011902
1.239  17.011822
1.238  16.966654
1.237  16.952376
1.236  16.975878
1.235  16.982089
1.234  17.022317
1.233  17.020866
1.232  16.946352
1.231  17.005466
1.230  17.033393
1.229  17.035443
1.228  17.071148
1.227  17.115692
1.226  17.142862
1.225  17.130736
1.224  17.123059
1.223  17.138338
1.222  17.126397
1.221  17.156366
1.220  17.179185
1.219  17.189356
1.218  17.159275
1.217  17.167148
1.216  17.178207
1.215  17.172731
1.214  17.260919
1.213  17.335591
1.212  17.282180
1.211  17.237765
1.210  17.298089
1.209  17.302942
1.208  17.307191
1.207  17.332255
1.206  17.314399
1.205  17.306510
1.204  17.378313
1.203  17.338059
1.202  17.335520
1.201  17.396596
1.200  17.383967
1.199  17.341389
1.198  17.372036
1.197  17.413529
1.196  17.483184
1.195  17.494597
1.194  17.449315
1.193  17.383120
1.192  17.431489
1.191  17.424718
1.190  17.532321
1.189  17.630406
1.188  17.492092
1.187  17.502902
1.186  17.601907
1.185  17.511577
1.184  17.493665
1.183  17.540468
1.182  17.640339
1.181  17.588057
1.180  17.630775
1.179  17.602153
1.178  17.645451
1.177  17.653128
1.176  17.702463
1.175  17.637670
1.174  17.692965
1.173  17.731948
1.172  17.772946
1.171  17.708102
1.170  17.812194
1.169  17.763356
1.168  17.807573
1.167  17.804644
1.166  17.827496
1.165  17.765365
1.164  17.755424
1.163  17.729853
1.162  17.833926
1.161  17.805626
1.160  17.881868
1.159  17.837073
1.158  17.825281
1.157  17.856812
1.156  17.970989
1.155  17.884352
1.154  17.928049
1.153  17.930824
1.152  18.029357
1.151  17.911570
1.150  17.995671
1.149  17.977626
1.148  18.045202
1.147  17.976469
1.146  18.009889
1.145  17.956131
1.144  18.039512
1.143  18.010143
1.142  18.074895
1.141  18.067842
1.140  18.203312
1.139  18.120610
1.138  18.157071
1.137  18.145056
1.136  18.240174
1.135  18.101144
1.134  18.244266
1.133  18.142398
1.132  18.184090
1.131  18.194351
1.130  18.347248
1.129  18.166469
1.128  18.258568
1.127  18.224920
1.126  18.298167
1.125  18.239627
1.124  18.337473
1.123  18.248655
1.122  18.292369
1.121  18.263497
1.120  18.321490
1.119  18.275193
1.118  18.355177
1.117  18.307960
1.116  18.402368
1.115  18.369255
1.114  18.418990
1.113  18.396307
1.112  18.415167
1.111  18.387505
1.110  18.487885
1.109  18.355710
1.108  18.564805
1.107  18.425678
1.106  18.439347
1.105  18.538434
1.104  18.540568
1.103  18.530834
1.102  18.513362
1.101  18.501769
1.100  18.640171
1.099  18.549395
1.098  18.624635
1.097  18.527368
1.096  18.685478
1.095  18.544709
1.094  18.759352
1.093  18.597836
1.092  18.684646
1.091  18.642923
1.090  18.751572
1.089  18.653758
1.088  18.717540
1.087  18.647779
1.086  18.742073
1.085  18.665562
1.084  18.788924
1.083  18.705270
1.082  18.845238
1.081  18.786396
1.080  18.864497
1.079  18.724459
1.078  18.909450
1.077  18.743889
1.076  18.879543
1.075  18.734645
1.074  18.914658
1.073  18.810651
1.072  18.886437
1.071  18.923970
1.070  18.798405
1.069  18.944228
1.068  18.950126
1.067  18.814195
1.066  19.029693
1.065  18.836102
1.064  18.936218
1.063  18.996837
1.062  19.015286
1.061  18.979318
1.060  18.975198
1.059  18.995120
1.058  19.010182
1.057  18.962658
1.056  19.049907
1.055  18.968390
1.054  19.109199
1.053  19.059406
1.052  19.127432
1.051  18.973933
1.050  19.124904
1.049  19.034525
1.048  19.188402
1.047  18.954932
1.046  19.195592
1.045  19.034966
1.044  19.174731
1.043  19.122777
1.042  19.159227
1.041  19.156234
1.040  19.135742
1.039  19.089914
1.038  19.157882
1.037  19.135043
1.036  19.220761
1.035  19.163428
1.034  19.174966
1.033  19.192700
1.032  19.164226
1.031  19.213120
1.030  19.230925
1.029  19.186747
1.028  19.254404
1.027  19.142970
1.026  19.306408
1.025  19.161697
1.024  19.188571
1.023  19.144693
1.022  19.250195
1.021  19.153573
1.020  19.269239
1.019  19.226638
1.018  19.278350
1.017  19.219515
1.016  19.208675
1.015  19.203673
1.014  19.288612
1.013  19.126485
1.012  19.263209
1.011  19.244999
1.010  19.225210
1.009  19.186612
1.008  19.180007
1.007  19.119259
1.006  19.197349
1.005  19.172396
1.004  19.269287
1.003  19.116041
1.002  19.143543
1.001  19.054154
1.000  19.090109
0.999  19.115909
0.998  19.150234
0.997  19.132453
0.996  19.165017
0.995  19.022450
0.994  19.138860
0.993  19.078537
0.992  19.050867
0.991  19.003370
0.990  19.028995
0.989  18.967831
0.988  19.021294
0.987  19.014416
0.986  18.973677
0.985  18.908937
0.984  18.940288
0.983  18.876771
0.982  18.885219
0.981  18.850358
0.980  18.863325
0.979  18.817438
0.978  18.797274
0.977  18.778234
0.976  18.823680
0.975  18.740896
0.974  18.727680
0.973  18.642371
0.972  18.683224
0.971  18.682622
0.970  18.705548
0.969  18.647013
0.968  18.599089
0.967  18.618340
0.966  18.577163
0.965  18.505180
0.964  18.569448
0.963  18.467097
0.962  18.429197
0.961  18.439268
0.960  18.460224
0.959  18.388995
0.958  18.372004
0.957  18.308966
0.956  18.272803
0.955  18.236729
0.954  18.206668
0.953  18.150400
0.952  18.142732
0.951  18.139784
0.950  18.153460
0.949  18.132992
0.948  18.145222
0.947  18.116220
0.946  18.134355
0.945  18.067422
0.944  18.037160
0.943  18.037026
0.942  18.049396
0.941  18.004195
0.940  17.926788
0.939  17.891893
0.938  17.876624
0.937  17.872639
0.936  17.870513
0.935  17.819372
0.934  17.830546
0.933  17.792954
0.932  17.749554
0.931  17.790735
0.930  17.768907
0.929  17.738057
0.928  17.726066
0.927  17.654941
0.926  17.656357
0.925  17.697454
0.924  17.632951
0.923  17.598927
0.922  17.569399
0.921  17.549368
0.920  17.499493
0.919  17.505448
0.918  17.517137
0.917  17.497453
0.916  17.446639
0.915  17.471712
0.914  17.440851
0.913  17.407858
0.912  17.420368
0.911  17.424856
0.910  17.387406
0.909  17.387662
0.908  17.319413
0.907  17.348783
0.906  17.298327
0.905  17.271912
0.904  17.210781
0.903  17.196830
0.902  17.165625
0.901  17.253206
0.900  17.223638
0.899  17.172797
0.898  17.105722
0.897  17.086653
0.896  17.091899
0.895  17.134443
0.894  17.034530
0.893  17.055158
0.892  17.022269
0.891  17.052607
0.890  16.971952
0.889  17.021049
0.888  16.968885
0.887  17.009580
0.886  16.956888
0.885  16.950923
0.884  16.901026
0.883  16.913396
0.882  16.867871
0.881  16.880340
0.880  16.837946
0.879  16.900873
0.878  16.829328
0.877  16.744265
0.876  16.760425
0.875  16.837262
0.874  16.706580
0.873  16.767717
0.872  16.698316
0.871  16.725305
0.870  16.671365
0.869  16.653311
0.868  16.601627
0.867  16.683339
0.866  16.619942
0.865  16.646670
0.864  16.555055
0.863  16.580580
0.862  16.591153
0.861  16.571718
0.860  16.543474
0.859  16.512150
0.858  16.545002
0.857  16.521429
0.856  16.538722
0.855  16.533048
0.854  16.555895
0.853  16.543836
0.852  16.555132
0.851  16.557829
0.850  16.570849
0.849  16.563945
0.848  16.572601
0.847  16.606004
0.846  16.608365
0.845  16.611840
0.844  16.622138
0.843  16.616790
0.842  16.636948
0.841  16.634347
0.840  16.649360
0.839  16.663608
0.838  16.658104
0.837  16.660935
0.836  16.654589
0.835  16.694258
0.834  16.673012
0.833  16.687586
0.832  16.710889
0.831  16.702557
0.830  16.724270
0.829  16.729254
0.828  16.750821
0.827  16.742267
0.826  16.744193
0.825  16.776577
0.824  16.780464
0.823  16.791097
0.822  16.807968
0.821  16.813433
0.820  16.832162
0.819  16.851404
0.818  16.844487
0.817  16.847127
0.816  16.880415
0.815  16.876150
0.814  16.888520
0.813  16.895657
0.812  16.919298
0.811  16.908797
0.810  16.938224
0.809  16.939593
0.808  16.946817
0.807  16.960962
0.806  16.980856
0.805  16.966528
0.804  16.996382
0.803  17.017538
0.802  17.015885
0.801  17.022614
0.800  17.039630
0.799  17.046894
0.798  17.049749
0.797  17.077541
0.796  17.072146
0.795  17.084810
0.794  17.100113
0.793  17.103932
0.792  17.101129
0.791  17.126042
0.790  17.127095
0.789  17.135301
0.788  17.146379
0.787  17.161742
0.786  17.167991
0.785  17.179044
0.784  17.197781
0.783  17.193669
0.782  17.203456
0.781  17.225605
0.780  17.210401
0.779  17.234207
0.778  17.228407
0.777  17.229577
0.776  17.242331
0.775  17.236416
0.774  17.244851
0.773  17.246191
0.772  17.256108
0.771  17.259976
0.770  17.253382
0.769  17.258014
0.768  17.274002
0.767  17.264976
0.766  17.267249
0.765  17.272633
0.764  17.265347
0.763  17.264284
0.762  17.269091
0.761  17.256675
0.760  17.256294
0.759  17.264387
0.758  17.258525
0.757  17.243901
0.756  17.232850
0.755  17.227117
0.754  17.228431
0.753  17.225952
0.752  17.209417
0.751  17.203009
0.750  17.195026
0.749  17.190967
0.748  17.170826
0.747  17.169291
0.746  17.149090
0.745  17.138517
0.744  17.115181
0.743  17.103487
0.742  17.087732
0.741  17.084604
0.740  17.065546
0.739  17.049084
0.738  17.031277
0.737  17.017462
0.736  16.991467
0.735  16.966935
0.734  16.945386
0.733  16.929645
0.732  16.912119
0.731  16.897258
0.730  16.872809
0.729  16.848929
0.728  16.831878
0.727  16.804266
0.726  16.779362
0.725  16.759094
0.724  16.735712
0.723  16.711979
0.722  16.689151
0.721  16.661554
0.720  16.637539
0.719  16.619222
0.718  16.597182
0.717  16.571294
0.716  16.547318
0.715  16.521336
0.714  16.494584
0.713  16.464090
0.712  16.443827
0.711  16.423696
0.710  16.396663
0.709  16.369993
0.708  16.338341
0.707  16.313211
0.706  16.290479
0.705  16.273806
0.704  16.241716
0.703  16.220828
0.702  16.195394
0.701  16.170749
0.700  16.149934
0.699  16.128165
0.698  16.099595
0.697  16.079265
0.696  16.044606
0.695  16.025644
0.694  16.006177
0.693  15.983855
0.692  15.958429
0.691  15.939683
0.690  15.918984
0.689  15.899795
0.688  15.877361
0.687  15.861210
0.686  15.832238
0.685  15.811817
0.684  15.794438
0.683  15.776094
0.682  15.750621
0.681  15.733456
0.680  15.719669
0.679  15.695619
0.678  15.676241
0.677  15.661615
0.676  15.638283
0.675  15.628075
0.674  15.610592
0.673  15.588273
0.672  15.575917
0.671  15.563102
0.670  15.547624
0.669  15.532524
0.668  15.516730
0.667  15.501363
0.666  15.482159
0.665  15.470191
0.664  15.459282
0.663  15.447927
0.662  15.438883
0.661  15.424713
0.660  15.406208
0.659  15.396253
0.658  15.388206
0.657  15.372974
0.656  15.364482
0.655  15.355105
0.654  15.338398
0.653  15.325200
0.652  15.314843
0.651  15.304714
0.650  15.296169
0.649  15.285884
0.648  15.276336
0.647  15.266192
0.646  15.257698
0.645  15.248579
0.644  15.238481
0.643  15.227668
0.642  15.219910
0.641  15.212642
0.640  15.204796
0.639  15.194956
0.638  15.184751
0.637  15.176415
0.636  15.168986
0.635  15.162107
0.634  15.153051
0.633  15.143602
0.632  15.136303
0.631  15.129140
0.630  15.119339
0.629  15.112472
0.628  15.108751
0.627  15.098233
0.626  15.088100
0.625  15.080041
0.624  15.071691
0.623  15.062662
0.622  15.050731
0.621  15.040730
0.620  15.031578
0.619  15.019800
0.618  15.009927
0.617  14.999610
0.616  14.986594
0.615  14.977157
0.614  14.964147
0.613  14.949542
0.612  14.937937
0.611  14.919283
0.610  14.901933
0.609  14.891055
0.608  14.874436
0.607  14.856402
0.606  14.839004
0.605  14.818426
0.604  14.798864
0.603  14.778931
0.602  14.752738
0.601  14.725571
0.600  14.703290
0.599  14.680951
0.598  14.655023
0.597  14.629237
0.596  14.604816
0.595  14.575200
0.594  14.544693
0.593  14.512305
0.592  14.477449
0.591  14.443858
0.590  14.405087
0.589  14.365588
0.588  14.329823
0.587  14.287141
0.586  14.247768
0.585  14.208626
0.584  14.165407
0.583  14.123134
0.582  14.082839
0.581  14.038899
0.580  13.995157
0.579  13.950276
0.578  13.904678
0.577  13.862055
0.576  13.821367
0.575  13.779231
0.574  13.738031
0.573  13.692266
0.572  13.653511
0.571  13.608558
0.570  13.568961
0.569  13.533970
0.568  13.496942
0.567  13.456353
0.566  13.419900
0.565  13.385375
0.564  13.352669
0.563  13.320718
0.562  13.291125
0.561  13.249621
0.560  13.219432
0.559  13.191057
0.558  13.159683
0.557  13.135271
0.556  13.113834
0.555  13.091151
0.554  13.067412
0.553  13.047857
0.552  13.029698
0.551  13.012897
0.550  12.998000
0.549  12.983409
0.548  12.964249
0.547  12.946758
0.546  12.936493
0.545  12.924506
0.544  12.909692
0.543  12.900367
0.542  12.889579
0.541  12.880372
0.540  12.873328
0.539  12.867669
0.538  12.856456
0.537  12.847221
0.536  12.842257
0.535  12.835767
0.534  12.832632
0.533  12.825574
0.532  12.820740
0.531  12.814920
0.530  12.807004
0.529  12.805385
0.528  12.802926
0.527  12.799326
0.526  12.795229
0.525  12.792300
0.524  12.788847
0.523  12.781711
0.522  12.779270
0.521  12.777723
0.520  12.776983
0.519  12.774596
0.518  12.769129
0.517  12.768148
0.516  12.761194
0.515  12.764360
0.514  12.761000
0.513  12.756841
0.512  12.756047
0.511  12.746529
0.510  12.743687
0.509  12.741037
0.508  12.736646
0.507  12.733171
0.506  12.734110
0.505  12.723679
0.504  12.725340
0.503  12.718826
0.502  12.714394
0.501  12.708257
0.500  12.710164
0.499  12.701609
0.498  12.702573
0.497  12.694948
0.496  12.688294
0.495  12.689348
0.494  12.693865
0.493  12.687419
0.492  12.680920
0.491  12.671874
0.490  12.677016
0.489  12.669832
0.488  12.663827
0.487  12.661351
0.486  12.657990
0.485  12.658757
0.484  12.659277
0.483  12.666372
0.482  12.665215
0.481  12.672886
0.480  12.679183
0.479  12.680364
0.478  12.686846
0.477  12.690893
0.476  12.695393
0.475  12.690228
0.474  12.696194
0.473  12.700416
0.472  12.701198
0.471  12.703060
0.470  12.705651
0.469  12.702710
0.468  12.704459
0.467  12.708841
0.466  12.708210
0.465  12.709561
0.464  12.709227
0.463  12.706104
0.462  12.708001
0.461  12.710893
0.460  12.706773
0.459  12.706605
0.458  12.707281
0.457  12.706269
0.456  12.706908
0.455  12.697223
0.454  12.702920
0.453  12.701396
0.452  12.692475
0.451  12.695835
0.450  12.691800
0.449  12.685886
0.448  12.686043
0.447  12.679820
0.446  12.671218
0.445  12.676568
0.444  12.670301
0.443  12.676109
0.442  12.673921
0.441  12.667291
0.440  12.672932
0.439  12.664456
0.438  12.661604
0.437  12.657929
0.436  12.653275
0.435  12.643661
0.434  12.645692
0.433  12.636214
0.432  12.634303
0.431  12.631477
0.430  12.625177
0.429  12.619985
0.428  12.618366
0.427  12.618497
0.426  12.611442
0.425  12.605155
0.424  12.603284
0.423  12.599242
0.422  12.594490
0.421  12.591150
0.420  12.590065
0.419  12.587177
0.418  12.586654
0.417  12.581952
0.416  12.574958
0.415  12.572509
0.414  12.565699
0.413  12.561996
0.412  12.554167
0.411  12.549956
0.410  12.542503
0.409  12.547335
0.408  12.540368
0.407  12.530804
0.406  12.527939
0.405  12.519589
0.404  12.516666
0.403  12.507681
0.402  12.503431
0.401  12.497823
0.400  12.485578
