Name: Hornblende Granite
Type: Rock
Class: Igneous
Subclass:  Felsic 
Particle Size: Solid surface
Sample No.: Ward14.txt
Owner: JPL
Wavelength range:  VNIR SWIR IR  
Origin: Ward's Collection of American Rocks.  Sample locality - Rockport, Essex County, Massachusetts.
Collected by:  Ward's Natural Science
Description: A gray, granular rock consisting of feldspar, quartz and
hornblende.
Geologic age - Carboniferous (probably Mississippian).



Measurement: Hemispherical reflectance
First Column: X
Second Column: Y
X Units: Wavelength (micrometers)
Y Units: Reflectance (percent)
First X Value: 2.500
Last X Value: 0.400
Number of X Values: 2101
Additional information: None

2.500  36.641687
2.499  36.190491
2.498  36.511581
2.497  36.661259
2.496  36.502481
2.495  36.441248
2.494  36.620467
2.493  36.557642
2.492  36.619078
2.491  36.604004
2.490  36.640366
2.489  36.630703
2.488  36.900999
2.487  36.683926
2.486  36.961364
2.485  36.769887
2.484  36.941203
2.483  36.839310
2.482  37.142979
2.481  37.007368
2.480  37.066809
2.479  37.141115
2.478  37.333648
2.477  36.986107
2.476  37.224418
2.475  37.251351
2.474  37.460301
2.473  37.344684
2.472  37.410813
2.471  37.381284
2.470  37.528779
2.469  37.478263
2.468  37.561935
2.467  37.477947
2.466  37.768839
2.465  37.621851
2.464  37.712670
2.463  37.769803
2.462  37.839736
2.461  37.698086
2.460  37.923992
2.459  37.871016
2.458  37.971005
2.457  37.870136
2.456  38.102221
2.455  38.049124
2.454  38.093276
2.453  38.100918
2.452  38.323655
2.451  38.242026
2.450  38.320993
2.449  38.213132
2.448  38.329738
2.447  38.312517
2.446  38.364199
2.445  38.400098
2.444  38.549109
2.443  38.475812
2.442  38.550657
2.441  38.524614
2.440  38.601155
2.439  38.666732
2.438  38.708291
2.437  38.503330
2.436  38.688439
2.435  38.635394
2.434  38.767698
2.433  38.757940
2.432  38.764752
2.431  38.721095
2.430  38.866912
2.429  38.827271
2.428  38.933825
2.427  38.897854
2.426  38.970017
2.425  38.884776
2.424  38.963322
2.423  39.032498
2.422  39.026775
2.421  39.120816
2.420  39.145712
2.419  39.165096
2.418  39.127383
2.417  39.152808
2.416  39.175635
2.415  39.206403
2.414  39.352291
2.413  39.386266
2.412  39.445938
2.411  39.458589
2.410  39.456361
2.409  39.419630
2.408  39.490302
2.407  39.450177
2.406  39.565627
2.405  39.587766
2.404  39.620320
2.403  39.583901
2.402  39.682936
2.401  39.755801
2.400  39.849005
2.399  39.820554
2.398  39.825197
2.397  39.834698
2.396  39.857019
2.395  39.886000
2.394  39.952822
2.393  39.932727
2.392  40.025424
2.391  40.061963
2.390  40.092036
2.389  40.151521
2.388  40.253579
2.387  40.196641
2.386  40.278888
2.385  40.330788
2.384  40.340698
2.383  40.350127
2.382  40.389352
2.381  40.424940
2.380  40.427512
2.379  40.401324
2.378  40.481847
2.377  40.520236
2.376  40.551633
2.375  40.521317
2.374  40.556944
2.373  40.635500
2.372  40.641809
2.371  40.655176
2.370  40.723687
2.369  40.736834
2.368  40.747665
2.367  40.738052
2.366  40.781228
2.365  40.801042
2.364  40.775743
2.363  40.824378
2.362  40.867408
2.361  40.877897
2.360  40.897167
2.359  40.933133
2.358  40.981983
2.357  41.002426
2.356  40.973236
2.355  40.984915
2.354  41.018354
2.353  41.020973
2.352  41.037671
2.351  41.075857
2.350  41.096195
2.349  41.136027
2.348  41.140104
2.347  41.113832
2.346  41.123657
2.345  41.208543
2.344  41.221581
2.343  41.273617
2.342  41.297891
2.341  41.292192
2.340  41.303393
2.339  41.383484
2.338  41.421991
2.337  41.439421
2.336  41.468614
2.335  41.509219
2.334  41.462478
2.333  41.501582
2.332  41.497548
2.331  41.525627
2.330  41.602785
2.329  41.600944
2.328  41.573292
2.327  41.677227
2.326  41.604233
2.325  41.647553
2.324  41.677336
2.323  41.665940
2.322  41.729861
2.321  41.729609
2.320  41.694189
2.319  41.730750
2.318  41.793778
2.317  41.874835
2.316  41.811929
2.315  41.866801
2.314  41.886207
2.313  41.914188
2.312  41.916447
2.311  41.969287
2.310  41.932595
2.309  42.011683
2.308  42.031760
2.307  42.083398
2.306  42.078919
2.305  42.131143
2.304  42.167230
2.303  42.241294
2.302  42.153198
2.301  42.232026
2.300  42.271997
2.299  42.325043
2.298  42.269958
2.297  42.324950
2.296  42.366538
2.295  42.364932
2.294  42.309233
2.293  42.422686
2.292  42.420568
2.291  42.454473
2.290  42.487861
2.289  42.494938
2.288  42.484726
2.287  42.543552
2.286  42.472523
2.285  42.524288
2.284  42.466954
2.283  42.586285
2.282  42.570625
2.281  42.589630
2.280  42.529497
2.279  42.611168
2.278  42.650502
2.277  42.695565
2.276  42.646088
2.275  42.753788
2.274  42.678044
2.273  42.768985
2.272  42.770388
2.271  42.775005
2.270  42.798514
2.269  42.837473
2.268  42.879871
2.267  42.939517
2.266  42.892178
2.265  42.862977
2.264  42.944074
2.263  42.929160
2.262  42.973637
2.261  43.006071
2.260  42.973661
2.259  43.016341
2.258  42.966443
2.257  43.047818
2.256  43.117346
2.255  43.073513
2.254  43.052650
2.253  43.250928
2.252  43.141018
2.251  43.192137
2.250  43.145976
2.249  43.183409
2.248  43.196930
2.247  43.288570
2.246  43.181160
2.245  43.287306
2.244  43.248596
2.243  43.368400
2.242  43.310749
2.241  43.352922
2.240  43.299051
2.239  43.388413
2.238  43.327426
2.237  43.426510
2.236  43.373942
2.235  43.500276
2.234  43.439509
2.233  43.439971
2.232  43.487178
2.231  43.381600
2.230  43.402891
2.229  43.582690
2.228  43.459068
2.227  43.518269
2.226  43.480789
2.225  43.572686
2.224  43.555805
2.223  43.544388
2.222  43.523371
2.221  43.601657
2.220  43.564855
2.219  43.732694
2.218  43.589177
2.217  43.656673
2.216  43.492243
2.215  43.700703
2.214  43.689420
2.213  43.766701
2.212  43.673205
2.211  43.674989
2.210  43.792845
2.209  43.817801
2.208  43.795166
2.207  43.798513
2.206  43.810051
2.205  43.841480
2.204  43.876164
2.203  43.887491
2.202  43.869772
2.201  43.979925
2.200  43.900842
2.199  44.044192
2.198  43.923019
2.197  44.006009
2.196  43.958134
2.195  44.014660
2.194  43.917638
2.193  44.042442
2.192  43.936482
2.191  44.053582
2.190  43.944938
2.189  44.091745
2.188  44.029205
2.187  44.041898
2.186  44.073932
2.185  44.109326
2.184  44.118356
2.183  44.120928
2.182  44.142603
2.181  44.189822
2.180  44.109167
2.179  44.143571
2.178  44.150078
2.177  44.172030
2.176  44.258799
2.175  44.213385
2.174  44.192791
2.173  44.245566
2.172  44.187382
2.171  44.263010
2.170  44.212665
2.169  44.344285
2.168  44.323739
2.167  44.291838
2.166  44.335409
2.165  44.360985
2.164  44.366458
2.163  44.356195
2.162  44.330259
2.161  44.371972
2.160  44.369869
2.159  44.479617
2.158  44.339925
2.157  44.446016
2.156  44.451373
2.155  44.483938
2.154  44.408466
2.153  44.444055
2.152  44.403908
2.151  44.485829
2.150  44.456432
2.149  44.540461
2.148  44.436836
2.147  44.516649
2.146  44.499022
2.145  44.497090
2.144  44.461083
2.143  44.462440
2.142  44.461764
2.141  44.521245
2.140  44.401433
2.139  44.454549
2.138  44.371355
2.137  44.398778
2.136  44.369079
2.135  44.391524
2.134  44.307525
2.133  44.340325
2.132  44.294408
2.131  44.329397
2.130  44.264869
2.129  44.221161
2.128  44.203048
2.127  44.222472
2.126  44.153065
2.125  44.137334
2.124  44.066789
2.123  44.072732
2.122  44.034123
2.121  44.027561
2.120  43.922758
2.119  43.913623
2.118  43.873251
2.117  43.867852
2.116  43.782832
2.115  43.762376
2.114  43.673756
2.113  43.674584
2.112  43.616457
2.111  43.569201
2.110  43.531480
2.109  43.553838
2.108  43.474249
2.107  43.444535
2.106  43.369433
2.105  43.333153
2.104  43.273953
2.103  43.268913
2.102  43.216626
2.101  43.229570
2.100  43.188430
2.099  43.156829
2.098  43.105715
2.097  43.125345
2.096  43.134931
2.095  43.088577
2.094  43.041494
2.093  43.063704
2.092  43.062333
2.091  43.044411
2.090  43.006604
2.089  42.976719
2.088  42.970649
2.087  42.959914
2.086  42.942993
2.085  42.969961
2.084  42.955187
2.083  42.977420
2.082  42.948267
2.081  42.872405
2.080  42.844360
2.079  42.833892
2.078  42.812762
2.077  42.799749
2.076  42.735011
2.075  42.721831
2.074  42.721787
2.073  42.708160
2.072  42.697287
2.071  42.654894
2.070  42.645867
2.069  42.629942
2.068  42.627365
2.067  42.616429
2.066  42.581095
2.065  42.554844
2.064  42.553600
2.063  42.522693
2.062  42.492663
2.061  42.481349
2.060  42.471757
2.059  42.425190
2.058  42.366554
2.057  42.342103
2.056  42.385390
2.055  42.367826
2.054  42.297191
2.053  42.287710
2.052  42.277982
2.051  42.206728
2.050  42.233548
2.049  42.205489
2.048  42.149864
2.047  42.060639
2.046  42.071340
2.045  42.059240
2.044  42.030131
2.043  42.016199
2.042  42.013890
2.041  41.978061
2.040  42.009133
2.039  41.960571
2.038  41.884702
2.037  41.863868
2.036  41.884673
2.035  41.834362
2.034  41.818507
2.033  41.760774
2.032  41.722742
2.031  41.649177
2.030  41.633546
2.029  41.630628
2.028  41.592948
2.027  41.529107
2.026  41.531817
2.025  41.423519
2.024  41.446380
2.023  41.405536
2.022  41.383255
2.021  41.295268
2.020  41.319750
2.019  41.258243
2.018  41.195538
2.017  41.202327
2.016  41.136055
2.015  41.097762
2.014  41.072797
2.013  41.016244
2.012  41.022255
2.011  40.943711
2.010  40.953406
2.009  40.828984
2.008  40.829968
2.007  40.777158
2.006  40.722758
2.005  40.699840
2.004  40.692835
2.003  40.582473
2.002  40.555401
2.001  40.536762
2.000  40.497858
1.999  40.394334
1.998  40.404436
1.997  40.285273
1.996  40.250923
1.995  40.145460
1.994  40.192651
1.993  40.135432
1.992  40.091896
1.991  39.962536
1.990  40.021089
1.989  39.957601
1.988  39.865661
1.987  39.781213
1.986  39.744659
1.985  39.658463
1.984  39.641819
1.983  39.603020
1.982  39.558073
1.981  39.489132
1.980  39.393292
1.979  39.318790
1.978  39.418953
1.977  39.281311
1.976  39.247409
1.975  39.162727
1.974  39.208103
1.973  39.107788
1.972  39.096815
1.971  38.982195
1.970  38.934464
1.969  38.817994
1.968  38.912904
1.967  38.767521
1.966  38.738977
1.965  38.681143
1.964  38.668575
1.963  38.640269
1.962  38.654130
1.961  38.542223
1.960  38.598164
1.959  38.412560
1.958  38.483887
1.957  38.352934
1.956  38.446905
1.955  38.401894
1.954  38.303716
1.953  38.269081
1.952  38.251491
1.951  38.140752
1.950  38.202363
1.949  38.035942
1.948  38.182465
1.947  37.987810
1.946  38.061222
1.945  38.011359
1.944  38.036618
1.943  37.869988
1.942  37.924359
1.941  37.956574
1.940  37.907369
1.939  37.873892
1.938  37.947928
1.937  37.753655
1.936  37.827893
1.935  37.797734
1.934  37.826857
1.933  37.733727
1.932  37.821097
1.931  37.777902
1.930  37.790528
1.929  37.733925
1.928  37.934746
1.927  37.778496
1.926  37.714304
1.925  37.834918
1.924  37.799893
1.923  37.792339
1.922  37.932430
1.921  37.866113
1.920  37.905465
1.919  37.885529
1.918  37.941631
1.917  37.961359
1.916  38.034077
1.915  37.967464
1.914  38.072466
1.913  38.041318
1.912  38.166308
1.911  38.098167
1.910  38.278364
1.909  38.303049
1.908  38.415817
1.907  38.487038
1.906  38.645404
1.905  38.654053
1.904  38.878974
1.903  39.055067
1.902  39.204630
1.901  39.289978
1.900  39.472115
1.899  39.656684
1.898  39.797993
1.897  39.991039
1.896  40.111197
1.895  40.290182
1.894  40.492059
1.893  40.592426
1.892  40.806001
1.891  40.918852
1.890  41.172202
1.889  41.361356
1.888  41.543942
1.887  41.529575
1.886  41.814066
1.885  41.845945
1.884  42.018050
1.883  42.131970
1.882  42.233548
1.881  42.247336
1.880  42.347044
1.879  42.450896
1.878  42.521252
1.877  42.577710
1.876  42.712550
1.875  42.684149
1.874  42.900267
1.873  42.974122
1.872  43.208630
1.871  43.226812
1.870  43.371274
1.869  43.402526
1.868  43.397910
1.867  43.406268
1.866  43.389367
1.865  43.340484
1.864  43.352969
1.863  43.285140
1.862  43.240274
1.861  43.258485
1.860  43.300304
1.859  43.304048
1.858  43.417095
1.857  43.347253
1.856  43.359615
1.855  43.383474
1.854  43.405546
1.853  43.376638
1.852  43.380391
1.851  43.315698
1.850  43.334709
1.849  43.380540
1.848  43.448071
1.847  43.378701
1.846  43.410789
1.845  43.338623
1.844  43.423993
1.843  43.342934
1.842  43.389685
1.841  43.270849
1.840  43.397601
1.839  43.357439
1.838  43.382265
1.837  43.374630
1.836  43.416152
1.835  43.365590
1.834  43.393672
1.833  43.309852
1.832  43.202693
1.831  43.177103
1.830  43.231370
1.829  43.232432
1.828  43.245358
1.827  43.208128
1.826  43.224018
1.825  43.157389
1.824  43.125968
1.823  43.088106
1.822  43.127034
1.821  43.130122
1.820  43.118771
1.819  43.126980
1.818  43.163579
1.817  43.067000
1.816  43.042596
1.815  43.049898
1.814  43.022980
1.813  43.022275
1.812  42.976329
1.811  42.947107
1.810  42.966868
1.809  42.983473
1.808  43.012647
1.807  42.954030
1.806  42.905213
1.805  42.885233
1.804  42.915413
1.803  42.932750
1.802  42.921723
1.801  42.879413
1.800  42.922405
1.799  42.892250
1.798  42.892325
1.797  42.832343
1.796  42.844449
1.795  42.787613
1.794  42.699541
1.793  42.773380
1.792  42.850049
1.791  42.794788
1.790  42.744858
1.789  42.782250
1.788  42.777137
1.787  42.707938
1.786  42.734504
1.785  42.777735
1.784  42.728946
1.783  42.695527
1.782  42.670849
1.781  42.663993
1.780  42.665264
1.779  42.693454
1.778  42.728485
1.777  42.715628
1.776  42.719666
1.775  42.768016
1.774  42.797034
1.773  42.736896
1.772  42.731453
1.771  42.668635
1.770  42.610040
1.769  42.662740
1.768  42.656952
1.767  42.629267
1.766  42.575551
1.765  42.661142
1.764  42.648467
1.763  42.651573
1.762  42.602143
1.761  42.589825
1.760  42.580641
1.759  42.608801
1.758  42.608684
1.757  42.592185
1.756  42.590892
1.755  42.605281
1.754  42.556115
1.753  42.604670
1.752  42.559263
1.751  42.571082
1.750  42.521810
1.749  42.529886
1.748  42.534909
1.747  42.570196
1.746  42.569181
1.745  42.528993
1.744  42.482554
1.743  42.571777
1.742  42.540943
1.741  42.538196
1.740  42.481119
1.739  42.533624
1.738  42.478502
1.737  42.540407
1.736  42.498937
1.735  42.484334
1.734  42.465542
1.733  42.480830
1.732  42.435601
1.731  42.405178
1.730  42.437320
1.729  42.425145
1.728  42.388795
1.727  42.435646
1.726  42.356108
1.725  42.381329
1.724  42.364458
1.723  42.381440
1.722  42.341339
1.721  42.303442
1.720  42.361321
1.719  42.365674
1.718  42.319345
1.717  42.334044
1.716  42.274806
1.715  42.283328
1.714  42.314503
1.713  42.286526
1.712  42.214683
1.711  42.283126
1.710  42.190335
1.709  42.195915
1.708  42.143427
1.707  42.170666
1.706  42.144713
1.705  42.169226
1.704  42.133068
1.703  42.133841
1.702  42.012685
1.701  42.026867
1.700  42.004694
1.699  42.067562
1.698  41.987026
1.697  42.011604
1.696  42.030299
1.695  41.980652
1.694  41.955824
1.693  41.909288
1.692  41.860848
1.691  41.894485
1.690  41.870717
1.689  41.860568
1.688  41.753220
1.687  41.894480
1.686  41.793054
1.685  41.817474
1.684  41.730209
1.683  41.772555
1.682  41.741156
1.681  41.765533
1.680  41.808732
1.679  41.771342
1.678  41.612547
1.677  41.637356
1.676  41.616257
1.675  41.721327
1.674  41.654192
1.673  41.629811
1.672  41.538986
1.671  41.577357
1.670  41.557035
1.669  41.565503
1.668  41.344522
1.667  41.523751
1.666  41.431136
1.665  41.445716
1.664  41.364680
1.663  41.342623
1.662  41.336999
1.661  41.384482
1.660  41.285827
1.659  41.249463
1.658  41.258770
1.657  41.293198
1.656  41.173023
1.655  41.285507
1.654  41.265152
1.653  41.286337
1.652  41.208580
1.651  41.187647
1.650  41.141139
1.649  41.171301
1.648  41.080447
1.647  41.107560
1.646  41.133833
1.645  41.134176
1.644  40.992746
1.643  41.141342
1.642  41.014295
1.641  40.955949
1.640  41.069261
1.639  41.074734
1.638  40.982001
1.637  40.964638
1.636  40.893243
1.635  40.921076
1.634  40.832095
1.633  40.993338
1.632  40.829489
1.631  40.927227
1.630  40.834300
1.629  40.909375
1.628  40.771933
1.627  40.916410
1.626  40.792058
1.625  40.808541
1.624  40.725305
1.623  40.709219
1.622  40.718151
1.621  40.788591
1.620  40.671577
1.619  40.723744
1.618  40.699723
1.617  40.679937
1.616  40.579231
1.615  40.646351
1.614  40.601900
1.613  40.597300
1.612  40.546791
1.611  40.620516
1.610  40.533016
1.609  40.561373
1.608  40.444471
1.607  40.472292
1.606  40.382248
1.605  40.505635
1.604  40.440694
1.603  40.494076
1.602  40.412629
1.601  40.475219
1.600  40.350246
1.599  40.284070
1.598  40.333122
1.597  40.365780
1.596  40.253502
1.595  40.301690
1.594  40.262527
1.593  40.259718
1.592  40.184495
1.591  40.260502
1.590  40.220148
1.589  40.220107
1.588  40.126274
1.587  40.131354
1.586  40.057667
1.585  40.111775
1.584  40.081971
1.583  40.052453
1.582  40.029450
1.581  40.015880
1.580  40.006853
1.579  40.053818
1.578  39.948262
1.577  39.970784
1.576  39.929708
1.575  39.976094
1.574  39.865419
1.573  39.883610
1.572  39.840946
1.571  39.892856
1.570  39.786079
1.569  39.843689
1.568  39.753896
1.567  39.796014
1.566  39.723247
1.565  39.707568
1.564  39.602861
1.563  39.689766
1.562  39.667625
1.561  39.658550
1.560  39.588103
1.559  39.592808
1.558  39.594482
1.557  39.608720
1.556  39.549838
1.555  39.514386
1.554  39.458193
1.553  39.521585
1.552  39.490926
1.551  39.445152
1.550  39.404419
1.549  39.440943
1.548  39.369389
1.547  39.428900
1.546  39.342443
1.545  39.322143
1.544  39.301992
1.543  39.266776
1.542  39.272320
1.541  39.250872
1.540  39.172915
1.539  39.247335
1.538  39.221931
1.537  39.179747
1.536  39.115815
1.535  39.109491
1.534  39.078859
1.533  39.098119
1.532  39.025341
1.531  39.004147
1.530  38.956118
1.529  38.963525
1.528  38.964847
1.527  38.967738
1.526  38.931206
1.525  38.908771
1.524  38.831589
1.523  38.859576
1.522  38.801533
1.521  38.783278
1.520  38.794978
1.519  38.771249
1.518  38.734298
1.517  38.720793
1.516  38.731041
1.515  38.660233
1.514  38.607171
1.513  38.611952
1.512  38.585422
1.511  38.578829
1.510  38.487965
1.509  38.442306
1.508  38.450736
1.507  38.413194
1.506  38.403810
1.505  38.423583
1.504  38.408337
1.503  38.399541
1.502  38.382726
1.501  38.336830
1.500  38.328578
1.499  38.294774
1.498  38.261139
1.497  38.240769
1.496  38.173446
1.495  38.096410
1.494  38.138776
1.493  38.115991
1.492  38.039083
1.491  38.085788
1.490  38.067124
1.489  38.008371
1.488  37.967518
1.487  37.894067
1.486  37.881482
1.485  37.877244
1.484  37.893079
1.483  37.866314
1.482  37.812943
1.481  37.771112
1.480  37.783755
1.479  37.755846
1.478  37.758356
1.477  37.720728
1.476  37.711469
1.475  37.653622
1.474  37.665434
1.473  37.631190
1.472  37.577749
1.471  37.533971
1.470  37.512820
1.469  37.468330
1.468  37.519824
1.467  37.524603
1.466  37.455459
1.465  37.405423
1.464  37.425939
1.463  37.377089
1.462  37.366371
1.461  37.306131
1.460  37.339271
1.459  37.259556
1.458  37.243138
1.457  37.270157
1.456  37.280727
1.455  37.191989
1.454  37.214849
1.453  37.174938
1.452  37.210375
1.451  37.127631
1.450  37.171341
1.449  37.113151
1.448  37.138189
1.447  37.053889
1.446  37.075818
1.445  37.091031
1.444  37.062182
1.443  37.004144
1.442  36.994193
1.441  36.915432
1.440  36.961138
1.439  36.949771
1.438  36.876917
1.437  36.835025
1.436  36.900091
1.435  36.949074
1.434  36.917573
1.433  36.873643
1.432  36.899498
1.431  36.810286
1.430  36.885707
1.429  36.806465
1.428  36.888433
1.427  36.856594
1.426  36.841305
1.425  36.727175
1.424  36.819110
1.423  36.749721
1.422  36.748941
1.421  36.675176
1.420  36.775102
1.419  36.739060
1.418  36.759881
1.417  36.674764
1.416  36.773240
1.415  36.692559
1.414  36.718621
1.413  36.640556
1.412  36.750271
1.411  36.653374
1.410  36.724535
1.409  36.698240
1.408  36.746908
1.407  36.742433
1.406  36.801043
1.405  36.745775
1.404  36.860515
1.403  36.773434
1.402  36.794993
1.401  36.772458
1.400  36.771923
1.399  36.786017
1.398  36.801056
1.397  36.727361
1.396  36.856720
1.395  36.841377
1.394  36.882312
1.393  36.932805
1.392  37.007767
1.391  36.903294
1.390  36.877943
1.389  36.916772
1.388  36.991214
1.387  36.857658
1.386  36.929028
1.385  36.887657
1.384  36.984940
1.383  36.963576
1.382  36.923646
1.381  36.884392
1.380  36.969233
1.379  36.922285
1.378  36.933305
1.377  36.853961
1.376  36.845128
1.375  36.789374
1.374  36.881710
1.373  36.819746
1.372  36.849532
1.371  36.758763
1.370  36.833162
1.369  36.761583
1.368  36.799812
1.367  36.755215
1.366  36.770245
1.365  36.718875
1.364  36.732490
1.363  36.653075
1.362  36.700306
1.361  36.621202
1.360  36.721809
1.359  36.570560
1.358  36.622647
1.357  36.627362
1.356  36.667339
1.355  36.787688
1.354  36.605715
1.353  36.483371
1.352  36.608580
1.351  36.456757
1.350  36.461310
1.349  36.333828
1.348  36.547150
1.347  36.305044
1.346  36.421987
1.345  36.323313
1.344  36.396779
1.343  36.352417
1.342  36.325863
1.341  36.250095
1.340  36.315886
1.339  36.315394
1.338  36.283778
1.337  36.229163
1.336  36.303363
1.335  36.244441
1.334  36.141148
1.333  36.163876
1.332  36.179382
1.331  36.162034
1.330  36.145217
1.329  36.096883
1.328  36.168406
1.327  36.125289
1.326  36.126846
1.325  36.099095
1.324  36.089232
1.323  36.074674
1.322  36.010942
1.321  35.944773
1.320  36.012013
1.319  35.989130
1.318  36.002400
1.317  35.884943
1.316  35.910865
1.315  35.895447
1.314  35.928129
1.313  35.902878
1.312  35.857695
1.311  35.880873
1.310  35.874975
1.309  35.767401
1.308  35.796689
1.307  35.750468
1.306  35.789667
1.305  35.761449
1.304  35.788202
1.303  35.734097
1.302  35.771120
1.301  35.629389
1.300  35.722986
1.299  35.667857
1.298  35.665839
1.297  35.610439
1.296  35.691572
1.295  35.579682
1.294  35.625979
1.293  35.580955
1.292  35.606547
1.291  35.519395
1.290  35.542676
1.289  35.534382
1.288  35.529005
1.287  35.500383
1.286  35.506798
1.285  35.457869
1.284  35.485855
1.283  35.448807
1.282  35.461167
1.281  35.416775
1.280  35.441934
1.279  35.398286
1.278  35.398495
1.277  35.386565
1.276  35.388587
1.275  35.317099
1.274  35.338148
1.273  35.287676
1.272  35.297415
1.271  35.211139
1.270  35.277114
1.269  35.215836
1.268  35.255517
1.267  35.210594
1.266  35.219254
1.265  35.164312
1.264  35.172091
1.263  35.150469
1.262  35.104853
1.261  35.079625
1.260  35.068323
1.259  35.068050
1.258  35.048232
1.257  35.034855
1.256  35.097421
1.255  34.991387
1.254  35.012552
1.253  34.972135
1.252  35.003821
1.251  34.978166
1.250  34.971488
1.249  34.938567
1.248  34.977423
1.247  34.901029
1.246  34.898002
1.245  34.910279
1.244  34.888535
1.243  34.864705
1.242  34.851286
1.241  34.818168
1.240  34.836335
1.239  34.789234
1.238  34.832381
1.237  34.809712
1.236  34.705161
1.235  34.699775
1.234  34.732559
1.233  34.712114
1.232  34.739207
1.231  34.676454
1.230  34.692659
1.229  34.696319
1.228  34.702265
1.227  34.696502
1.226  34.615413
1.225  34.597225
1.224  34.591047
1.223  34.587573
1.222  34.608755
1.221  34.566031
1.220  34.532735
1.219  34.507807
1.218  34.511886
1.217  34.487410
1.216  34.489226
1.215  34.495367
1.214  34.512222
1.213  34.497389
1.212  34.430421
1.211  34.413251
1.210  34.433407
1.209  34.463295
1.208  34.465747
1.207  34.441559
1.206  34.376000
1.205  34.374034
1.204  34.355312
1.203  34.315577
1.202  34.338357
1.201  34.392504
1.200  34.321437
1.199  34.323212
1.198  34.316014
1.197  34.287525
1.196  34.280722
1.195  34.295133
1.194  34.240874
1.193  34.277294
1.192  34.248722
1.191  34.170728
1.190  34.191471
1.189  34.254161
1.188  34.136592
1.187  34.213488
1.186  34.233998
1.185  34.181645
1.184  34.144531
1.183  34.145298
1.182  34.130938
1.181  34.166226
1.180  34.107022
1.179  34.076316
1.178  34.040214
1.177  34.092759
1.176  34.077813
1.175  34.041541
1.174  33.955475
1.173  34.001370
1.172  33.991754
1.171  34.078848
1.170  34.041072
1.169  34.047274
1.168  33.998291
1.167  34.016528
1.166  33.955788
1.165  33.973987
1.164  33.990874
1.163  33.993289
1.162  33.922115
1.161  33.945623
1.160  33.941217
1.159  33.915573
1.158  33.864805
1.157  33.917551
1.156  33.896059
1.155  33.877556
1.154  33.850467
1.153  33.844839
1.152  33.821993
1.151  33.825743
1.150  33.830985
1.149  33.902077
1.148  33.854170
1.147  33.807986
1.146  33.773624
1.145  33.864877
1.144  33.810915
1.143  33.817954
1.142  33.743062
1.141  33.789990
1.140  33.702410
1.139  33.770320
1.138  33.750502
1.137  33.788551
1.136  33.719083
1.135  33.757587
1.134  33.655972
1.133  33.741825
1.132  33.638817
1.131  33.710538
1.130  33.626261
1.129  33.726773
1.128  33.654964
1.127  33.675057
1.126  33.674579
1.125  33.732117
1.124  33.616154
1.123  33.655780
1.122  33.596056
1.121  33.614746
1.120  33.554571
1.119  33.590956
1.118  33.510996
1.117  33.599312
1.116  33.554242
1.115  33.609124
1.114  33.441226
1.113  33.563154
1.112  33.499710
1.111  33.517376
1.110  33.470477
1.109  33.550175
1.108  33.466588
1.107  33.542678
1.106  33.426085
1.105  33.474304
1.104  33.459937
1.103  33.471779
1.102  33.474121
1.101  33.516483
1.100  33.419883
1.099  33.374514
1.098  33.366561
1.097  33.453934
1.096  33.390587
1.095  33.423760
1.094  33.326638
1.093  33.408284
1.092  33.365660
1.091  33.426884
1.090  33.348869
1.089  33.376855
1.088  33.270731
1.087  33.362000
1.086  33.278311
1.085  33.302910
1.084  33.234281
1.083  33.344840
1.082  33.281527
1.081  33.420478
1.080  33.266457
1.079  33.232630
1.078  33.136200
1.077  33.271406
1.076  33.143472
1.075  33.301653
1.074  33.150606
1.073  33.187014
1.072  33.171659
1.071  33.336380
1.070  32.995195
1.069  33.283622
1.068  33.061867
1.067  33.208670
1.066  33.077290
1.065  33.199128
1.064  33.096062
1.063  33.163843
1.062  33.043191
1.061  33.124097
1.060  32.952095
1.059  33.144518
1.058  33.034195
1.057  33.024919
1.056  33.005960
1.055  33.019465
1.054  33.022476
1.053  33.015776
1.052  32.984982
1.051  33.052322
1.050  32.894472
1.049  32.990592
1.048  32.934010
1.047  32.959908
1.046  32.874321
1.045  32.967695
1.044  32.904349
1.043  32.986499
1.042  32.827041
1.041  32.950841
1.040  32.772869
1.039  32.842705
1.038  32.754436
1.037  32.936603
1.036  32.790245
1.035  32.801857
1.034  32.678847
1.033  32.781325
1.032  32.731452
1.031  32.789245
1.030  32.670708
1.029  32.777787
1.028  32.645588
1.027  32.785759
1.026  32.688468
1.025  32.752601
1.024  32.660653
1.023  32.729556
1.022  32.675495
1.021  32.634502
1.020  32.613484
1.019  32.629603
1.018  32.567997
1.017  32.617626
1.016  32.488008
1.015  32.569849
1.014  32.504147
1.013  32.500413
1.012  32.465404
1.011  32.558011
1.010  32.459681
1.009  32.528371
1.008  32.382554
1.007  32.476935
1.006  32.418488
1.005  32.382600
1.004  32.410730
1.003  32.438921
1.002  32.378254
1.001  32.433293
1.000  32.325060
0.999  32.295943
0.998  32.294647
0.997  32.306898
0.996  32.240726
0.995  32.273214
0.994  32.259805
0.993  32.287494
0.992  32.216818
0.991  32.277184
0.990  32.201172
0.989  32.194981
0.988  32.124279
0.987  32.155909
0.986  32.108212
0.985  32.132647
0.984  32.091616
0.983  32.113881
0.982  32.153046
0.981  32.114193
0.980  32.036213
0.979  32.022009
0.978  32.002531
0.977  32.039648
0.976  31.978312
0.975  31.996824
0.974  31.925027
0.973  31.966771
0.972  31.947193
0.971  31.945924
0.970  31.858027
0.969  31.873094
0.968  31.894981
0.967  31.867518
0.966  31.814432
0.965  31.855508
0.964  31.797314
0.963  31.810613
0.962  31.736853
0.961  31.755647
0.960  31.750423
0.959  31.735183
0.958  31.713024
0.957  31.715089
0.956  31.722273
0.955  31.739544
0.954  31.675502
0.953  31.638278
0.952  31.605427
0.951  31.641403
0.950  31.629419
0.949  31.597329
0.948  31.574441
0.947  31.573247
0.946  31.585307
0.945  31.557913
0.944  31.520988
0.943  31.553252
0.942  31.534783
0.941  31.556012
0.940  31.504709
0.939  31.462166
0.938  31.497647
0.937  31.500022
0.936  31.448036
0.935  31.410614
0.934  31.417630
0.933  31.440257
0.932  31.405340
0.931  31.378075
0.930  31.361872
0.929  31.326585
0.928  31.341402
0.927  31.339090
0.926  31.317254
0.925  31.297571
0.924  31.319809
0.923  31.296711
0.922  31.307496
0.921  31.302714
0.920  31.343138
0.919  31.329381
0.918  31.276868
0.917  31.280316
0.916  31.328044
0.915  31.298205
0.914  31.285022
0.913  31.270521
0.912  31.303048
0.911  31.241432
0.910  31.254823
0.909  31.252690
0.908  31.222147
0.907  31.269231
0.906  31.279509
0.905  31.239847
0.904  31.266048
0.903  31.256075
0.902  31.281072
0.901  31.293556
0.900  31.252743
0.899  31.240015
0.898  31.317094
0.897  31.336282
0.896  31.402798
0.895  31.316899
0.894  31.317488
0.893  31.328413
0.892  31.308970
0.891  31.270462
0.890  31.386817
0.889  31.374529
0.888  31.389252
0.887  31.374548
0.886  31.418756
0.885  31.372838
0.884  31.368401
0.883  31.346175
0.882  31.423292
0.881  31.383426
0.880  31.403934
0.879  31.401618
0.878  31.446516
0.877  31.392429
0.876  31.434298
0.875  31.391287
0.874  31.442228
0.873  31.434553
0.872  31.380646
0.871  31.324465
0.870  31.401882
0.869  31.374417
0.868  31.332180
0.867  31.258530
0.866  31.362332
0.865  31.275189
0.864  31.257490
0.863  31.254431
0.862  31.258658
0.861  31.185289
0.860  31.500708
0.859  31.512784
0.858  31.514269
0.857  31.494364
0.856  31.481338
0.855  31.471427
0.854  31.459378
0.853  31.414220
0.852  31.401230
0.851  31.391781
0.850  31.366096
0.849  31.328765
0.848  31.345709
0.847  31.341612
0.846  31.330286
0.845  31.280689
0.844  31.228984
0.843  31.224870
0.842  31.202239
0.841  31.172502
0.840  31.146155
0.839  31.119258
0.838  31.104448
0.837  31.056827
0.836  31.061452
0.835  31.044833
0.834  31.009135
0.833  30.996314
0.832  30.969020
0.831  30.937276
0.830  30.907815
0.829  30.852426
0.828  30.845088
0.827  30.823421
0.826  30.779384
0.825  30.765353
0.824  30.719921
0.823  30.694395
0.822  30.696568
0.821  30.661040
0.820  30.620107
0.819  30.605524
0.818  30.590836
0.817  30.550928
0.816  30.535038
0.815  30.501544
0.814  30.479449
0.813  30.418744
0.812  30.415574
0.811  30.394640
0.810  30.345281
0.809  30.331590
0.808  30.325447
0.807  30.291380
0.806  30.269234
0.805  30.245126
0.804  30.201260
0.803  30.180413
0.802  30.134140
0.801  30.137987
0.800  30.082002
0.799  30.040798
0.798  30.017358
0.797  29.980816
0.796  29.976011
0.795  29.927829
0.794  29.896826
0.793  29.844067
0.792  29.826024
0.791  29.816204
0.790  29.782363
0.789  29.730170
0.788  29.702717
0.787  29.693229
0.786  29.650955
0.785  29.629474
0.784  29.604900
0.783  29.579605
0.782  29.567345
0.781  29.516315
0.780  29.474128
0.779  29.468786
0.778  29.413479
0.777  29.389229
0.776  29.356352
0.775  29.332283
0.774  29.307301
0.773  29.271317
0.772  29.229409
0.771  29.214489
0.770  29.185062
0.769  29.134084
0.768  29.110481
0.767  29.087943
0.766  29.036901
0.765  29.011896
0.764  29.003965
0.763  28.960495
0.762  28.940134
0.761  28.919296
0.760  28.903445
0.759  28.874880
0.758  28.846442
0.757  28.815316
0.756  28.783313
0.755  28.764467
0.754  28.735573
0.753  28.699612
0.752  28.682847
0.751  28.653572
0.750  28.612374
0.749  28.595822
0.748  28.580053
0.747  28.556788
0.746  28.514148
0.745  28.498949
0.744  28.484355
0.743  28.451553
0.742  28.435753
0.741  28.405828
0.740  28.377484
0.739  28.355148
0.738  28.340282
0.737  28.326493
0.736  28.291991
0.735  28.282437
0.734  28.252615
0.733  28.242034
0.732  28.211704
0.731  28.194688
0.730  28.165942
0.729  28.144688
0.728  28.130880
0.727  28.102494
0.726  28.080762
0.725  28.070077
0.724  28.060610
0.723  28.031156
0.722  28.012174
0.721  27.992892
0.720  27.969487
0.719  27.950952
0.718  27.934444
0.717  27.919332
0.716  27.896645
0.715  27.881061
0.714  27.866313
0.713  27.845958
0.712  27.830981
0.711  27.818169
0.710  27.796227
0.709  27.785747
0.708  27.778342
0.707  27.752457
0.706  27.730282
0.705  27.721281
0.704  27.703915
0.703  27.681438
0.702  27.672035
0.701  27.653230
0.700  27.642986
0.699  27.635836
0.698  27.612742
0.697  27.597641
0.696  27.585303
0.695  27.576829
0.694  27.574208
0.693  27.551743
0.692  27.532073
0.691  27.521027
0.690  27.514279
0.689  27.498923
0.688  27.477596
0.687  27.476264
0.686  27.464753
0.685  27.445089
0.684  27.444390
0.683  27.432388
0.682  27.424311
0.681  27.405490
0.680  27.387968
0.679  27.382755
0.678  27.374822
0.677  27.362198
0.676  27.353065
0.675  27.345916
0.674  27.335419
0.673  27.329047
0.672  27.329493
0.671  27.325056
0.670  27.310451
0.669  27.288669
0.668  27.281773
0.667  27.274691
0.666  27.264514
0.665  27.261764
0.664  27.254254
0.663  27.249468
0.662  27.240442
0.661  27.226719
0.660  27.221485
0.659  27.220647
0.658  27.215618
0.657  27.205669
0.656  27.198391
0.655  27.191681
0.654  27.186697
0.653  27.181036
0.652  27.177057
0.651  27.169753
0.650  27.163524
0.649  27.156565
0.648  27.145480
0.647  27.140629
0.646  27.131168
0.645  27.126387
0.644  27.127502
0.643  27.120946
0.642  27.107929
0.641  27.103181
0.640  27.107823
0.639  27.110429
0.638  27.101643
0.637  27.087446
0.636  27.085114
0.635  27.083152
0.634  27.076362
0.633  27.070567
0.632  27.067180
0.631  27.060921
0.630  27.054506
0.629  27.050091
0.628  27.047830
0.627  27.046356
0.626  27.038184
0.625  27.033404
0.624  27.033567
0.623  27.026330
0.622  27.015303
0.621  27.014929
0.620  27.010332
0.619  26.999848
0.618  26.995459
0.617  26.992876
0.616  26.983287
0.615  26.971008
0.614  26.973560
0.613  26.975994
0.612  26.965961
0.611  26.963510
0.610  26.954286
0.609  26.938643
0.608  26.932582
0.607  26.931342
0.606  26.920078
0.605  26.912256
0.604  26.904811
0.603  26.895545
0.602  26.889384
0.601  26.880643
0.600  26.868807
0.599  26.865219
0.598  26.866092
0.597  26.862840
0.596  26.859240
0.595  26.856324
0.594  26.843875
0.593  26.832275
0.592  26.822629
0.591  26.810013
0.590  26.797919
0.589  26.781671
0.588  26.767992
0.587  26.753527
0.586  26.743108
0.585  26.728955
0.584  26.716732
0.583  26.698828
0.582  26.678167
0.581  26.663056
0.580  26.647287
0.579  26.633250
0.578  26.615399
0.577  26.603091
0.576  26.587660
0.575  26.564402
0.574  26.541924
0.573  26.520775
0.572  26.503346
0.571  26.489754
0.570  26.472981
0.569  26.444133
0.568  26.422492
0.567  26.396609
0.566  26.377813
0.565  26.351491
0.564  26.327776
0.563  26.298924
0.562  26.276869
0.561  26.302482
0.560  26.290953
0.559  26.269467
0.558  26.245618
0.557  26.224526
0.556  26.199271
0.555  26.171788
0.554  26.147537
0.553  26.128557
0.552  26.097266
0.551  26.073385
0.550  26.047798
0.549  26.023625
0.548  25.992202
0.547  25.969407
0.546  25.940952
0.545  25.904751
0.544  25.877248
0.543  25.845658
0.542  25.820553
0.541  25.793962
0.540  25.762911
0.539  25.735276
0.538  25.705253
0.537  25.672290
0.536  25.644365
0.535  25.610675
0.534  25.575868
0.533  25.543512
0.532  25.508565
0.531  25.471476
0.530  25.441264
0.529  25.415800
0.528  25.374810
0.527  25.343603
0.526  25.311208
0.525  25.278322
0.524  25.240293
0.523  25.211778
0.522  25.175996
0.521  25.142362
0.520  25.111544
0.519  25.079218
0.518  25.050491
0.517  25.015516
0.516  24.978641
0.515  24.950160
0.514  24.907993
0.513  24.880728
0.512  24.843918
0.511  24.824690
0.510  24.786405
0.509  24.756533
0.508  24.730182
0.507  24.695990
0.506  24.669161
0.505  24.648302
0.504  24.618434
0.503  24.585659
0.502  24.555139
0.501  24.526436
0.500  24.504309
0.499  24.475826
0.498  24.459427
0.497  24.420781
0.496  24.402349
0.495  24.383697
0.494  24.362921
0.493  24.347003
0.492  24.326114
0.491  24.313394
0.490  24.295030
0.489  24.280153
0.488  24.267778
0.487  24.245588
0.486  24.234386
0.485  24.223440
0.484  24.201852
0.483  24.178163
0.482  24.137924
0.481  24.076994
0.480  24.016712
0.479  23.976432
0.478  23.942916
0.477  23.898400
0.476  23.876285
0.475  23.849933
0.474  23.819275
0.473  23.792445
0.472  23.764994
0.471  23.736714
0.470  23.707032
0.469  23.675553
0.468  23.660519
0.467  23.627386
0.466  23.604453
0.465  23.573818
0.464  23.548398
0.463  23.523871
0.462  23.508948
0.461  23.486207
0.460  23.465290
0.459  23.434713
0.458  23.423191
0.457  23.399022
0.456  23.374908
0.455  23.358243
0.454  23.336195
0.453  23.306629
0.452  23.283899
0.451  23.262130
0.450  23.242747
0.449  23.216189
0.448  23.195508
0.447  23.167083
0.446  23.164937
0.445  23.146352
0.444  23.118031
0.443  23.079104
0.442  23.055584
0.441  23.024081
0.440  22.999447
0.439  22.972447
0.438  22.940850
0.437  22.905014
0.436  22.881931
0.435  22.854015
0.434  22.835077
0.433  22.808946
0.432  22.777868
0.431  22.752972
0.430  22.726837
0.429  22.699768
0.428  22.673633
0.427  22.641406
0.426  22.613596
0.425  22.589223
0.424  22.562551
0.423  22.530186
0.422  22.507387
0.421  22.479877
0.420  22.461182
0.419  22.430097
0.418  22.408953
0.417  22.388689
0.416  22.371092
0.415  22.350505
0.414  22.323461
0.413  22.312810
0.412  22.298184
0.411  22.274908
0.410  22.259765
0.409  22.237817
0.408  22.226229
0.407  22.198689
0.406  22.178457
0.405  22.151209
0.404  22.144629
0.403  22.118880
0.402  22.101738
0.401  22.082965
0.400  22.057335
