Name: Quartz Felsite Porphyry
Type: Rock
Class: Igneous
Subclass:  Felsic 
Particle Size: Solid surface
Sample No.: Ward09.txt
Owner: JPL
Wavelength range:  IR
Origin: Ward's Collection of American Rocks.  Sample locality - Marblehead, Essex County, Massachusetts.
Collected by:  Ward's Natural Science
Description: A dark gray, compact, porphyritic rock with phenocrysts of
feldspar and quartz in a cryptocrystalline groundmass.
Geologic age - Devonian or Carboniferous.



Measurement: Hemispherical reflectance
First Column: X
Second Column: Y
X Units: Wavelength (micrometers)
Y Units: Reflectance (percent)
First X Value: 15.3871
Last X Value: 1.9998
Number of X Values: 2257
Additional information: None

15.3871   6.31401
15.3416   6.31120
15.2964   6.25223
15.2514   5.80464
15.2066   5.40656
15.1622   4.97884
15.1180   4.80177
15.0740   4.58333
15.0303   4.35654
14.9869   4.21757
14.9437   4.23047
14.9008   4.17724
14.8581   4.27841
14.8156   4.35841
14.7734   4.43084
14.7314   4.42947
14.6897   4.66547
14.6482   5.05746
14.6069   5.06226
14.5659   5.16529
14.5251   5.19188
14.4845   5.29929
14.4442   5.58120
14.4041   5.66046
14.3642   5.45197
14.3245   4.86253
14.2850   4.75757
14.2458   5.08952
14.2068   5.29132
14.1679   5.37476
14.1293   5.40351
14.0909   5.57097
14.0528   5.79484
14.0148   5.97251
13.9770   6.02628
13.9394   6.18082
13.9021   6.35852
13.8649   6.44211
13.8279   6.51797
13.7911   6.38791
13.7546   6.17797
13.7182   6.13234
13.6820   6.06929
13.6460   5.96111
13.6101   6.00012
13.5745   6.21214
13.5391   6.36590
13.5038   6.38171
13.4687   6.38434
13.4339   6.54237
13.3991   6.61537
13.3646   6.57235
13.3302   6.56287
13.2961   6.64568
13.2621   6.76455
13.2282   6.84754
13.1946   7.06008
13.1611   7.26041
13.1278   7.25691
13.0946   7.34045
13.0616   7.44062
13.0288   7.14785
12.9962   6.91427
12.9637   7.17124
12.9313   7.59517
12.8992   8.02874
12.8672   8.35470
12.8353   8.65458
12.8036   8.60601
12.7721   8.39085
12.7407   8.00330
12.7095   7.52176
12.6784   7.11095
12.6475   6.80820
12.6167   6.73964
12.5861   6.73468
12.5556   6.97710
12.5253   7.19379
12.4951   7.21459
12.4651   6.82122
12.4352   6.10116
12.4054   5.24438
12.3758   4.58010
12.3463   4.07014
12.3170   3.82842
12.2878   3.79172
12.2588   3.91412
12.2299   4.01617
12.2011   4.15299
12.1725   4.40510
12.1439   4.58356
12.1156   4.68616
12.0873   4.96423
12.0592   5.17698
12.0312   5.14104
12.0034   5.13019
11.9757   5.23355
11.9481   5.26586
11.9206   5.35367
11.8933   5.56729
11.8661   5.73540
11.8390   5.76371
11.8120   5.83774
11.7852   6.11322
11.7584   6.28561
11.7318   6.29476
11.7053   6.34069
11.6790   6.36114
11.6527   6.44373
11.6266   6.55800
11.6006   6.69158
11.5747   6.81790
11.5489   6.87113
11.5233   6.80852
11.4977   6.85917
11.4723   6.87344
11.4469   6.95397
11.4217   7.25020
11.3966   7.44313
11.3716   7.55798
11.3468   7.64081
11.3220   7.68576
11.2973   7.73290
11.2728   7.80775
11.2483   7.81383
11.2240   7.90355
11.1997   8.06980
11.1756   8.14604
11.1515   8.18489
11.1276   8.14483
11.1038   8.23748
11.0801   8.42519
11.0564   8.66808
11.0329   8.80910
11.0095   8.82681
10.9862   8.91561
10.9629   9.07193
10.9398   9.14106
10.9168   9.21838
10.8938   9.39754
10.8710   9.48534
10.8483   9.66531
10.8256  10.01560
10.8031  10.11530
10.7806  10.16220
10.7582  10.18050
10.7360  10.11270
10.7138  10.34760
10.6917  10.56450
10.6697  10.70640
10.6478  10.95820
10.6260  11.14870
10.6042  11.33450
10.5826  11.58780
10.5610  11.74710
10.5396  11.91210
10.5182  12.15860
10.4969  12.38030
10.4757  12.56580
10.4546  12.80830
10.4335  13.13470
10.4126  13.46680
10.3917  13.60230
10.3709  13.89520
10.3502  14.51970
10.3296  14.97620
10.3091  15.27030
10.2886  15.70860
10.2683  16.29250
10.2480  16.78850
10.2277  17.25540
10.2076  17.68800
10.1876  18.17420
10.1676  18.63610
10.1477  19.00480
10.1279  19.51850
10.1081  20.11280
10.0885  20.62660
10.0689  20.92280
10.0494  21.12450
10.0299  21.52360
10.0106  22.03310
 9.9913  22.57720
 9.9720  23.03510
 9.9529  23.33470
 9.9338  23.68040
 9.9148  24.02060
 9.8959  24.11530
 9.8771  24.16160
 9.8583  24.10660
 9.8396  23.96020
 9.8210  23.78650
 9.8024  23.63880
 9.7839  23.58770
 9.7655  23.95660
 9.7471  24.44400
 9.7288  25.08770
 9.7106  25.92630
 9.6925  26.68210
 9.6744  27.36450
 9.6564  27.87980
 9.6384  28.10880
 9.6205  28.07940
 9.6027  27.95510
 9.5850  27.91990
 9.5673  27.58410
 9.5497  27.17140
 9.5321  26.84370
 9.5146  26.52360
 9.4972  26.27160
 9.4798  26.15070
 9.4625  25.99950
 9.4453  26.12030
 9.4281  26.43930
 9.4110  26.76100
 9.3940  27.22780
 9.3770  27.89930
 9.3600  28.36320
 9.3432  28.67890
 9.3264  29.15800
 9.3096  29.57380
 9.2930  29.67060
 9.2763  29.72650
 9.2598  29.78140
 9.2432  29.74920
 9.2268  29.56580
 9.2104  29.52000
 9.1941  29.56640
 9.1778  29.65950
 9.1616  29.62060
 9.1454  29.50520
 9.1293  29.26340
 9.1133  28.95340
 9.0973  28.74770
 9.0814  28.52350
 9.0655  28.32350
 9.0497  28.29800
 9.0339  28.08190
 9.0182  27.74170
 9.0025  27.70730
 8.9870  27.60670
 8.9714  27.44840
 8.9559  27.40850
 8.9405  27.43040
 8.9251  27.55220
 8.9097  27.67660
 8.8945  27.74310
 8.8792  27.90890
 8.8641  28.23620
 8.8489  28.43310
 8.8338  28.68790
 8.8188  28.85940
 8.8039  28.92810
 8.7889  28.94940
 8.7741  29.08850
 8.7592  29.07490
 8.7445  29.03720
 8.7297  29.13030
 8.7151  29.20690
 8.7005  29.01490
 8.6859  28.59980
 8.6714  27.92730
 8.6569  26.96710
 8.6425  25.95780
 8.6281  25.59040
 8.6137  26.20630
 8.5994  27.31380
 8.5852  28.24210
 8.5710  28.95210
 8.5569  29.48550
 8.5428  29.59230
 8.5287  29.56870
 8.5147  29.55410
 8.5008  29.49900
 8.4869  29.49570
 8.4730  29.42580
 8.4592  29.34170
 8.4454  29.19600
 8.4316  29.06970
 8.4180  28.84780
 8.4043  28.59050
 8.3907  28.22210
 8.3772  27.83620
 8.3637  27.44010
 8.3502  27.02350
 8.3368  26.58260
 8.3234  26.16700
 8.3100  25.68980
 8.2967  25.09980
 8.2835  24.57500
 8.2703  24.14490
 8.2571  23.62050
 8.2440  23.11790
 8.2309  22.65400
 8.2179  22.10630
 8.2049  21.58980
 8.1919  20.99780
 8.1790  20.21160
 8.1661  19.33130
 8.1532  18.26830
 8.1404  17.11550
 8.1277  15.92560
 8.1150  14.70360
 8.1023  13.56190
 8.0897  12.53620
 8.0770  11.52340
 8.0645  10.65550
 8.0520   9.91991
 8.0395   9.22219
 8.0270   8.58041
 8.0146   8.04122
 8.0023   7.54981
 7.9899   7.07328
 7.9776   6.65743
 7.9654   6.19659
 7.9532   5.80952
 7.9410   5.46799
 7.9288   5.02251
 7.9167   4.53550
 7.9047   4.28737
 7.8926   4.17338
 7.8807   3.89711
 7.8687   3.74824
 7.8568   3.70107
 7.8449   3.51253
 7.8330   3.31332
 7.8212   3.18758
 7.8094   3.11305
 7.7977   3.04939
 7.7860   2.88220
 7.7743   2.83618
 7.7627   2.84901
 7.7511   2.85465
 7.7395   2.82993
 7.7280   2.76491
 7.7165   2.70704
 7.7050   2.59335
 7.6936   2.49503
 7.6822   2.46119
 7.6708   2.50722
 7.6595   2.48618
 7.6482   2.42334
 7.6369   2.43201
 7.6257   2.35848
 7.6145   2.27433
 7.6033   2.28807
 7.5922   2.26463
 7.5811   2.17987
 7.5700   2.09049
 7.5590   2.13680
 7.5480   2.21445
 7.5370   2.17802
 7.5261   2.14235
 7.5152   2.17691
 7.5043   2.15642
 7.4935   2.02547
 7.4826   1.98166
 7.4718   1.98282
 7.4611   1.96405
 7.4504   1.98717
 7.4397   2.03471
 7.4290   2.01314
 7.4184   2.00110
 7.4078   2.03545
 7.3972   2.03806
 7.3867   2.04634
 7.3762   2.07537
 7.3657   1.99804
 7.3553   2.02144
 7.3449   2.04000
 7.3345   1.98371
 7.3241   1.95447
 7.3138   1.99410
 7.3035   2.06850
 7.2932   2.09703
 7.2830   2.10394
 7.2727   2.08639
 7.2626   2.01730
 7.2524   1.96897
 7.2423   1.96798
 7.2322   1.96609
 7.2221   2.01373
 7.2120   2.06346
 7.2020   2.14294
 7.1921   2.20752
 7.1821   2.19155
 7.1722   2.22508
 7.1623   2.13844
 7.1524   2.11306
 7.1425   2.06106
 7.1327   2.07725
 7.1229   2.10474
 7.1131   2.01776
 7.1034   1.97615
 7.0937   2.05896
 7.0840   2.13683
 7.0743   2.14207
 7.0647   2.13525
 7.0551   2.14898
 7.0455   2.19213
 7.0359   2.19142
 7.0264   2.25008
 7.0169   2.26466
 7.0074   2.19737
 6.9979   2.16366
 6.9885   2.04992
 6.9791   2.01009
 6.9697   2.04834
 6.9604   2.13334
 6.9510   2.26389
 6.9417   2.30666
 6.9324   2.22542
 6.9232   2.13681
 6.9140   2.20632
 6.9047   2.19204
 6.8956   2.07604
 6.8864   2.06702
 6.8773   2.07473
 6.8682   2.15203
 6.8591   2.23877
 6.8500   2.20919
 6.8410   2.16192
 6.8320   2.07273
 6.8230   2.05514
 6.8140   2.11805
 6.8051   2.12036
 6.7962   2.16783
 6.7873   2.17034
 6.7784   2.16326
 6.7695   2.02242
 6.7607   1.94232
 6.7519   1.96345
 6.7431   1.97297
 6.7344   2.03366
 6.7256   2.16522
 6.7169   2.12223
 6.7082   2.03187
 6.6996   2.08347
 6.6909   2.17284
 6.6823   2.21329
 6.6737   2.21140
 6.6651   2.19760
 6.6566   2.19970
 6.6480   2.26521
 6.6395   2.30871
 6.6310   2.26057
 6.6226   2.20297
 6.6141   2.12225
 6.6057   2.16516
 6.5973   2.23233
 6.5889   2.17811
 6.5805   2.12373
 6.5722   2.27501
 6.5639   2.28247
 6.5556   2.28474
 6.5473   2.29774
 6.5390   2.26800
 6.5308   2.29891
 6.5226   2.38896
 6.5144   2.40637
 6.5062   2.38953
 6.4981   2.41755
 6.4900   2.49104
 6.4818   2.52700
 6.4737   2.43422
 6.4657   2.32243
 6.4576   2.35931
 6.4496   2.43873
 6.4416   2.51157
 6.4336   2.55773
 6.4256   2.57503
 6.4177   2.69597
 6.4097   2.72073
 6.4018   2.52750
 6.3939   2.46065
 6.3860   2.44672
 6.3782   2.35102
 6.3704   2.38908
 6.3625   2.40337
 6.3547   2.38747
 6.3470   2.38715
 6.3392   2.42486
 6.3315   2.46522
 6.3237   2.39148
 6.3160   2.35341
 6.3083   2.38113
 6.3007   2.35350
 6.2930   2.30441
 6.2854   2.36928
 6.2778   2.43895
 6.2702   2.29000
 6.2626   2.19517
 6.2551   2.22820
 6.2476   2.19477
 6.2400   2.22876
 6.2325   2.26760
 6.2251   2.22451
 6.2176   2.16324
 6.2101   2.20577
 6.2027   2.30234
 6.1953   2.37440
 6.1879   2.49259
 6.1805   2.45953
 6.1732   2.43493
 6.1658   2.34811
 6.1585   2.34059
 6.1512   2.43596
 6.1439   2.50435
 6.1367   2.49546
 6.1294   2.51888
 6.1222   2.53591
 6.1149   2.55327
 6.1077   2.45766
 6.1006   2.50143
 6.0934   2.57921
 6.0862   2.54916
 6.0791   2.51641
 6.0720   2.58669
 6.0649   2.60766
 6.0578   2.63869
 6.0507   2.79551
 6.0437   2.72765
 6.0366   2.69874
 6.0296   2.66396
 6.0226   2.64859
 6.0156   2.63139
 6.0087   2.64543
 6.0017   2.58054
 5.9948   2.62436
 5.9878   2.65511
 5.9809   2.59259
 5.9740   2.44364
 5.9672   2.47109
 5.9603   2.60411
 5.9535   2.62161
 5.9466   2.56268
 5.9398   2.62952
 5.9330   2.68190
 5.9262   2.63487
 5.9195   2.69288
 5.9127   2.68678
 5.9060   2.62790
 5.8993   2.62250
 5.8926   2.55553
 5.8859   2.64903
 5.8792   2.71612
 5.8726   2.63702
 5.8659   2.62708
 5.8593   2.67041
 5.8527   2.77439
 5.8461   2.81287
 5.8395   2.77626
 5.8329   2.80237
 5.8264   2.92002
 5.8198   2.91199
 5.8133   2.77045
 5.8068   2.66365
 5.8003   2.65923
 5.7938   2.68976
 5.7874   2.72641
 5.7809   2.76420
 5.7745   2.86546
 5.7680   2.89082
 5.7616   2.78429
 5.7552   2.82151
 5.7489   2.84058
 5.7425   2.74874
 5.7361   2.71008
 5.7298   2.77853
 5.7235   2.80655
 5.7172   2.77369
 5.7109   2.80873
 5.7046   2.80682
 5.6983   2.73708
 5.6921   2.70436
 5.6858   2.75701
 5.6796   2.89068
 5.6734   2.87585
 5.6672   2.70474
 5.6610   2.66121
 5.6548   2.67486
 5.6487   2.71262
 5.6425   2.77490
 5.6364   2.73124
 5.6303   2.69230
 5.6242   2.71220
 5.6181   2.71960
 5.6120   2.66964
 5.6059   2.60651
 5.5999   2.65754
 5.5938   2.65447
 5.5878   2.62422
 5.5818   2.66766
 5.5758   2.73851
 5.5698   2.74676
 5.5638   2.76293
 5.5578   2.76349
 5.5519   2.75653
 5.5460   2.76510
 5.5400   2.78165
 5.5341   2.71737
 5.5282   2.77898
 5.5223   2.86494
 5.5164   2.92445
 5.5106   3.00728
 5.5047   3.00683
 5.4989   3.00434
 5.4931   2.99770
 5.4873   3.03604
 5.4815   3.02906
 5.4757   2.94519
 5.4699   2.98095
 5.4641   3.06745
 5.4584   3.08023
 5.4527   3.06682
 5.4469   3.04759
 5.4412   3.00188
 5.4355   2.96878
 5.4298   2.99238
 5.4241   3.03829
 5.4185   3.03289
 5.4128   3.01535
 5.4072   3.09155
 5.4015   3.08789
 5.3959   2.95715
 5.3903   2.87534
 5.3847   2.95436
 5.3791   3.01922
 5.3735   2.94283
 5.3680   2.87891
 5.3624   2.89982
 5.3569   2.88662
 5.3514   2.92423
 5.3458   2.97460
 5.3403   2.96395
 5.3348   2.90274
 5.3294   2.93771
 5.3239   2.96746
 5.3184   2.85545
 5.3130   2.86810
 5.3075   2.97123
 5.3021   2.93813
 5.2967   2.88920
 5.2913   2.89367
 5.2859   2.98529
 5.2805   3.01102
 5.2751   3.02831
 5.2698   3.05353
 5.2644   3.05661
 5.2591   3.09035
 5.2538   3.16263
 5.2485   3.29611
 5.2431   3.27539
 5.2378   3.27942
 5.2326   3.35994
 5.2273   3.36712
 5.2220   3.31281
 5.2168   3.31934
 5.2115   3.34431
 5.2063   3.39171
 5.2011   3.47205
 5.1959   3.49523
 5.1907   3.50579
 5.1855   3.47049
 5.1803   3.42338
 5.1751   3.45615
 5.1700   3.48243
 5.1648   3.51573
 5.1597   3.59894
 5.1545   3.58321
 5.1494   3.52503
 5.1443   3.50930
 5.1392   3.56218
 5.1341   3.63234
 5.1291   3.60752
 5.1240   3.53504
 5.1189   3.51047
 5.1139   3.58245
 5.1088   3.62326
 5.1038   3.55014
 5.0988   3.49842
 5.0938   3.54033
 5.0888   3.56348
 5.0838   3.55453
 5.0788   3.57391
 5.0738   3.59253
 5.0689   3.58072
 5.0639   3.51347
 5.0590   3.55165
 5.0541   3.65822
 5.0491   3.69820
 5.0442   3.66963
 5.0393   3.60856
 5.0344   3.61495
 5.0296   3.70893
 5.0247   3.65310
 5.0198   3.58742
 5.0150   3.65896
 5.0101   3.71917
 5.0053   3.73074
 5.0004   3.70554
 4.9956   3.61734
 4.9908   3.56504
 4.9860   3.60165
 4.9812   3.77596
 4.9765   3.88798
 4.9717   3.87789
 4.9669   3.81842
 4.9622   3.89813
 4.9574   4.07902
 4.9527   4.21523
 4.9480   4.16605
 4.9432   4.09220
 4.9385   4.13943
 4.9338   4.18703
 4.9291   4.17340
 4.9245   4.19087
 4.9198   4.23415
 4.9151   4.30008
 4.9105   4.42939
 4.9058   4.45275
 4.9012   4.45125
 4.8966   4.48876
 4.8919   4.62606
 4.8873   4.67417
 4.8827   4.71012
 4.8781   4.80181
 4.8736   4.85968
 4.8690   4.91697
 4.8644   4.98827
 4.8599   4.97592
 4.8553   4.93224
 4.8508   5.04231
 4.8462   5.21899
 4.8417   5.17900
 4.8372   5.11863
 4.8327   5.10377
 4.8282   5.12009
 4.8237   5.16513
 4.8192   5.12911
 4.8147   5.16678
 4.8103   5.29624
 4.8058   5.35396
 4.8014   5.31400
 4.7969   5.26203
 4.7925   5.24977
 4.7881   5.27264
 4.7836   5.29475
 4.7792   5.33418
 4.7748   5.30658
 4.7704   5.28633
 4.7660   5.25460
 4.7617   5.21317
 4.7573   5.24801
 4.7530   5.35755
 4.7486   5.41066
 4.7443   5.37550
 4.7399   5.36843
 4.7356   5.41552
 4.7313   5.45247
 4.7270   5.57155
 4.7226   5.58001
 4.7184   5.57320
 4.7141   5.57581
 4.7098   5.51189
 4.7055   5.53447
 4.7012   5.53966
 4.6970   5.49086
 4.6927   5.49613
 4.6885   5.50346
 4.6842   5.53992
 4.6800   5.58318
 4.6758   5.62132
 4.6716   5.57334
 4.6674   5.56879
 4.6632   5.59144
 4.6590   5.66517
 4.6548   5.74900
 4.6506   5.74564
 4.6465   5.72559
 4.6423   5.80308
 4.6382   5.87027
 4.6340   5.81077
 4.6299   5.74622
 4.6258   5.87500
 4.6216   6.02263
 4.6175   6.13480
 4.6134   6.10367
 4.6093   6.08486
 4.6052   6.15595
 4.6011   6.14948
 4.5971   6.21911
 4.5930   6.33474
 4.5889   6.31835
 4.5849   6.21516
 4.5808   6.19549
 4.5768   6.23792
 4.5727   6.29355
 4.5687   6.39129
 4.5647   6.49531
 4.5607   6.48873
 4.5567   6.44824
 4.5526   6.49296
 4.5487   6.45707
 4.5447   6.51280
 4.5407   6.51926
 4.5367   6.48273
 4.5328   6.42200
 4.5288   6.40936
 4.5248   6.42630
 4.5209   6.49146
 4.5170   6.50040
 4.5130   6.44435
 4.5091   6.49397
 4.5052   6.55408
 4.5013   6.47267
 4.4974   6.46014
 4.4935   6.46263
 4.4896   6.39270
 4.4857   6.42970
 4.4818   6.53685
 4.4779   6.62043
 4.4741   6.57082
 4.4702   6.54723
 4.4664   6.51394
 4.4625   6.41976
 4.4587   6.39889
 4.4549   6.54212
 4.4510   6.62295
 4.4472   6.57648
 4.4434   6.64201
 4.4396   6.72486
 4.4358   6.79731
 4.4320   6.90469
 4.4282   6.99378
 4.4245   7.00659
 4.4207   7.00427
 4.4169   6.98663
 4.4132   6.95272
 4.4094   6.94754
 4.4057   7.01867
 4.4019   7.07833
 4.3982   7.17427
 4.3945   7.21805
 4.3907   7.26120
 4.3870   7.31872
 4.3833   7.40964
 4.3796   7.43672
 4.3759   7.41177
 4.3722   7.42416
 4.3685   7.50384
 4.3649   7.50936
 4.3612   7.56514
 4.3575   7.64198
 4.3539   7.72388
 4.3502   7.80354
 4.3466   7.82247
 4.3429   7.75871
 4.3393   7.79688
 4.3357   7.90935
 4.3320   7.95166
 4.3284   7.94833
 4.3248   7.97674
 4.3212   8.00097
 4.3176   8.01249
 4.3140   7.95738
 4.3105   7.96625
 4.3069   8.01188
 4.3033   8.13560
 4.2997   8.15028
 4.2962   8.13914
 4.2926   8.13071
 4.2890   8.15543
 4.2855   8.18944
 4.2820   8.17107
 4.2784   8.17854
 4.2749   8.23609
 4.2714   8.17677
 4.2679   8.15243
 4.2644   8.15917
 4.2609   8.19707
 4.2574   8.31230
 4.2539   8.34891
 4.2504   8.39482
 4.2469   8.41459
 4.2434   8.36970
 4.2400   8.43543
 4.2365   8.43373
 4.2330   8.28779
 4.2296   8.31280
 4.2261   8.45009
 4.2227   8.47331
 4.2193   8.42856
 4.2158   8.48652
 4.2124   8.50544
 4.2090   8.44071
 4.2056   8.36318
 4.2022   8.37500
 4.1988   8.46530
 4.1954   8.62468
 4.1920   8.72679
 4.1886   8.57842
 4.1852   8.50096
 4.1818   8.46421
 4.1785   8.50720
 4.1751   8.61260
 4.1717   8.70180
 4.1684   8.55966
 4.1650   8.58457
 4.1617   8.60998
 4.1584   8.55632
 4.1550   8.61183
 4.1517   8.65064
 4.1484   8.70545
 4.1451   8.84396
 4.1418   8.79856
 4.1384   8.75686
 4.1351   8.67964
 4.1319   8.66177
 4.1286   8.74867
 4.1253   8.74602
 4.1220   8.71562
 4.1187   8.75589
 4.1155   8.88210
 4.1122   8.83371
 4.1089   8.69188
 4.1057   8.67182
 4.1024   8.80764
 4.0992   8.86352
 4.0959   8.89525
 4.0927   8.94919
 4.0895   8.91820
 4.0863   8.72511
 4.0830   8.69436
 4.0798   8.80351
 4.0766   8.83754
 4.0734   8.75752
 4.0702   8.80321
 4.0670   8.80740
 4.0639   8.80069
 4.0607   8.92058
 4.0575   8.94696
 4.0543   8.89913
 4.0511   8.89638
 4.0480   8.85786
 4.0448   8.75024
 4.0417   8.69655
 4.0385   8.73851
 4.0354   8.81129
 4.0323   8.82758
 4.0291   8.71402
 4.0260   8.69821
 4.0229   8.63146
 4.0197   8.60470
 4.0166   8.61449
 4.0135   8.63132
 4.0104   8.75049
 4.0073   8.91510
 4.0042   8.71916
 4.0011   8.50215
 3.9981   8.51949
 3.9950   8.65498
 3.9919   8.77550
 3.9888   8.80556
 3.9857   8.79633
 3.9827   8.82239
 3.9796   8.82246
 3.9766   8.62631
 3.9735   8.59799
 3.9705   8.76491
 3.9675   8.77127
 3.9644   8.64193
 3.9614   8.61465
 3.9584   8.66937
 3.9554   8.75896
 3.9523   8.83544
 3.9493   8.84505
 3.9463   8.85289
 3.9433   8.82302
 3.9403   8.80482
 3.9373   8.68780
 3.9343   8.75968
 3.9314   8.82451
 3.9284   8.78464
 3.9254   8.87584
 3.9224   8.95133
 3.9195   8.88802
 3.9165   8.85412
 3.9136   8.85555
 3.9106   8.92441
 3.9077   8.93343
 3.9047   8.87501
 3.9018   8.95180
 3.8988   9.05005
 3.8959   9.04796
 3.8930   8.98442
 3.8901   8.86749
 3.8872   8.77196
 3.8842   8.70714
 3.8813   8.77092
 3.8784   8.90287
 3.8755   8.83232
 3.8726   8.77397
 3.8697   8.81535
 3.8669   8.88314
 3.8640   8.83990
 3.8611   8.79185
 3.8582   8.80444
 3.8554   8.90562
 3.8525   8.95707
 3.8496   8.92887
 3.8468   8.89462
 3.8439   8.72821
 3.8411   8.67827
 3.8382   8.86335
 3.8354   8.86216
 3.8326   8.76690
 3.8297   8.77368
 3.8269   8.89119
 3.8241   8.94545
 3.8213   8.92581
 3.8185   8.98765
 3.8157   9.09591
 3.8128   9.07655
 3.8100   8.94877
 3.8072   8.87957
 3.8045   8.88828
 3.8017   8.87772
 3.7989   8.86634
 3.7961   8.86168
 3.7933   8.76326
 3.7906   8.76419
 3.7878   8.78234
 3.7850   8.84318
 3.7822   8.94181
 3.7795   8.94641
 3.7767   8.92542
 3.7740   8.94699
 3.7713   8.90874
 3.7685   8.80852
 3.7658   8.92254
 3.7630   9.01912
 3.7603   8.89701
 3.7576   8.91540
 3.7549   8.95339
 3.7521   8.86929
 3.7494   8.77102
 3.7467   8.78661
 3.7440   8.86575
 3.7413   8.92171
 3.7386   8.81943
 3.7359   8.61410
 3.7332   8.67657
 3.7306   8.83117
 3.7279   8.91581
 3.7252   8.84373
 3.7225   8.80973
 3.7199   8.92275
 3.7172   8.99219
 3.7145   8.91095
 3.7119   8.83311
 3.7092   8.71968
 3.7066   8.80962
 3.7039   8.87447
 3.7013   8.90615
 3.6986   8.99730
 3.6960   9.12397
 3.6934   9.09596
 3.6907   9.06231
 3.6881   8.99428
 3.6855   8.97575
 3.6829   8.94254
 3.6803   9.01066
 3.6776   8.96177
 3.6750   8.83288
 3.6724   8.88686
 3.6698   8.97972
 3.6672   8.83827
 3.6646   8.78983
 3.6620   8.92307
 3.6595   8.96745
 3.6569   8.99219
 3.6543   8.87026
 3.6517   8.81927
 3.6492   8.99972
 3.6466   8.94358
 3.6440   8.80870
 3.6415   8.98447
 3.6389   9.08401
 3.6364   8.93865
 3.6338   8.91212
 3.6313   8.92659
 3.6287   8.80304
 3.6262   8.92583
 3.6237   8.99011
 3.6211   8.81609
 3.6186   8.77146
 3.6161   8.82590
 3.6136   8.85311
 3.6111   8.97121
 3.6085   8.83920
 3.6060   8.79974
 3.6035   8.85966
 3.6010   8.81501
 3.5985   8.81303
 3.5960   8.92561
 3.5935   9.02956
 3.5910   9.00083
 3.5886   8.82510
 3.5861   8.52291
 3.5836   8.45021
 3.5811   8.59213
 3.5787   8.82388
 3.5762   8.86920
 3.5737   8.83012
 3.5713   8.73065
 3.5688   8.72553
 3.5663   8.86757
 3.5639   8.80338
 3.5614   8.48918
 3.5590   8.59405
 3.5566   8.73273
 3.5541   8.65771
 3.5517   8.70557
 3.5493   8.69869
 3.5468   8.67473
 3.5444   8.65353
 3.5420   8.65073
 3.5396   8.69888
 3.5372   8.63993
 3.5347   8.54784
 3.5323   8.64926
 3.5299   8.67893
 3.5275   8.46970
 3.5251   8.46991
 3.5227   8.53771
 3.5203   8.66080
 3.5180   8.59745
 3.5156   8.66798
 3.5132   8.69238
 3.5108   8.71363
 3.5084   8.80927
 3.5061   8.61422
 3.5037   8.46235
 3.5013   8.43849
 3.4990   8.45698
 3.4966   8.39540
 3.4943   8.57247
 3.4919   8.74465
 3.4895   8.50492
 3.4872   8.37869
 3.4849   8.44575
 3.4825   8.61286
 3.4802   8.54122
 3.4778   8.39481
 3.4755   8.48952
 3.4732   8.47977
 3.4709   8.42468
 3.4685   8.30259
 3.4662   8.33810
 3.4639   8.48847
 3.4616   8.42057
 3.4593   8.27752
 3.4570   8.29617
 3.4547   8.31357
 3.4524   8.24008
 3.4501   8.25929
 3.4478   8.50647
 3.4455   8.49273
 3.4432   8.29149
 3.4409   8.28388
 3.4386   8.29607
 3.4364   8.29754
 3.4341   8.32061
 3.4318   8.33098
 3.4295   8.28948
 3.4273   8.34913
 3.4250   8.38155
 3.4228   8.19054
 3.4205   7.96483
 3.4182   8.02250
 3.4160   8.20152
 3.4137   8.10205
 3.4115   7.97019
 3.4093   8.13114
 3.4070   8.18432
 3.4048   8.15293
 3.4025   8.18574
 3.4003   8.22283
 3.3981   8.06709
 3.3958   8.02891
 3.3936   8.06530
 3.3914   7.89217
 3.3892   7.97435
 3.3870   8.14758
 3.3848   8.14332
 3.3826   8.07628
 3.3804   8.00184
 3.3782   8.05795
 3.3760   8.12998
 3.3738   8.11412
 3.3716   7.97274
 3.3694   7.79484
 3.3672   7.74238
 3.3650   7.76311
 3.3628   7.68678
 3.3606   7.73995
 3.3585   7.78072
 3.3563   7.81010
 3.3541   7.92425
 3.3520   8.04514
 3.3498   8.07524
 3.3476   8.07201
 3.3455   8.01575
 3.3433   7.89067
 3.3411   7.81331
 3.3390   7.93503
 3.3369   7.92790
 3.3347   7.87143
 3.3326   7.92768
 3.3304   7.83655
 3.3283   7.80190
 3.3262   7.77799
 3.3240   7.74883
 3.3219   7.76752
 3.3198   7.82788
 3.3176   7.88857
 3.3155   7.98154
 3.3134   7.85158
 3.3113   7.47922
 3.3092   7.20001
 3.3071   7.37630
 3.3049   7.71748
 3.3028   7.74440
 3.3007   7.68375
 3.2986   7.57102
 3.2965   7.38563
 3.2944   7.32486
 3.2924   7.35747
 3.2903   7.42417
 3.2882   7.52465
 3.2861   7.62395
 3.2840   7.50900
 3.2819   7.59231
 3.2799   7.74498
 3.2778   7.65732
 3.2757   7.47226
 3.2736   7.28935
 3.2716   7.39025
 3.2695   7.47065
 3.2675   7.47418
 3.2654   7.47658
 3.2634   7.54648
 3.2613   7.56299
 3.2593   7.34272
 3.2572   7.08179
 3.2552   7.13354
 3.2531   7.11378
 3.2511   7.14986
 3.2490   7.08915
 3.2470   7.11343
 3.2450   7.20670
 3.2429   7.24925
 3.2409   7.25904
 3.2389   7.38945
 3.2369   7.31473
 3.2348   7.12464
 3.2328   7.02919
 3.2308   7.01750
 3.2288   7.22383
 3.2268   7.15565
 3.2248   7.02776
 3.2228   7.01304
 3.2208   7.02111
 3.2188   6.93367
 3.2168   6.90380
 3.2148   7.10195
 3.2128   7.20079
 3.2108   6.99911
 3.2088   6.78692
 3.2068   6.80677
 3.2049   6.95049
 3.2029   6.97274
 3.2009   6.71936
 3.1989   6.81653
 3.1970   7.07925
 3.1950   7.00332
 3.1930   6.81700
 3.1911   6.64311
 3.1891   6.70256
 3.1871   6.77195
 3.1852   6.69277
 3.1832   6.60498
 3.1813   6.58192
 3.1793   6.72669
 3.1774   6.69715
 3.1754   6.63333
 3.1735   6.67989
 3.1715   6.68122
 3.1696   6.56352
 3.1677   6.46135
 3.1657   6.48932
 3.1638   6.63633
 3.1619   6.76064
 3.1599   6.63774
 3.1580   6.55563
 3.1561   6.43878
 3.1542   6.28978
 3.1523   6.36984
 3.1503   6.42781
 3.1484   6.57266
 3.1465   6.50199
 3.1446   6.30714
 3.1427   6.20315
 3.1408   6.11083
 3.1389   6.24918
 3.1370   6.28104
 3.1351   6.40942
 3.1332   6.44966
 3.1313   6.18167
 3.1294   6.29262
 3.1275   6.57751
 3.1257   6.57457
 3.1238   6.55610
 3.1219   6.36128
 3.1200   6.21528
 3.1181   6.41712
 3.1163   6.31585
 3.1144   6.07293
 3.1125   6.40623
 3.1107   6.63448
 3.1088   6.30074
 3.1069   6.08893
 3.1051   6.03803
 3.1032   6.12653
 3.1014   6.10190
 3.0995   6.22863
 3.0976   6.32768
 3.0958   5.90739
 3.0940   5.96364
 3.0921   6.16445
 3.0903   6.35277
 3.0884   6.45784
 3.0866   6.41545
 3.0848   6.45469
 3.0829   6.13534
 3.0811   5.89991
 3.0793   6.01995
 3.0774   6.18075
 3.0756   6.11029
 3.0738   5.99546
 3.0720   5.93919
 3.0701   5.74673
 3.0683   5.84817
 3.0665   6.04490
 3.0647   6.11625
 3.0629   5.89529
 3.0611   5.57579
 3.0593   5.63181
 3.0575   5.66501
 3.0557   5.60634
 3.0539   5.56278
 3.0521   5.45775
 3.0503   5.58828
 3.0485   5.73450
 3.0467   5.53879
 3.0449   5.68367
 3.0431   5.95576
 3.0413   5.99818
 3.0396   5.94340
 3.0378   5.87613
 3.0360   5.90841
 3.0342   5.78466
 3.0324   5.79332
 3.0307   5.59866
 3.0289   5.57520
 3.0271   5.81003
 3.0254   5.73501
 3.0236   5.68123
 3.0218   5.89675
 3.0201   6.12383
 3.0183   6.26334
 3.0166   6.05292
 3.0148   5.96615
 3.0130   5.99587
 3.0113   5.59652
 3.0096   5.45756
 3.0078   5.67983
 3.0061   5.62297
 3.0043   5.48103
 3.0026   5.31882
 3.0008   5.50959
 2.9991   5.66788
 2.9974   5.51541
 2.9956   5.68278
 2.9939   5.84543
 2.9922   5.53550
 2.9905   5.24002
 2.9887   5.18074
 2.9870   5.28185
 2.9853   5.16425
 2.9836   5.20230
 2.9819   5.57436
 2.9802   5.49757
 2.9784   5.42964
 2.9767   5.55850
 2.9750   5.38837
 2.9733   5.41196
 2.9716   5.54495
 2.9699   5.47771
 2.9682   5.71353
 2.9665   5.68895
 2.9648   5.12602
 2.9631   4.85756
 2.9614   5.07432
 2.9597   4.99423
 2.9581   5.13062
 2.9564   5.23419
 2.9547   5.08046
 2.9530   5.20659
 2.9513   5.29733
 2.9496   5.41525
 2.9480   5.48905
 2.9463   5.37773
 2.9446   5.11300
 2.9429   5.07355
 2.9413   5.24607
 2.9396   5.83090
 2.9379   5.89664
 2.9363   5.56442
 2.9346   5.45922
 2.9330   5.17899
 2.9313   5.21839
 2.9296   5.56089
 2.9280   5.57885
 2.9263   5.44731
 2.9247   5.20553
 2.9230   5.28155
 2.9214   5.37820
 2.9197   5.59999
 2.9181   5.85962
 2.9165   5.81445
 2.9148   5.62129
 2.9132   5.87464
 2.9116   5.86321
 2.9099   5.35861
 2.9083   5.13937
 2.9067   4.88196
 2.9050   4.91245
 2.9034   4.87064
 2.9018   5.09526
 2.9002   6.13134
 2.8985   6.46777
 2.8969   6.15033
 2.8953   5.85853
 2.8937   5.74123
 2.8921   6.01770
 2.8905   5.95524
 2.8888   5.96498
 2.8872   5.88767
 2.8856   5.54138
 2.8840   5.43578
 2.8824   5.53771
 2.8808   5.69907
 2.8792   5.75046
 2.8776   5.66441
 2.8760   5.68968
 2.8744   5.61251
 2.8728   5.74449
 2.8712   5.99702
 2.8697   5.78994
 2.8681   5.76700
 2.8665   5.94343
 2.8649   6.34600
 2.8633   6.49704
 2.8617   6.07924
 2.8602   5.65839
 2.8586   5.96365
 2.8570   6.32668
 2.8554   5.91066
 2.8539   5.51144
 2.8523   5.56560
 2.8507   5.69688
 2.8492   5.84240
 2.8476   5.97225
 2.8460   5.85292
 2.8445   5.79824
 2.8429   5.58966
 2.8413   5.73915
 2.8398   5.83200
 2.8382   5.79867
 2.8367   5.93291
 2.8351   6.09881
 2.8336   6.11934
 2.8320   6.15665
 2.8305   6.01213
 2.8289   5.89678
 2.8274   5.97051
 2.8259   5.98151
 2.8243   5.86729
 2.8228   5.91050
 2.8213   5.84549
 2.8197   5.66980
 2.8182   5.75975
 2.8167   5.93626
 2.8151   5.83283
 2.8136   6.04058
 2.8121   6.10151
 2.8106   6.16583
 2.8090   6.03117
 2.8075   5.99151
 2.8060   6.14396
 2.8045   5.66711
 2.8030   5.71269
 2.8014   5.75483
 2.7999   5.50185
 2.7984   5.12581
 2.7969   4.61487
 2.7954   4.69842
 2.7939   5.19784
 2.7924   5.75235
 2.7909   5.46217
 2.7894   5.38872
 2.7879   5.37920
 2.7864   5.41151
 2.7849   5.73658
 2.7834   5.67683
 2.7819   6.15728
 2.7804   6.09400
 2.7789   5.31452
 2.7774   5.14026
 2.7759   5.30054
 2.7745   5.41387
 2.7730   5.29909
 2.7715   4.90079
 2.7700   5.06202
 2.7685   5.42829
 2.7671   5.43991
 2.7656   5.48696
 2.7641   5.36258
 2.7626   5.12213
 2.7612   5.23892
 2.7597   5.36177
 2.7582   5.53006
 2.7568   5.35821
 2.7553   5.18377
 2.7538   5.21987
 2.7524   5.27144
 2.7509   5.34400
 2.7494   5.46470
 2.7480   5.55486
 2.7465   5.59002
 2.7451   5.57799
 2.7436   5.64022
 2.7422   5.68738
 2.7407   5.75076
 2.7393   5.95321
 2.7378   6.01374
 2.7364   6.20720
 2.7350   6.16562
 2.7335   5.71670
 2.7321   5.81974
 2.7306   6.10664
 2.7292   6.50819
 2.7278   6.92345
 2.7263   6.83005
 2.7249   6.98024
 2.7235   6.79227
 2.7220   6.79618
 2.7206   6.94407
 2.7192   6.85087
 2.7178   6.86750
 2.7163   6.77593
 2.7149   6.69567
 2.7135   7.03247
 2.7121   7.42343
 2.7106   7.16390
 2.7092   6.85520
 2.7078   7.06704
 2.7064   7.30695
 2.7050   7.21204
 2.7036   7.14641
 2.7022   7.22454
 2.7008   7.10879
 2.6994   7.29287
 2.6980   7.85769
 2.6965   8.14807
 2.6951   8.12349
 2.6938   8.26061
 2.6923   8.10549
 2.6910   8.05768
 2.6896   8.38156
 2.6882   8.34193
 2.6868   8.28450
 2.6854   8.44802
 2.6840   8.46518
 2.6826   8.39514
 2.6812   8.49772
 2.6798   8.70368
 2.6784   8.73647
 2.6771   8.82518
 2.6757   8.83490
 2.6743   8.64831
 2.6729   8.87526
 2.6715   9.04713
 2.6702   8.58600
 2.6688   8.61660
 2.6674   8.76356
 2.6660   8.64870
 2.6647   8.71663
 2.6633   8.57026
 2.6619   8.52035
 2.6606   8.43735
 2.6592   8.40282
 2.6578   8.36326
 2.6565   8.61491
 2.6551   8.95678
 2.6538   8.97685
 2.6524   8.65581
 2.6511   8.63000
 2.6497   8.72362
 2.6484   8.85748
 2.6470   8.74794
 2.6456   8.83794
 2.6443   8.98540
 2.6429   8.68064
 2.6416   8.55437
 2.6403   8.73726
 2.6389   8.72630
 2.6376   8.50371
 2.6362   8.53866
 2.6349   8.84317
 2.6336   8.58027
 2.6322   8.58469
 2.6309   9.14572
 2.6296   8.99614
 2.6282   8.70161
 2.6269   8.68768
 2.6256   8.59685
 2.6242   8.54143
 2.6229   8.82719
 2.6216   9.08730
 2.6203   8.76966
 2.6189   8.31782
 2.6176   8.79221
 2.6163   8.94399
 2.6150   8.57691
 2.6136   8.53766
 2.6123   8.88636
 2.6110   8.88212
 2.6097   8.62390
 2.6084   8.63025
 2.6071   9.28538
 2.6058   9.25792
 2.6044   8.61598
 2.6031   8.27946
 2.6018   8.58459
 2.6005   8.70779
 2.5992   8.72789
 2.5979   8.71304
 2.5966   8.69202
 2.5953   8.90154
 2.5940   9.10398
 2.5927   8.74316
 2.5914   8.46799
 2.5901   8.55007
 2.5888   8.92214
 2.5876   9.28163
 2.5863   9.26654
 2.5850   8.96391
 2.5837   8.45732
 2.5824   8.14805
 2.5811   8.18262
 2.5798   8.41403
 2.5785   8.81017
 2.5773   8.71821
 2.5760   8.52519
 2.5747   8.41315
 2.5734   8.51468
 2.5722   8.50407
 2.5709   8.23557
 2.5696   8.14087
 2.5683   8.44344
 2.5671   8.65833
 2.5658   8.72705
 2.5645   8.82058
 2.5633   8.98380
 2.5620   8.66000
 2.5607   8.66432
 2.5595   8.46681
 2.5582   8.17664
 2.5569   8.66144
 2.5557   9.05379
 2.5544   8.75726
 2.5532   8.66918
 2.5519   8.91259
 2.5507   9.02120
 2.5494   8.60765
 2.5481   8.37642
 2.5469   8.77433
 2.5456   8.64784
 2.5444   8.47959
 2.5431   8.69799
 2.5419   8.62514
 2.5406   8.17869
 2.5394   8.29970
 2.5382   8.81772
 2.5369   9.11726
 2.5357   9.30177
 2.5344   9.06292
 2.5332   8.90455
 2.5320   8.48897
 2.5307   8.47214
 2.5295   8.61427
 2.5283   8.46618
 2.5270   8.38258
 2.5258   8.24213
 2.5246   8.72398
 2.5233   9.09394
 2.5221   8.79285
 2.5209   8.71004
 2.5197   8.55975
 2.5184   8.30691
 2.5172   8.46096
 2.5160   8.76750
 2.5148   9.01157
 2.5136   9.10015
 2.5123   8.71739
 2.5111   8.60879
 2.5099   8.89869
 2.5087   9.16139
 2.5075   9.29041
 2.5063   9.49881
 2.5051   9.14202
 2.5038   8.82741
 2.5026   8.48372
 2.5014   8.41184
 2.5002   8.47142
 2.4990   8.42415
 2.4978   8.35099
 2.4966   8.50855
 2.4954   8.91718
 2.4942   9.10266
 2.4930   8.87466
 2.4918   8.76238
 2.4906   8.59796
 2.4894   8.65731
 2.4882   8.51347
 2.4870   8.74926
 2.4858   8.98468
 2.4846   8.83897
 2.4835   8.20650
 2.4823   8.16127
 2.4811   8.51763
 2.4799   8.32389
 2.4787   8.03510
 2.4775   8.01829
 2.4764   8.15554
 2.4752   8.20197
 2.4740   8.78579
 2.4728   9.04591
 2.4716   8.69214
 2.4705   8.49083
 2.4693   8.78417
 2.4681   8.89551
 2.4669   8.43515
 2.4657   8.05221
 2.4646   8.38263
 2.4634   8.75642
 2.4622   8.72120
 2.4611   8.50037
 2.4599   8.36838
 2.4587   8.25838
 2.4576   7.80408
 2.4564   7.71778
 2.4552   8.29033
 2.4541   9.08806
 2.4529   9.37516
 2.4518   9.23850
 2.4506   8.82633
 2.4494   8.56536
 2.4483   8.71276
 2.4471   8.59751
 2.4460   8.28214
 2.4448   8.23498
 2.4437   8.24139
 2.4425   8.13328
 2.4414   8.76552
 2.4402   8.95087
 2.4391   8.63173
 2.4379   8.63215
 2.4368   8.65518
 2.4356   8.61102
 2.4345   8.66408
 2.4333   8.57992
 2.4322   8.87331
 2.4311   8.81841
 2.4299   8.55473
 2.4288   7.96123
 2.4276   7.77583
 2.4265   8.38687
 2.4254   8.73759
 2.4242   8.63556
 2.4231   8.36738
 2.4220   8.54025
 2.4209   8.64951
 2.4197   9.02391
 2.4186   9.20313
 2.4175   8.87929
 2.4163   8.16313
 2.4152   7.64443
 2.4141   7.70906
 2.4130   8.49683
 2.4118   9.05238
 2.4107   8.62969
 2.4096   8.34666
 2.4085   8.23239
 2.4074   8.31484
 2.4063   8.29470
 2.4051   8.65997
 2.4040   9.31400
 2.4029   9.20569
 2.4018   8.67071
 2.4007   8.41032
 2.3996   8.37972
 2.3985   8.66081
 2.3973   8.70753
 2.3962   8.24661
 2.3951   8.64738
 2.3940   8.84670
 2.3929   8.55894
 2.3918   8.22989
 2.3907   8.45902
 2.3896   8.85533
 2.3885   9.26203
 2.3874   9.15536
 2.3863   8.80302
 2.3852   8.69250
 2.3841   8.83795
 2.3830   8.71199
 2.3819   8.62138
 2.3808   8.62227
 2.3798   8.43448
 2.3786   8.02414
 2.3776   8.24722
 2.3765   8.72680
 2.3754   8.44936
 2.3743   8.25073
 2.3732   8.70777
 2.3721   8.41732
 2.3710   8.01250
 2.3700   8.33587
 2.3689   8.47147
 2.3678   8.44630
 2.3667   8.51516
 2.3656   8.30389
 2.3645   8.86533
 2.3635   8.59429
 2.3624   7.75259
 2.3613   8.29673
 2.3603   8.84669
 2.3592   9.08721
 2.3581   8.88616
 2.3570   8.63278
 2.3560   8.72027
 2.3549   8.46090
 2.3538   8.29575
 2.3527   8.49645
 2.3517   8.60055
 2.3506   8.71716
 2.3495   8.64413
 2.3485   8.09984
 2.3474   7.73601
 2.3464   8.18188
 2.3453   8.86132
 2.3442   8.79280
 2.3432   8.38245
 2.3421   8.08522
 2.3411   7.95643
 2.3400   8.04049
 2.3390   8.03750
 2.3379   8.35580
 2.3369   9.02209
 2.3358   8.61271
 2.3347   8.36214
 2.3337   8.11271
 2.3326   7.83065
 2.3316   8.14042
 2.3306   8.36420
 2.3295   8.80940
 2.3285   9.27461
 2.3274   8.66650
 2.3264   7.79636
 2.3253   8.33237
 2.3243   9.05046
 2.3232   8.95224
 2.3222   9.02907
 2.3212   8.83121
 2.3201   8.82083
 2.3191   9.06689
 2.3180   8.77383
 2.3170   8.60548
 2.3160   8.60900
 2.3149   8.65739
 2.3139   8.51998
 2.3129   8.39109
 2.3118   8.58673
 2.3108   8.54697
 2.3098   8.53319
 2.3088   8.19854
 2.3077   8.24061
 2.3067   8.45413
 2.3057   8.49063
 2.3047   8.27674
 2.3036   8.09424
 2.3026   8.15625
 2.3016   8.72403
 2.3006   9.09864
 2.2995   9.14989
 2.2985   9.22078
 2.2975   8.83427
 2.2965   8.46313
 2.2955   8.18898
 2.2944   8.47101
 2.2934   8.68541
 2.2924   8.41897
 2.2914   8.44347
 2.2904   8.58775
 2.2894   8.59207
 2.2884   9.10803
 2.2874   9.13003
 2.2864   8.69663
 2.2854   8.66533
 2.2843   8.96227
 2.2833   9.15835
 2.2823   8.83702
 2.2813   8.71138
 2.2803   8.98665
 2.2793   8.75587
 2.2783   8.78360
 2.2773   9.11681
 2.2763   8.86101
 2.2753   8.41381
 2.2743   8.78535
 2.2733   8.78550
 2.2723   8.26635
 2.2713   8.70805
 2.2703   9.23769
 2.2694   8.81323
 2.2684   8.64778
 2.2674   8.31196
 2.2664   8.34630
 2.2654   8.85765
 2.2644   8.43897
 2.2634   8.31807
 2.2624   8.58345
 2.2614   8.78074
 2.2605   8.22363
 2.2595   8.55928
 2.2585   9.27821
 2.2575   8.92388
 2.2565   8.45399
 2.2555   8.27900
 2.2546   8.08421
 2.2536   8.37123
 2.2526   8.79918
 2.2516   8.69817
 2.2506   8.33516
 2.2497   8.57371
 2.2487   8.63795
 2.2477   7.97970
 2.2467   8.30547
 2.2458   9.02006
 2.2448   9.11765
 2.2438   8.23148
 2.2428   8.01032
 2.2419   8.62988
 2.2409   8.97628
 2.2399   8.63925
 2.2390   8.35272
 2.2380   8.52930
 2.2370   8.51155
 2.2361   8.46813
 2.2351   8.72957
 2.2342   8.66525
 2.2332   8.41155
 2.2322   7.86027
 2.2313   8.14947
 2.2303   9.05277
 2.2294   9.15181
 2.2284   8.48317
 2.2274   8.77927
 2.2265   9.30037
 2.2255   8.57265
 2.2246   8.05350
 2.2236   8.67513
 2.2227   9.05555
 2.2217   9.09926
 2.2208   8.71531
 2.2198   7.90587
 2.2189   7.68591
 2.2179   7.88442
 2.2170   8.75193
 2.2160   9.17707
 2.2151   8.93335
 2.2141   9.00251
 2.2132   9.24569
 2.2122   8.96399
 2.2113   8.53417
 2.2103   8.64370
 2.2094   8.92034
 2.2085   8.76110
 2.2075   8.48492
 2.2066   8.62719
 2.2056   8.98816
 2.2047   8.86848
 2.2038   8.51581
 2.2028   8.95025
 2.2019   9.20231
 2.2010   9.06092
 2.2000   9.10791
 2.1991   8.63564
 2.1982   8.20213
 2.1972   8.48977
 2.1963   8.81332
 2.1954   8.97465
 2.1944   8.42152
 2.1935   7.75225
 2.1926   7.98702
 2.1917   8.71476
 2.1907   8.41591
 2.1898   8.10620
 2.1889   8.47893
 2.1880   8.86252
 2.1870   8.41051
 2.1861   8.36607
 2.1852   8.18586
 2.1843   8.14700
 2.1833   8.59852
 2.1824   9.70034
 2.1815   9.10751
 2.1806   8.53322
 2.1797   8.96290
 2.1788   8.99538
 2.1778   8.21448
 2.1769   7.99795
 2.1760   8.96873
 2.1751   9.72278
 2.1742   8.97246
 2.1733   8.11822
 2.1724   8.46325
 2.1715   8.81222
 2.1706   8.66091
 2.1696   9.08696
 2.1687   9.22405
 2.1678   8.53373
 2.1669   8.20417
 2.1660   8.46088
 2.1651   8.51975
 2.1642   8.88234
 2.1633   8.70518
 2.1624   9.04295
 2.1615   9.46608
 2.1606   9.10280
 2.1597   8.68305
 2.1588   9.02833
 2.1579   9.20386
 2.1570   8.94066
 2.1561   9.51870
 2.1552   9.81671
 2.1543   9.53978
 2.1534   9.38071
 2.1525   8.66878
 2.1517   8.48923
 2.1507   8.42437
 2.1499   7.65762
 2.1490   7.90344
 2.1481   8.77139
 2.1472   9.19369
 2.1463   9.44042
 2.1454   9.36393
 2.1445   8.99875
 2.1436   9.02879
 2.1428   8.98991
 2.1419   8.77589
 2.1410   8.76080
 2.1401   8.89671
 2.1392   8.29329
 2.1383   8.05826
 2.1375   8.50352
 2.1366   8.87727
 2.1357   8.94141
 2.1348   9.10670
 2.1339   8.90008
 2.1331   8.65917
 2.1322   8.64319
 2.1313   8.97380
 2.1304   9.53970
 2.1296   9.21166
 2.1287   8.07534
 2.1278   8.13285
 2.1269   9.32000
 2.1261   9.08412
 2.1252   8.18754
 2.1243   8.24033
 2.1235   8.46589
 2.1226   8.45642
 2.1217   8.57071
 2.1208   8.59590
 2.1200   9.03926
 2.1191   9.15216
 2.1183   8.80495
 2.1174   8.42242
 2.1165   8.56930
 2.1157   8.42864
 2.1148   9.15870
 2.1139  10.00920
 2.1131   8.74998
 2.1122   8.18718
 2.1113   8.60049
 2.1105   8.70572
 2.1096   8.90042
 2.1088   8.70828
 2.1079   8.38580
 2.1071   8.85407
 2.1062   9.14510
 2.1054   9.07472
 2.1045   8.87067
 2.1036   8.48696
 2.1028   8.75907
 2.1019   8.99518
 2.1011   8.79651
 2.1002   8.50207
 2.0994   8.88920
 2.0985   8.43141
 2.0977   8.10119
 2.0968   9.16195
 2.0960   8.73446
 2.0951   9.16333
 2.0943   8.85568
 2.0934   7.78661
 2.0926   7.40805
 2.0918   8.09908
 2.0909   8.30902
 2.0901   9.11951
 2.0892   9.88155
 2.0884   9.05072
 2.0875   7.82127
 2.0867   7.78385
 2.0859   8.56699
 2.0850   9.03108
 2.0842   9.65192
 2.0833   9.54134
 2.0825   9.21228
 2.0817   7.32114
 2.0808   6.44838
 2.0800   8.16932
 2.0792   9.05179
 2.0783   8.38471
 2.0775   8.37344
 2.0767   9.32931
 2.0759   9.14495
 2.0750   8.45597
 2.0742   8.50570
 2.0734   8.56434
 2.0725   8.26492
 2.0717   8.60572
 2.0709   9.25737
 2.0701   9.01142
 2.0692   9.37285
 2.0684   9.29938
 2.0676   8.67340
 2.0667   8.47969
 2.0659   9.06307
 2.0651   9.41520
 2.0643   8.95006
 2.0635   9.21863
 2.0626  10.39780
 2.0618   9.91498
 2.0610   8.22336
 2.0602   9.15496
 2.0594  10.36340
 2.0585   9.86506
 2.0577   8.90619
 2.0569   8.17644
 2.0561   6.72338
 2.0553   6.77928
 2.0545   6.67003
 2.0537   6.30564
 2.0528   8.26244
 2.0520   9.38551
 2.0512   8.75797
 2.0504   9.35770
 2.0496   9.65418
 2.0488   9.13458
 2.0480   7.70610
 2.0472   7.43475
 2.0464   7.00408
 2.0456   6.83136
 2.0447   8.20336
 2.0439   8.79729
 2.0431   8.39984
 2.0423  10.30620
 2.0415  11.26880
 2.0407   9.52167
 2.0399   7.90756
 2.0391   7.65438
 2.0383   7.64229
 2.0375   8.26838
 2.0367   8.84849
 2.0359   8.63623
 2.0351   8.93404
 2.0343   8.76925
 2.0335   8.17524
 2.0327   8.82025
 2.0319   8.46663
 2.0311   7.68499
 2.0303   8.54011
 2.0295   8.72053
 2.0287   6.92424
 2.0280   7.70435
 2.0272  10.73570
 2.0264  10.14860
 2.0256   8.01787
 2.0248   8.12039
 2.0240   8.50502
 2.0232   8.44244
 2.0224   8.94002
 2.0216   9.59801
 2.0208   9.94837
 2.0200  10.74580
 2.0193  10.63380
 2.0185   9.04837
 2.0177   9.66578
 2.0169  10.12210
 2.0161   9.45871
 2.0153  10.00240
 2.0146   9.54176
 2.0138   7.53311
 2.0130   7.97554
 2.0122   8.19155
 2.0114   8.45979
 2.0107   9.24705
 2.0099   9.04754
 2.0091   7.47400
 2.0083   6.82939
 2.0075   9.04092
 2.0068  10.75790
 2.0060   9.64925
 2.0052   8.68314
 2.0044   9.16517
 2.0037  10.19760
 2.0029   9.15402
 2.0021   7.84620
 2.0013   7.73195
 2.0006   7.89568
 1.9998   7.67516
