Name: Marcasite FeS_2
Type: Mineral
Class: Sulfides
Subclass: 
Particle Size: 45-125um
Sample No.: S-10A
Owner: JPL
Wavelength range: IR
Origin: USA, Indiana, Jasper County, Rensselaer, Pleasant Ridge Quarry
Collected by Ward's
Description: 





Measurement: Hemispherical reflectance
First Column: X
Second Column: Y
X Units:  Wavelength (micrometers)
Y Units:  Reflectance (percent)
First X Value: 15.3853
Last X Value: 2.00032
Number of X Values: 2256
Additional information: s10aa.txt
 
15.3853	19.5521
15.3397	19.7089
15.2945	19.6849
15.2495	19.5353
15.2048	19.4184
15.1603	19.4566
15.1161	19.3156
15.0722	19.2853
15.0285	19.2611
14.9851	19.0493
14.9419	19.1323
14.8989	19.5589
14.8563	19.7436
14.8138	19.8336
14.7716	20.1322
14.7296	20.277
14.6879	20.1227
14.6464	20.1023
14.6052	20.1686
14.5641	20.1952
14.5233	20.2595
14.4828	20.1277
14.4424	20.1291
14.4023	20.2782
14.3624	20.3457
14.3227	20.2048
14.2833	20.1005
14.244	20.1766
14.205	20.2876
14.1662	20.272
14.1276	20.2266
14.0892	20.0667
14.051	19.9649
14.0131	20.0634
13.9753	20.3255
13.9377	20.3172
13.9004	20.2023
13.8632	20.1461
13.8262	20.0933
13.7895	19.9169
13.7529	19.8521
13.7165	19.9017
13.6803	19.8493
13.6443	19.7639
13.6085	19.6209
13.5729	19.5285
13.5374	19.5947
13.5022	19.6391
13.4671	19.5491
13.4322	19.4975
13.3975	19.5449
13.363	19.3385
13.3286	19.0954
13.2944	18.9513
13.2604	18.8745
13.2266	18.9238
13.193	18.8644
13.1595	18.7486
13.1262	18.7142
13.093	18.4231
13.06	18.1419
13.0272	18.0377
12.9946	18.0326
12.9621	17.9627
12.9298	17.751
12.8976	17.6789
12.8656	17.6717
12.8337	17.4349
12.8021	17.2164
12.7705	17.1094
12.7391	17.0539
12.7079	16.9526
12.6769	16.8377
12.6459	16.675
12.6152	16.6503
12.5845	16.7225
12.5541	16.7773
12.5238	16.7953
12.4936	16.6945
12.4635	16.6804
12.4337	16.9099
12.4039	16.9575
12.3743	16.9051
12.3448	16.92
12.3155	16.7808
12.2863	16.7761
12.2573	16.8372
12.2284	16.8226
12.1996	16.7952
12.171	16.8991
12.1425	16.9547
12.1141	16.8833
12.0859	16.8921
12.0578	17.0252
12.0298	16.9904
12.0019	16.8975
11.9742	16.8626
11.9466	16.862
11.9192	16.8157
11.8918	16.8067
11.8646	16.7841
11.8375	16.7218
11.8106	16.6211
11.7837	16.592
11.757	16.6079
11.7304	16.5122
11.7039	16.4645
11.6776	16.5503
11.6513	16.5657
11.6252	16.5416
11.5992	16.7107
11.5733	16.7827
11.5475	16.6278
11.5219	16.542
11.4963	16.4904
11.4709	16.5111
11.4455	16.4048
11.4203	16.3774
11.3952	16.5151
11.3702	16.5084
11.3454	16.4277
11.3206	16.4429
11.2959	16.595
11.2714	16.6027
11.2469	16.5627
11.2226	16.588
11.1983	16.6046
11.1742	16.7474
11.1502	16.8209
11.1263	16.9706
11.1024	17.1688
11.0787	17.2625
11.0551	17.287
11.0316	17.4227
11.0081	17.5662
10.9848	17.7205
10.9616	17.8452
10.9385	17.9451
10.9154	18.077
10.8925	18.0594
10.8697	18.0843
10.8469	18.3537
10.8243	18.52
10.8017	18.5444
10.7793	18.545
10.7569	18.6068
10.7346	18.7437
10.7125	18.6497
10.6904	18.5741
10.6684	18.6059
10.6465	18.6843
10.6247	18.6952
10.6029	18.6498
10.5813	18.6534
10.5597	18.6474
10.5383	18.6412
10.5169	18.6327
10.4956	18.512
10.4744	18.4263
10.4533	18.3193
10.4323	18.1899
10.4113	18.201
10.3904	18.1275
10.3697	18.0797
10.349	18.1185
10.3284	17.9755
10.3078	17.7689
10.2874	17.8144
10.267	17.8014
10.2467	17.8125
10.2265	17.7389
10.2064	17.6136
10.1863	17.6499
10.1663	17.6875
10.1464	17.6088
10.1266	17.5219
10.1069	17.5283
10.0872	17.5754
10.0676	17.5545
10.0481	17.4426
10.0287	17.3974
10.0093	17.3854
9.99005	17.2931
9.97084	17.123
9.95169	16.8958
9.93263	16.7206
9.91364	16.5761
9.89472	16.1741
9.87587	15.805
9.8571	15.5006
9.83839	15.4481
9.81976	15.92
9.80119	16.5299
9.78271	16.9058
9.76428	16.9567
9.74592	16.9388
9.72764	16.8824
9.70943	16.7693
9.69128	16.6754
9.6732	16.5936
9.65518	16.4821
9.63724	16.4477
9.61935	16.3288
9.60155	16.231
9.5838	16.2737
9.56611	16.2983
9.5485	16.0965
9.53094	15.7179
9.51345	15.479
9.49604	15.5031
9.47867	15.4331
9.46137	15.1587
9.44414	15.0166
9.42697	14.8853
9.40986	14.5797
9.39281	14.4635
9.37583	14.4297
9.35891	14.1681
9.34204	13.9029
9.32524	13.7057
9.3085	13.3252
9.29182	13.0094
9.27519	13.0424
9.25863	13.013
9.24213	12.9455
9.22568	13.153
9.2093	13.2499
9.19297	13.2297
9.17669	13.2989
9.16048	13.2591
9.14433	13.2886
9.12823	13.3537
9.11218	13.3802
9.0962	13.3783
9.08027	13.4009
9.06439	13.4702
9.04858	13.4746
9.03281	13.2859
9.0171	13.0737
9.00145	13.0791
8.98585	13.1408
8.9703	13.2776
8.9548	13.4418
8.93937	13.2745
8.92398	13.0963
8.90865	13.086
8.89337	13.1656
8.87814	13.3017
8.86296	13.4589
8.84784	13.5358
8.83277	13.5972
8.81774	13.6808
8.80277	13.7809
8.78786	13.8241
8.77298	13.9788
8.75816	14.1777
8.7434	14.2958
8.72868	14.5379
8.714	14.6854
8.69938	14.8312
8.68481	14.9664
8.67029	15.1056
8.65581	15.2514
8.64139	15.2726
8.62701	15.3234
8.61268	15.37
8.5984	15.3449
8.58416	15.3668
8.56997	15.4431
8.55583	15.5437
8.54174	15.6309
8.52769	15.5816
8.51368	15.4471
8.49973	15.5198
8.48582	15.5259
8.47195	15.4753
8.45813	15.5151
8.44436	15.6226
8.43062	15.6868
8.41693	15.681
8.4033	15.7951
8.3897	15.9827
8.37614	15.9605
8.36264	15.95
8.34917	16.0574
8.33574	16.1169
8.32236	16.2133
8.30903	16.3254
8.29573	16.4405
8.28248	16.5048
8.26927	16.5489
8.2561	16.6418
8.24298	16.7904
8.2299	16.8744
8.21685	16.9909
8.20385	17.1179
8.19089	17.2097
8.17797	17.3966
8.16509	17.5922
8.15225	17.7682
8.13946	17.8375
8.1267	17.8687
8.11398	17.967
8.10131	18.223
8.08867	18.3934
8.07606	18.4674
8.0635	18.4608
8.05099	18.471
8.0385	18.5774
8.02606	18.5519
8.01366	18.6043
8.00129	18.6474
7.98896	18.6515
7.97667	18.734
7.96442	18.7975
7.9522	18.7707
7.94002	18.7522
7.92788	18.7537
7.91578	18.8017
7.90371	18.79
7.89168	18.7063
7.87969	18.7002
7.86773	18.8011
7.85581	18.7877
7.84392	18.7309
7.83207	18.7034
7.82026	18.6775
7.80849	18.6855
7.79674	18.717
7.78503	18.689
7.77337	18.6323
7.76173	18.5896
7.75012	18.5543
7.73856	18.5481
7.72703	18.5295
7.71553	18.5216
7.70406	18.5604
7.69263	18.4821
7.68123	18.3874
7.66987	18.4234
7.65855	18.4483
7.64725	18.3265
7.63598	18.2951
7.62475	18.3207
7.61356	18.2783
7.60239	18.2697
7.59126	18.2502
7.58017	18.1621
7.5691	18.1261
7.55806	18.1451
7.54707	18.139
7.5361	18.1284
7.52516	18.1042
7.51425	18.1437
7.50338	18.1375
7.49253	18.0185
7.48172	18.0084
7.47094	18.0226
7.46019	18.0391
7.44947	17.9602
7.43879	17.9251
7.42813	17.8828
7.4175	17.8404
7.4069	17.7835
7.39634	17.7637
7.3858	17.6887
7.37529	17.6984
7.36482	17.7183
7.35437	17.6714
7.34396	17.6462
7.33357	17.6397
7.32321	17.5918
7.31288	17.5869
7.30258	17.5823
7.29231	17.54
7.28207	17.5795
7.27185	17.6437
7.26167	17.4979
7.25152	17.4125
7.24139	17.378
7.23129	17.3171
7.22122	17.3708
7.21117	17.5622
7.20116	17.4534
7.19117	17.2749
7.18121	17.3855
7.17128	17.5505
7.16137	17.4847
7.1515	17.4107
7.14164	17.2826
7.13182	17.1663
7.12203	17.2408
7.11225	17.2152
7.10251	17.1462
7.0928	17.0819
7.08311	17.0015
7.07344	16.973
7.06381	16.9858
7.0542	17.2263
7.04461	17.376
7.03506	17.0576
7.02552	16.9201
7.01601	16.8553
7.00653	16.7389
6.99708	16.7996
6.98765	16.8512
6.97824	16.7156
6.96886	16.8019
6.95951	17.1021
6.95018	16.8821
6.94087	16.6037
6.9316	16.44
6.92234	16.4245
6.91311	16.5206
6.90391	16.63
6.89473	16.4491
6.88557	16.338
6.87644	16.4318
6.86733	16.9169
6.85824	16.8177
6.84918	16.2808
6.84015	16.0687
6.83114	16.1925
6.82215	16.1782
6.81319	15.9417
6.80424	15.9355
6.79532	16.2361
6.78643	16.2233
6.77756	15.8678
6.76871	15.6442
6.75989	15.5326
6.75109	15.505
6.74231	15.3949
6.73355	15.3474
6.72482	15.4508
6.71611	15.5724
6.70742	15.5311
6.69875	15.3689
6.69011	15.5446
6.68149	15.767
6.67289	15.6128
6.66431	15.4065
6.65576	15.373
6.64722	15.8432
6.63871	16.4958
6.63022	16.2084
6.62175	15.7171
6.61331	15.6145
6.60488	15.6151
6.59648	15.7672
6.5881	15.8598
6.57974	16.0925
6.5714	16.2857
6.56308	15.9193
6.55478	15.7846
6.54651	15.724
6.53825	15.6245
6.53001	15.7084
6.5218	15.9082
6.51361	15.7232
6.50544	15.8188
6.49729	16.4514
6.48915	16.5784
6.48104	16.1953
6.47295	15.8657
6.46488	15.5811
6.45683	15.545
6.4488	15.5273
6.44079	15.5403
6.4328	15.6925
6.42482	15.8611
6.41687	16.5212
6.40894	16.2416
6.40103	15.4101
6.39314	15.293
6.38526	15.3093
6.37741	15.3752
6.36957	15.4064
6.36176	15.1858
6.35396	15.1726
6.34618	15.4629
6.33843	15.2833
6.33069	14.9674
6.32297	14.9162
6.31527	14.8384
6.30758	14.8122
6.29992	14.7402
6.29227	14.6829
6.28465	14.6584
6.27704	14.6743
6.26945	14.6688
6.26188	14.5923
6.25432	14.4402
6.24679	14.3519
6.23927	14.4482
6.23177	14.4503
6.22429	14.3988
6.21683	14.3469
6.20938	14.3401
6.20195	14.2549
6.19454	14.2372
6.18715	14.5246
6.17978	14.3723
6.17242	14.0975
6.16508	14.2141
6.15776	14.2111
6.15045	13.9075
6.14317	13.8277
6.1359	13.8699
6.12864	13.889
6.12141	14.0463
6.11419	14.3091
6.10699	14.0508
6.0998	13.7914
6.09263	13.831
6.08549	13.8309
6.07835	14.0067
6.07123	14.1595
6.06413	13.9276
6.05705	14.1659
6.04998	14.871
6.04293	14.4598
6.0359	13.8721
6.02888	13.7483
6.02187	13.8024
6.01489	13.9596
6.00792	13.9105
6.00096	13.8352
5.99403	14.0258
5.98711	14.1647
5.9802	14.1299
5.97331	14.2468
5.96644	14.2613
5.95958	14.018
5.95274	14.0415
5.94591	14.2709
5.9391	14.8717
5.9323	14.7325
5.92552	14.3216
5.91876	14.3141
5.91201	14.2519
5.90528	14.306
5.89856	14.7233
5.89186	14.7172
5.88517	14.8869
5.8785	14.9535
5.87184	14.4657
5.8652	14.3916
5.85857	14.2492
5.85196	14.0859
5.84536	14.0709
5.83878	14.1783
5.83221	14.3304
5.82566	14.6535
5.81912	14.6884
5.81259	14.2887
5.80608	14.1197
5.79959	14.1379
5.79311	14.1314
5.78665	14.1932
5.78019	14.2021
5.77376	14.3266
5.76734	14.6415
5.76093	14.3947
5.75453	14.1662
5.74815	14.1499
5.74179	14.0177
5.73543	14.035
5.7291	14.0066
5.72277	13.9869
5.71646	14.0364
5.71017	14.1476
5.70389	14.0113
5.69762	13.9313
5.69136	13.968
5.68513	13.9372
5.6789	13.963
5.67268	13.8559
5.66648	13.772
5.6603	13.8674
5.65413	13.9299
5.64797	14.0292
5.64182	14.1716
5.63569	13.9327
5.62957	13.7117
5.62347	13.7416
5.61737	13.8244
5.61129	13.7657
5.60522	13.7395
5.59917	13.731
5.59313	13.6596
5.5871	13.6861
5.58109	13.9105
5.57509	13.9886
5.5691	13.8463
5.56312	13.7568
5.55716	13.7452
5.55121	13.7308
5.54528	13.6653
5.53935	13.6208
5.53344	13.625
5.52754	13.6316
5.52166	13.6695
5.51578	13.6946
5.50992	13.6414
5.50407	13.5542
5.49823	13.5569
5.49241	13.5996
5.4866	13.604
5.4808	13.7025
5.47501	13.77
5.46923	13.7669
5.46347	13.7425
5.45772	13.6106
5.45198	13.5831
5.44625	13.6261
5.44054	13.6096
5.43484	13.5999
5.42914	13.7289
5.42347	13.8634
5.4178	13.7274
5.41214	13.6536
5.4065	13.6913
5.40087	13.5867
5.39525	13.5432
5.38964	13.4926
5.38404	13.4922
5.37846	13.6281
5.37288	13.649
5.36732	13.5708
5.36177	13.5436
5.35623	13.5732
5.35071	13.6484
5.34519	13.5611
5.33968	13.5451
5.33419	13.5498
5.32871	13.4807
5.32324	13.3884
5.31778	13.3809
5.31233	13.424
5.30689	13.4017
5.30147	13.3536
5.29605	13.3913
5.29065	13.4633
5.28525	13.3403
5.27987	13.307
5.2745	13.3942
5.26914	13.4327
5.26379	13.3604
5.25845	13.304
5.25312	13.3005
5.24781	13.28
5.2425	13.2789
5.23721	13.2833
5.23192	13.2812
5.22665	13.2665
5.22138	13.2514
5.21613	13.3039
5.21089	13.3127
5.20566	13.2765
5.20044	13.2769
5.19522	13.3091
5.19002	13.2787
5.18483	13.1758
5.17965	13.1624
5.17448	13.1207
5.16933	13.0422
5.16418	12.9738
5.15904	12.9692
5.15391	13.0261
5.14879	13.1163
5.14368	13.1807
5.13859	13.1359
5.1335	13.0128
5.12842	12.9827
5.12335	13.0257
5.1183	13.056
5.11325	13.0417
5.10821	12.9956
5.10318	12.9634
5.09817	12.9659
5.09316	12.9849
5.08816	13.0313
5.08317	13.0874
5.07819	13.0412
5.07322	13.0528
5.06826	12.9674
5.06331	12.8417
5.05837	12.8312
5.05344	12.8739
5.04852	12.8933
5.04361	12.9078
5.03871	12.8971
5.03382	12.9027
5.02894	12.9081
5.02406	12.8667
5.0192	12.8057
5.01435	12.7836
5.0095	12.8269
5.00467	12.829
4.99984	12.8152
4.99502	12.83
4.99021	12.8076
4.98542	12.8302
4.98063	12.8339
4.97585	12.7885
4.97108	12.7527
4.96632	12.7597
4.96156	12.7601
4.95682	12.8306
4.95209	12.8183
4.94736	12.7039
4.94264	12.6841
4.93794	12.7199
4.93324	12.759
4.92855	12.7439
4.92387	12.6896
4.9192	12.6413
4.91453	12.627
4.90988	12.696
4.90524	12.732
4.9006	12.6877
4.89597	12.6672
4.89135	12.6704
4.88674	12.6701
4.88214	12.656
4.87755	12.6689
4.87296	12.6917
4.86839	12.6927
4.86382	12.6531
4.85926	12.5864
4.85471	12.568
4.85017	12.5741
4.84564	12.6036
4.84111	12.5298
4.8366	12.5162
4.83209	12.6073
4.82759	12.6142
4.8231	12.6286
4.81862	12.5408
4.81415	12.4565
4.80968	12.4631
4.80522	12.4802
4.80077	12.5081
4.79633	12.476
4.7919	12.4934
4.78747	12.4841
4.78306	12.4799
4.77865	12.5466
4.77425	12.5001
4.76986	12.4626
4.76547	12.4984
4.7611	12.487
4.75673	12.4768
4.75237	12.4703
4.74802	12.4313
4.74367	12.3933
4.73934	12.4404
4.73501	12.4712
4.73069	12.445
4.72638	12.411
4.72207	12.3383
4.71777	12.3139
4.71348	12.3517
4.7092	12.4011
4.70493	12.4267
4.70066	12.4155
4.69641	12.3911
4.69216	12.3744
4.68791	12.3382
4.68368	12.3436
4.67945	12.3736
4.67523	12.3292
4.67102	12.3081
4.66682	12.2746
4.66262	12.2757
4.65843	12.3045
4.65425	12.3178
4.65007	12.3355
4.64591	12.284
4.64175	12.3104
4.6376	12.358
4.63345	12.3046
4.62932	12.2696
4.62519	12.1963
4.62106	12.1215
4.61695	12.1965
4.61284	12.2929
4.60874	12.2487
4.60465	12.1516
4.60056	12.1497
4.59648	12.2108
4.59241	12.2127
4.58835	12.1584
4.58429	12.1629
4.58024	12.2062
4.5762	12.2243
4.57216	12.1109
4.56814	11.9955
4.56411	12.095
4.5601	12.2129
4.55609	12.2326
4.55209	12.2065
4.5481	12.0662
4.54411	12.0573
4.54013	12.1013
4.53616	12.1303
4.5322	12.1516
4.52824	12.1483
4.52429	12.0737
4.52034	11.9707
4.51641	11.9525
4.51247	11.9952
4.50855	11.9771
4.50463	12.011
4.50072	12.0932
4.49682	12.0088
4.49292	11.9702
4.48903	12.0431
4.48515	12.0965
4.48127	12.0357
4.4774	11.9807
4.47354	11.9689
4.46968	11.9663
4.46584	11.9349
4.46199	11.8961
4.45815	11.9114
4.45432	11.9421
4.4505	11.9533
4.44668	12.0169
4.44287	12.0337
4.43907	11.9822
4.43527	11.9494
4.43148	11.9129
4.4277	11.8704
4.42392	11.9174
4.42015	11.9318
4.41638	11.9376
4.41262	12.0178
4.40887	11.9669
4.40513	11.9055
4.40139	11.9075
4.39765	11.8459
4.39393	11.8038
4.39021	11.887
4.38649	11.9058
4.38278	11.863
4.37908	11.8358
4.37539	11.8272
4.3717	11.8329
4.36801	11.8382
4.36434	11.7897
4.36067	11.7405
4.357	11.8356
4.35335	11.8756
4.34969	11.8251
4.34605	11.7535
4.34241	11.771
4.33877	11.809
4.33514	11.8149
4.33152	11.7345
4.32791	11.7151
4.3243	11.7212
4.32069	11.7262
4.3171	11.6793
4.31351	11.7055
4.30992	11.7015
4.30634	11.6103
4.30277	11.6204
4.2992	11.6302
4.29564	11.5734
4.29208	11.5017
4.28853	11.4269
4.28499	11.4214
4.28145	11.4359
4.27792	11.3707
4.27439	11.4232
4.27087	11.5112
4.26735	11.5752
4.26384	11.5961
4.26034	11.5434
4.25684	11.5171
4.25335	11.4201
4.24986	11.3154
4.24638	11.3335
4.24291	11.4693
4.23944	11.5062
4.23598	11.3791
4.23252	11.2814
4.22906	11.3023
4.22562	11.352
4.22218	11.3455
4.21874	11.4579
4.21531	11.4785
4.21189	11.4692
4.20847	11.4995
4.20506	11.5027
4.20165	11.4922
4.19825	11.4912
4.19485	11.4523
4.19146	11.5197
4.18807	11.6243
4.18469	11.6146
4.18132	11.5476
4.17795	11.4841
4.17458	11.4881
4.17123	11.4844
4.16787	11.4665
4.16453	11.4799
4.16118	11.5497
4.15785	11.5233
4.15451	11.4305
4.15119	11.4079
4.14787	11.48
4.14455	11.4764
4.14124	11.3954
4.13794	11.3757
4.13464	11.3606
4.13134	11.3549
4.12805	11.4293
4.12477	11.4831
4.12149	11.3689
4.11822	11.3125
4.11495	11.3716
4.11168	11.4576
4.10843	11.4271
4.10517	11.3075
4.10192	11.2313
4.09868	11.2895
4.09545	11.3242
4.09221	11.3144
4.08899	11.3389
4.08576	11.3228
4.08255	11.2636
4.07933	11.2823
4.07613	11.2729
4.07292	11.2112
4.06973	11.1606
4.06654	11.2119
4.06335	11.1909
4.06017	11.1824
4.05699	11.238
4.05382	11.2101
4.05065	11.154
4.04749	11.1074
4.04433	11.1389
4.04118	11.145
4.03803	11.0999
4.03489	11.0258
4.03175	11.0332
4.02862	11.1031
4.02549	11.1359
4.02237	11.0974
4.01925	11.0922
4.01614	11.0019
4.01303	11.0327
4.00993	11.1244
4.00683	11.1055
4.00373	11.0514
4.00064	11.0863
3.99756	11.0258
3.99448	10.9587
3.9914	11.0063
3.98833	11.1149
3.98527	11.0332
3.98221	10.9674
3.97915	11.0504
3.9761	11.0614
3.97305	10.9837
3.97001	10.959
3.96697	10.9582
3.96394	10.9282
3.96091	10.9489
3.95789	10.8842
3.95487	10.8657
3.95186	10.9649
3.94885	10.962
3.94584	10.9649
3.94284	10.9226
3.93984	10.8582
3.93685	10.8449
3.93386	10.9056
3.93088	10.9277
3.9279	10.865
3.92493	10.8438
3.92196	10.8439
3.919	10.834
3.91604	10.8003
3.91308	10.7475
3.91013	10.7327
3.90718	10.7767
3.90424	10.8161
3.9013	10.8057
3.89837	10.7304
3.89544	10.7168
3.89252	10.744
3.8896	10.7864
3.88668	10.7653
3.88377	10.7243
3.88086	10.7014
3.87796	10.6977
3.87506	10.7218
3.87217	10.8227
3.86928	10.7886
3.86639	10.6664
3.86351	10.6971
3.86064	10.7964
3.85776	10.7208
3.8549	10.6088
3.85203	10.5838
3.84917	10.5824
3.84631	10.5874
3.84346	10.618
3.84062	10.6616
3.83777	10.6304
3.83494	10.5951
3.8321	10.5524
3.82927	10.5683
3.82644	10.5428
3.82362	10.5382
3.82081	10.5665
3.81799	10.5293
3.81518	10.4819
3.81238	10.5083
3.80958	10.4827
3.80678	10.4872
3.80399	10.5041
3.8012	10.4579
3.79841	10.4257
3.79563	10.4226
3.79286	10.4597
3.79008	10.4717
3.78731	10.5342
3.78455	10.6011
3.78179	10.5458
3.77903	10.4423
3.77628	10.3589
3.77353	10.3916
3.77079	10.4976
3.76805	10.4395
3.76531	10.4012
3.76258	10.3401
3.75985	10.2711
3.75713	10.3179
3.7544	10.3522
3.75169	10.3269
3.74898	10.3407
3.74627	10.2632
3.74356	10.2264
3.74086	10.2093
3.73816	10.3022
3.73547	10.3347
3.73278	10.2316
3.7301	10.1889
3.72741	10.1899
3.72474	10.157
3.72206	10.1383
3.71939	10.1179
3.71673	10.1147
3.71406	10.1293
3.71141	10.0758
3.70875	10.0701
3.7061	10.1031
3.70345	10.0261
3.70081	9.99354
3.69817	10.0172
3.69553	9.98711
3.6929	10.0159
3.69027	10.079
3.68765	10.0452
3.68503	9.9933
3.68241	9.98026
3.6798	9.99351
3.67719	10.0369
3.67458	10.0233
3.67198	10.0195
3.66938	9.99032
3.66678	9.91005
3.66419	9.84552
3.66161	9.74334
3.65902	9.74535
3.65644	9.78102
3.65387	9.75796
3.65129	9.83033
3.64872	9.87511
3.64616	9.8277
3.64359	9.85968
3.64103	9.84275
3.63848	9.77341
3.63593	9.76623
3.63338	9.79344
3.63084	9.73878
3.6283	9.59298
3.62576	9.63046
3.62322	9.75054
3.62069	9.6835
3.61817	9.58499
3.61564	9.52989
3.61312	9.58263
3.61061	9.66077
3.6081	9.61709
3.60559	9.56431
3.60308	9.53273
3.60058	9.55271
3.59808	9.5865
3.59558	9.57026
3.59309	9.54757
3.59061	9.52686
3.58812	9.46639
3.58564	9.43084
3.58316	9.39094
3.58069	9.42158
3.57822	9.46637
3.57575	9.48054
3.57328	9.41873
3.57082	9.33747
3.56836	9.30214
3.56591	9.19756
3.56346	9.18454
3.56101	9.34444
3.55857	9.44371
3.55613	9.37275
3.55369	9.27572
3.55126	9.29512
3.54883	9.2431
3.5464	9.2265
3.54397	9.33627
3.54155	9.3082
3.53914	9.3036
3.53672	9.2294
3.53431	9.16626
3.5319	9.15026
3.5295	9.11417
3.5271	9.10511
3.5247	9.17522
3.52231	9.07771
3.51991	8.93531
3.51753	8.97804
3.51514	8.95805
3.51276	8.90166
3.51038	8.96623
3.50801	9.01155
3.50563	8.95173
3.50327	8.93758
3.5009	8.94775
3.49854	8.93456
3.49618	8.95933
3.49382	9.01455
3.49147	8.93185
3.48912	8.79452
3.48677	8.72291
3.48443	8.6953
3.48209	8.81321
3.47975	8.85911
3.47742	8.72245
3.47509	8.75428
3.47276	8.83127
3.47044	8.7517
3.46812	8.7349
3.4658	8.84366
3.46348	8.78773
3.46117	8.59483
3.45886	8.51974
3.45656	8.63827
3.45425	8.70713
3.45195	8.64549
3.44966	8.60693
3.44736	8.55177
3.44507	8.5053
3.44279	8.5425
3.4405	8.54685
3.43822	8.54715
3.43594	8.55164
3.43367	8.47755
3.43139	8.41464
3.42912	8.4054
3.42686	8.36923
3.42459	8.36723
3.42233	8.34685
3.42007	8.35628
3.41782	8.35031
3.41557	8.32412
3.41332	8.27355
3.41108	8.23556
3.40883	8.24622
3.40659	8.19675
3.40435	8.10473
3.40212	8.10376
3.39989	8.1235
3.39766	8.02848
3.39544	7.99451
3.39322	8.0608
3.391	7.96813
3.38878	7.88112
3.38657	7.97911
3.38436	8.08079
3.38215	8.08691
3.37994	7.97508
3.37774	8.01954
3.37554	8.09311
3.37335	8.0258
3.37115	7.92563
3.36896	7.9237
3.36678	7.98823
3.36459	7.95138
3.36241	7.81013
3.36023	7.76102
3.35805	7.83018
3.35588	7.75666
3.35371	7.64387
3.35154	7.55538
3.34938	7.55191
3.34721	7.6758
3.34505	7.68722
3.3429	7.59609
3.34074	7.5547
3.33859	7.69811
3.33644	7.62974
3.3343	7.47944
3.33215	7.50079
3.33001	7.36022
3.32788	7.3135
3.32574	7.31794
3.32361	7.24599
3.32148	7.28071
3.31936	7.32813
3.31723	7.3373
3.31511	7.26041
3.31299	7.25327
3.31088	7.20904
3.30876	7.18497
3.30665	7.29204
3.30455	7.20498
3.30244	7.0743
3.30034	7.07825
3.29824	7.06984
3.29614	6.97828
3.29405	6.9494
3.29196	6.99908
3.28987	6.9319
3.28778	6.9167
3.2857	6.92382
3.28362	6.89452
3.28154	6.81575
3.27946	6.77812
3.27739	6.73086
3.27532	6.69933
3.27325	6.67381
3.27119	6.65388
3.26913	6.57433
3.26707	6.50719
3.26501	6.53445
3.26295	6.54961
3.2609	6.50759
3.25885	6.43873
3.2568	6.39782
3.25476	6.38261
3.25272	6.35414
3.25068	6.35864
3.24864	6.29962
3.24661	6.198
3.24458	6.11862
3.24255	6.121
3.24052	6.19272
3.2385	6.19131
3.23648	6.11743
3.23446	6.11899
3.23244	6.09756
3.23043	6.08485
3.22841	6.0483
3.2264	6.03719
3.2244	6.04124
3.22239	5.97419
3.22039	5.93292
3.21839	5.87246
3.2164	5.78219
3.2144	5.73319
3.21241	5.80802
3.21042	5.87085
3.20844	5.73681
3.20645	5.74142
3.20447	5.82297
3.20249	5.6336
3.20051	5.52765
3.19854	5.60331
3.19657	5.69726
3.1946	5.68299
3.19263	5.54975
3.19067	5.42576
3.1887	5.35336
3.18674	5.37839
3.18479	5.46669
3.18283	5.55135
3.18088	5.61287
3.17893	5.56433
3.17698	5.42735
3.17504	5.42306
3.17309	5.46246
3.17115	5.46397
3.16921	5.49307
3.16728	5.44261
3.16534	5.38888
3.16341	5.40462
3.16148	5.43662
3.15956	5.32499
3.15763	5.26529
3.15571	5.22447
3.15379	5.22834
3.15187	5.24341
3.14996	5.27577
3.14805	5.29628
3.14614	5.25678
3.14423	5.16847
3.14232	5.21827
3.14042	5.27715
3.13852	5.23328
3.13662	5.20834
3.13472	5.17277
3.13283	5.19592
3.13094	5.20049
3.12905	5.22738
3.12716	5.23065
3.12528	5.17349
3.12339	5.10916
3.12151	5.08781
3.11964	5.18673
3.11776	5.29542
3.11589	5.31186
3.11401	5.19149
3.11214	5.12665
3.11028	5.16015
3.10841	5.0999
3.10655	5.07968
3.10469	5.15373
3.10283	5.36236
3.10098	5.26078
3.09912	5.11416
3.09727	5.10829
3.09542	5.0342
3.09358	5.07348
3.09173	5.23029
3.08989	5.31558
3.08805	5.21538
3.08621	5.23342
3.08437	5.25139
3.08254	5.20679
3.08071	5.23812
3.07888	5.28924
3.07705	5.33229
3.07523	5.26042
3.0734	5.16094
3.07158	5.25243
3.06977	5.282
3.06795	5.22913
3.06613	5.26141
3.06432	5.31504
3.06251	5.31996
3.0607	5.45789
3.0589	5.59935
3.0571	5.54823
3.05529	5.51578
3.05349	5.52008
3.0517	5.49088
3.0499	5.5335
3.04811	5.53679
3.04632	5.47977
3.04453	5.45038
3.04274	5.51514
3.04096	5.48042
3.03918	5.52095
3.0374	5.74236
3.03562	5.84079
3.03384	5.70971
3.03207	5.63987
3.03029	5.73033
3.02852	5.72532
3.02676	5.72557
3.02499	5.85295
3.02323	5.88659
3.02146	5.71947
3.0197	5.63206
3.01795	5.68884
3.01619	5.61512
3.01444	5.54709
3.01269	5.74197
3.01094	5.81939
3.00919	5.76903
3.00744	5.80185
3.0057	5.899
3.00396	5.91672
3.00222	5.83003
3.00048	5.88478
2.99875	5.83349
2.99701	5.73651
2.99528	5.79297
2.99355	5.86967
2.99183	5.90784
2.9901	5.98111
2.98838	5.92629
2.98666	5.98511
2.98494	5.95635
2.98322	5.87021
2.9815	5.92249
2.97979	5.95437
2.97808	5.94499
2.97637	5.97019
2.97466	5.9935
2.97295	6.04358
2.97125	6.01733
2.96955	5.97721
2.96785	6.05906
2.96615	5.99385
2.96446	5.99647
2.96276	6.11229
2.96107	6.1578
2.95938	6.19839
2.95769	6.24459
2.95601	6.2341
2.95432	6.25664
2.95264	6.09046
2.95096	6.07153
2.94928	6.1988
2.9476	6.09093
2.94593	6.12502
2.94425	6.17475
2.94258	6.32209
2.94092	6.30484
2.93925	6.32518
2.93758	6.38624
2.93592	6.447
2.93426	6.40737
2.9326	6.38227
2.93094	6.34482
2.92928	6.21093
2.92763	6.18085
2.92598	6.33134
2.92433	6.45601
2.92268	6.52171
2.92103	6.59375
2.91939	6.57549
2.91775	6.58652
2.9161	6.59157
2.91447	6.5589
2.91283	6.56896
2.91119	6.59879
2.90956	6.59806
2.90793	6.52907
2.9063	6.58946
2.90467	6.6931
2.90304	6.65523
2.90142	6.5934
2.89979	6.59804
2.89817	6.68912
2.89656	6.67645
2.89494	6.68538
2.89332	6.73353
2.89171	6.77359
2.8901	6.79779
2.88849	6.82596
2.88688	6.82875
2.88527	6.78871
2.88367	6.8396
2.88206	6.9492
2.88046	6.9722
2.87886	6.95036
2.87727	7.15086
2.87567	7.22902
2.87408	7.14464
2.87248	6.98996
2.87089	7.06067
2.8693	7.20307
2.86772	7.1426
2.86613	7.0442
2.86455	6.99179
2.86297	7.11594
2.86139	7.36399
2.85981	7.42842
2.85823	7.39474
2.85666	7.38931
2.85508	7.38623
2.85351	7.3648
2.85194	7.32158
2.85038	7.4187
2.84881	7.44085
2.84724	7.45385
2.84568	7.5164
2.84412	7.60965
2.84256	7.74543
2.841	7.71694
2.83945	7.66631
2.83789	7.68543
2.83634	7.80102
2.83479	7.79871
2.83324	7.80768
2.83169	7.87154
2.83015	7.79952
2.82861	7.73861
2.82706	7.8542
2.82552	8.06178
2.82398	8.1091
2.82245	7.97576
2.82091	7.95635
2.81938	8.02632
2.81784	8.01986
2.81631	8.1393
2.81479	8.26096
2.81326	8.25874
2.81173	8.3104
2.81021	8.32448
2.80869	8.34484
2.80716	8.44592
2.80565	8.56833
2.80413	8.62211
2.80261	8.50543
2.8011	8.50728
2.79959	8.54661
2.79808	8.66256
2.79657	8.75729
2.79506	8.72453
2.79355	8.72632
2.79205	8.78357
2.79055	8.84831
2.78904	8.86732
2.78754	8.99195
2.78605	9.14118
2.78455	9.05069
2.78306	8.93386
2.78156	8.94425
2.78007	9.08038
2.77858	9.14218
2.77709	9.22057
2.77561	9.23542
2.77412	9.17332
2.77264	9.24913
2.77116	9.44352
2.76968	9.47893
2.7682	9.52024
2.76672	9.59675
2.76524	9.60284
2.76377	9.69334
2.7623	9.62779
2.76083	9.69732
2.75936	9.63508
2.75789	9.53011
2.75642	9.7853
2.75496	9.96012
2.7535	9.64292
2.75203	9.64385
2.75057	9.71568
2.74912	9.73215
2.74766	9.8882
2.7462	9.86164
2.74475	9.91496
2.7433	10.0089
2.74185	10.0277
2.7404	10.1913
2.73895	10.1538
2.7375	9.93893
2.73606	10.0242
2.73462	10.3016
2.73318	10.1199
2.73174	9.99248
2.7303	10.1196
2.72886	10.0926
2.72742	10.0112
2.72599	10.2118
2.72456	10.4258
2.72313	10.2541
2.7217	10.2653
2.72027	10.4149
2.71884	10.2947
2.71742	10.1651
2.71599	9.98104
2.71457	9.95828
2.71315	10.0819
2.71173	10.3158
2.71032	10.3251
2.7089	10.1949
2.70748	10.1
2.70607	10.1513
2.70466	10.14
2.70325	10.1082
2.70184	10.2886
2.70043	10.3245
2.69903	10.0916
2.69762	10.0445
2.69622	10.2224
2.69482	10.3556
2.69342	10.2511
2.69202	10.0912
2.69062	10.153
2.68923	10.2028
2.68783	10.2041
2.68644	10.2195
2.68505	10.161
2.68366	10.1296
2.68227	10.0458
2.68089	10.018
2.6795	10.1924
2.67812	10.3554
2.67673	10.5253
2.67535	10.4397
2.67397	10.207
2.6726	10.162
2.67122	10.5581
2.66984	10.6488
2.66847	10.4362
2.6671	10.5703
2.66572	10.6738
2.66435	10.3975
2.66299	9.96139
2.66162	9.95694
2.66025	10.1367
2.65889	10.1605
2.65753	10.1443
2.65616	10.1581
2.65481	10.0721
2.65345	10.0449
2.65209	10.0768
2.65073	10.1403
2.64938	10.0586
2.64803	10.0712
2.64667	10.1619
2.64532	10.0767
2.64397	10.0348
2.64263	10.0951
2.64128	10.0389
2.63994	10.0945
2.63859	10.059
2.63725	9.90356
2.63591	9.83751
2.63457	9.94298
2.63323	10.0757
2.6319	10.3541
2.63056	10.4671
2.62923	10.1177
2.62789	10.1841
2.62656	10.2986
2.62523	10.0864
2.6239	10.0417
2.62258	9.97501
2.62125	10.1186
2.61993	10.2957
2.6186	10.1705
2.61728	10.3354
2.61596	10.2796
2.61464	10.0153
2.61332	9.99887
2.61201	10.0322
2.61069	10.1345
2.60938	10.1743
2.60807	10.1165
2.60675	10.3027
2.60544	10.3146
2.60414	10.2681
2.60283	10.3757
2.60152	10.1319
2.60022	9.81313
2.59891	9.89714
2.59761	10.1278
2.59631	10.4323
2.59501	10.8231
2.59371	10.477
2.59242	10.0316
2.59112	10.0972
2.58983	10.1337
2.58853	10.0872
2.58724	10.0563
2.58595	10.0208
2.58466	10.152
2.58338	10.2073
2.58209	10.1522
2.5808	10.1797
2.57952	9.88723
2.57824	9.77521
2.57695	9.91739
2.57567	9.9157
2.5744	9.98525
2.57312	10.1496
2.57184	10.1401
2.57057	10.1518
2.56929	10.1828
2.56802	10.0284
2.56675	9.8103
2.56548	9.83599
2.56421	10.1976
2.56294	10.3486
2.56168	10.1606
2.56041	10.1275
2.55915	9.96608
2.55789	9.91416
2.55662	10.0081
2.55536	9.9513
2.5541	9.95463
2.55285	10.0729
2.55159	9.96757
2.55034	9.87676
2.54908	9.95983
2.54783	9.99237
2.54658	9.87006
2.54533	9.75236
2.54408	9.86753
2.54283	10.0517
2.54159	9.95226
2.54034	9.9563
2.5391	9.96039
2.53785	9.89671
2.53661	9.88367
2.53537	9.85751
2.53413	9.86315
2.53289	9.78714
2.53166	9.77905
2.53042	9.87195
2.52919	9.96058
2.52795	9.82702
2.52672	9.65856
2.52549	9.71261
2.52426	9.81949
2.52303	9.87371
2.52181	9.87963
2.52058	9.8277
2.51936	9.82417
2.51813	9.92584
2.51691	9.97985
2.51569	9.85597
2.51447	9.7491
2.51325	9.68449
2.51203	9.75923
2.51082	9.79536
2.5096	9.75743
2.50839	9.78646
2.50717	9.89208
2.50596	9.83708
2.50475	9.87699
2.50354	10.0309
2.50233	10.0306
2.50113	9.97212
2.49992	9.8519
2.49872	9.74931
2.49751	9.83959
2.49631	9.86804
2.49511	9.74083
2.49391	9.78366
2.49271	9.94238
2.49151	9.88307
2.49031	9.8451
2.48912	9.89285
2.48792	9.86205
2.48673	9.88669
2.48554	9.93243
2.48435	9.91244
2.48316	9.84398
2.48197	9.75514
2.48078	9.7443
2.4796	9.8194
2.47841	9.95621
2.47723	9.9717
2.47604	9.85211
2.47486	9.84493
2.47368	9.85008
2.4725	9.84982
2.47132	9.73119
2.47014	9.73722
2.46897	9.88084
2.46779	9.84665
2.46662	9.78991
2.46545	9.79887
2.46427	9.78701
2.4631	9.8715
2.46193	9.7829
2.46077	9.62496
2.4596	9.6477
2.45843	9.72586
2.45727	9.80139
2.4561	9.87558
2.45494	9.76808
2.45378	9.77342
2.45262	9.81426
2.45146	9.84704
2.4503	9.82099
2.44914	9.74656
2.44799	9.69995
2.44683	9.56088
2.44568	9.52614
2.44452	9.71694
2.44337	9.86952
2.44222	9.71285
2.44107	9.59042
2.43992	9.83249
2.43877	9.95364
2.43763	9.85521
2.43648	9.83898
2.43534	9.86897
2.43419	10.1126
2.43305	10.109
2.43191	9.74218
2.43077	9.6967
2.42963	9.83419
2.42849	9.8163
2.42736	9.89723
2.42622	9.8571
2.42509	9.81991
2.42395	9.78477
2.42282	9.68833
2.42169	9.56494
2.42056	9.69156
2.41943	9.95677
2.4183	9.99902
2.41717	9.83021
2.41605	9.79287
2.41492	9.92767
2.4138	9.89321
2.41267	9.84691
2.41155	9.75431
2.41043	9.78941
2.40931	9.89749
2.40819	9.84801
2.40707	9.79684
2.40595	9.62492
2.40484	9.65845
2.40372	9.79404
2.40261	9.85115
2.4015	9.76667
2.40039	9.82318
2.39928	9.78682
2.39817	9.76841
2.39706	9.77389
2.39595	9.66665
2.39484	9.62776
2.39374	9.70089
2.39263	9.74442
2.39153	9.79318
2.39043	9.86494
2.38932	9.91481
2.38822	9.91416
2.38712	9.78515
2.38603	9.66403
2.38493	9.61961
2.38383	9.6529
2.38274	9.88307
2.38164	10.0318
2.38055	9.98939
2.37946	9.82108
2.37836	9.60918
2.37727	9.64986
2.37618	9.85745
2.3751	9.80475
2.37401	9.76762
2.37292	9.85429
2.37184	9.91657
2.37075	9.88362
2.36967	9.7969
2.36859	9.67935
2.3675	9.63846
2.36642	9.57382
2.36534	9.6874
2.36427	9.74439
2.36319	9.73414
2.36211	9.74092
2.36104	9.7138
2.35996	9.76139
2.35889	9.9721
2.35781	9.94716
2.35674	9.8434
2.35567	9.77691
2.3546	9.77108
2.35353	9.90151
2.35247	10.0232
2.3514	9.86575
2.35033	9.61868
2.34927	9.64036
2.3482	9.85111
2.34714	9.91384
2.34608	9.71125
2.34502	9.47645
2.34396	9.55902
2.3429	9.68194
2.34184	9.6683
2.34078	9.62282
2.33973	9.72067
2.33867	9.8421
2.33762	9.85843
2.33656	9.8319
2.33551	9.86731
2.33446	9.77525
2.33341	9.74441
2.33236	9.89817
2.33131	9.81451
2.33026	9.69786
2.32922	9.86638
2.32817	9.87367
2.32712	9.85664
2.32608	9.84714
2.32504	9.66337
2.324	9.64725
2.32295	9.66746
2.32191	9.68869
2.32087	9.72551
2.31984	9.78332
2.3188	10.0032
2.31776	9.98321
2.31673	9.79037
2.31569	9.75102
2.31466	9.81111
2.31362	9.81298
2.31259	9.72133
2.31156	9.73122
2.31053	9.66738
2.3095	9.64503
2.30847	9.77967
2.30745	9.87359
2.30642	9.87337
2.3054	9.76934
2.30437	9.73776
2.30335	9.73072
2.30232	9.73765
2.3013	9.74509
2.30028	9.75537
2.29926	9.73886
2.29824	9.69543
2.29722	9.93759
2.29621	9.94701
2.29519	9.79314
2.29417	9.80575
2.29316	9.78003
2.29215	9.8652
2.29113	9.87538
2.29012	9.83101
2.28911	9.7997
2.2881	9.73278
2.28709	9.77096
2.28608	9.85849
2.28507	9.91734
2.28407	9.92476
2.28306	9.80106
2.28206	9.66963
2.28105	9.64406
2.28005	9.83957
2.27905	10.0504
2.27805	10.024
2.27705	9.83232
2.27605	9.8811
2.27505	9.79492
2.27405	9.64065
2.27305	9.75684
2.27206	9.9776
2.27106	9.80855
2.27007	9.73061
2.26907	9.82906
2.26808	9.89078
2.26709	9.75211
2.2661	9.73495
2.26511	9.77068
2.26412	9.76111
2.26313	9.74554
2.26214	9.74816
2.26116	9.74754
2.26017	9.7907
2.25919	9.85232
2.2582	9.84063
2.25722	9.75633
2.25624	9.62991
2.25526	9.65163
2.25428	9.83507
2.2533	9.86292
2.25232	9.71182
2.25134	9.75009
2.25036	9.73113
2.24939	9.73586
2.24841	9.80697
2.24744	9.8136
2.24646	9.79329
2.24549	9.87868
2.24452	9.95012
2.24355	9.8263
2.24257	9.70588
2.24161	9.70713
2.24064	9.77746
2.23967	9.92315
2.2387	9.87472
2.23774	9.7605
2.23677	9.65929
2.23581	9.63894
2.23484	9.71459
2.23388	9.79574
2.23292	9.75885
2.23196	9.62499
2.231	9.69455
2.23004	9.86708
2.22908	9.9487
2.22812	9.80769
2.22716	9.66365
2.22621	9.60566
2.22525	9.76248
2.2243	9.84397
2.22334	9.65779
2.22239	9.68337
2.22144	9.80217
2.22049	9.81533
2.21953	9.84973
2.21859	9.85822
2.21764	9.94859
2.21669	9.97057
2.21574	9.72272
2.21479	9.45393
2.21385	9.65947
2.2129	9.94522
2.21196	9.95949
2.21102	9.8116
2.21007	9.6112
2.20913	9.75647
2.20819	9.89974
2.20725	9.78462
2.20631	9.89461
2.20537	9.91001
2.20444	9.83987
2.2035	9.89768
2.20256	9.93291
2.20163	9.9417
2.20069	9.7858
2.19976	9.65282
2.19883	9.66283
2.19789	9.71795
2.19696	9.71239
2.19603	9.80075
2.1951	9.81471
2.19417	9.84277
2.19325	9.8637
2.19232	9.7033
2.19139	9.62002
2.19047	9.84196
2.18954	10.0635
2.18862	10.1019
2.18769	10.063
2.18677	9.92951
2.18585	9.76292
2.18493	9.70064
2.18401	9.7736
2.18309	9.91714
2.18217	9.85732
2.18125	9.84461
2.18033	9.84326
2.17942	9.67208
2.1785	9.68947
2.17759	9.86786
2.17667	10.025
2.17576	9.93706
2.17485	9.89698
2.17393	9.92106
2.17302	9.93131
2.17211	9.8492
2.1712	9.69534
2.17029	9.74214
2.16939	9.88433
2.16848	9.8532
2.16757	9.87599
2.16667	9.93232
2.16576	9.88364
2.16486	9.78805
2.16395	9.68726
2.16305	9.75032
2.16215	9.65563
2.16125	9.50702
2.16035	9.66741
2.15945	9.81491
2.15855	9.79758
2.15765	9.8074
2.15675	9.68456
2.15586	9.78239
2.15496	9.94333
2.15406	9.77102
2.15317	9.67022
2.15228	9.76692
2.15138	9.62165
2.15049	9.58595
2.1496	9.51752
2.14871	9.74718
2.14782	10.0765
2.14693	10.1094
2.14604	9.93308
2.14515	9.82279
2.14427	9.76471
2.14338	9.76514
2.14249	9.85857
2.14161	9.71645
2.14072	9.48612
2.13984	9.61146
2.13896	9.91628
2.13808	9.98761
2.13719	9.91648
2.13631	9.65732
2.13543	9.7046
2.13455	9.87702
2.13368	9.91561
2.1328	9.84255
2.13192	9.74573
2.13105	9.87516
2.13017	10.0333
2.1293	9.89318
2.12842	9.88524
2.12755	10.0981
2.12668	10.1259
2.1258	9.88797
2.12493	9.55653
2.12406	9.52395
2.12319	9.66399
2.12232	9.765
2.12145	9.77857
2.12059	9.81223
2.11972	9.82295
2.11885	9.89865
2.11799	9.82756
2.11712	9.68283
2.11626	9.83242
2.1154	9.96279
2.11453	9.88252
2.11367	9.70129
2.11281	9.8014
2.11195	9.97312
2.11109	9.91219
2.11023	9.89041
2.10937	10.1795
2.10851	10.0803
2.10766	9.69311
2.1068	9.79504
2.10594	9.968
2.10509	9.98242
2.10423	9.96872
2.10338	9.84209
2.10253	9.80305
2.10168	9.75536
2.10082	9.86749
2.09997	10.1602
2.09912	10.2659
2.09827	9.97805
2.09742	9.7818
2.09658	9.77661
2.09573	9.84857
2.09488	10.011
2.09404	9.86514
2.09319	9.75546
2.09235	9.616
2.0915	9.62554
2.09066	10.0117
2.08982	10.1227
2.08897	9.72325
2.08813	9.76556
2.08729	9.85901
2.08645	9.61418
2.08561	9.4913
2.08477	9.5261
2.08394	9.55981
2.0831	9.4173
2.08226	9.33532
2.08143	9.8203
2.08059	10.1868
2.07976	10.0961
2.07892	10.1399
2.07809	10.0609
2.07726	10.1364
2.07643	10.0849
2.07559	9.78994
2.07476	9.50918
2.07393	9.60757
2.0731	9.91612
2.07228	9.98358
2.07145	9.86129
2.07062	9.68042
2.06979	9.59771
2.06897	9.87152
2.06814	10.0173
2.06732	9.761
2.06649	9.74252
2.06567	9.74563
2.06485	9.71814
2.06403	9.91969
2.0632	10.019
2.06238	9.88024
2.06156	9.94449
2.06074	9.88832
2.05993	9.88976
2.05911	9.9614
2.05829	9.81595
2.05747	9.77124
2.05666	9.76201
2.05584	9.80025
2.05503	9.80681
2.05421	9.84125
2.0534	9.79792
2.05259	9.76831
2.05177	9.7369
2.05096	9.65093
2.05015	9.87847
2.04934	10.0274
2.04853	9.93898
2.04772	9.77195
2.04691	9.86475
2.04611	10.0328
2.0453	9.9792
2.04449	9.89356
2.04369	9.88045
2.04288	9.83732
2.04208	9.97663
2.04127	10.0104
2.04047	9.93226
2.03967	10.1492
2.03886	10.0231
2.03806	9.77712
2.03726	9.94017
2.03646	10.2516
2.03566	10.2598
2.03486	10.0514
2.03407	10.0088
2.03327	10.0873
2.03247	9.92546
2.03167	9.87452
2.03088	9.84186
2.03008	9.72482
2.02929	9.42507
2.0285	9.40819
2.0277	9.5778
2.02691	9.6408
2.02612	9.94346
2.02533	10.1256
2.02453	10.2649
2.02374	10.0254
2.02295	9.86324
2.02217	9.80607
2.02138	9.68394
2.02059	9.79757
2.0198	9.8835
2.01902	9.97848
2.01823	10.1098
2.01744	10.0171
2.01666	9.92575
2.01588	9.96214
2.01509	10.0124
2.01431	9.83909
2.01353	9.77756
2.01275	9.78379
2.01196	9.83087
2.01118	9.78765
2.0104	9.81598
2.00963	9.90802
2.00885	9.73173
2.00807	9.81784
2.00729	9.991
2.00651	10.1537
2.00574	10.1259
2.00496	10.1715
2.00419	10.0635
2.00341	9.73012
2.00264	9.90195
2.00187	10.1485
2.00109	10.1286
2.00032	9.98081
