Name: Atacamite Cu_2Cl(OH)_3
Type: Mineral
Class: Halides
Subclass: 
Particle Size: 125-500um
Sample No.: H-4A
Owner: JPL
Wavelength range: IR
Origin: Chile, Atacama, Copiapo
Collected by Grieger's Inc.
Description: 





Measurement: Hemispherical reflectance
First Column: X
Second Column: Y
X Units:  Wavelength (micrometers)
Y Units:  Reflectance (percent)
First X Value: 15.3853
Last X Value: 2.00032
Number of X Values: 2256
Additional information: h04aa.txt
 
15.3853	1.20507
15.3397	1.36143
15.2945	1.44432
15.2495	1.30969
15.2048	1.3441
15.1603	1.31972
15.1161	1.25075
15.0722	1.3817
15.0285	1.41773
14.9851	1.28413
14.9419	1.21519
14.8989	1.23182
14.8563	1.43743
14.8138	1.49868
14.7716	1.47842
14.7296	1.36134
14.6879	1.0483
14.6464	1.09245
14.6052	1.14084
14.5641	1.30013
14.5233	1.62717
14.4828	1.56752
14.4424	1.51082
14.4023	1.3694
14.3624	1.2642
14.3227	1.2542
14.2833	1.34516
14.244	1.38889
14.205	1.45388
14.1662	1.39106
14.1276	1.38802
14.0892	1.47823
14.051	1.47976
14.0131	1.27484
13.9753	1.22695
13.9377	1.39911
13.9004	1.52731
13.8632	1.47335
13.8262	1.37162
13.7895	1.30225
13.7529	1.28125
13.7165	1.37633
13.6803	1.44255
13.6443	1.37872
13.6085	1.47998
13.5729	1.51493
13.5374	1.52099
13.5022	1.55606
13.4671	1.64952
13.4322	1.51614
13.3975	1.63779
13.363	1.71448
13.3286	1.52999
13.2944	1.52956
13.2604	1.62811
13.2266	1.69113
13.193	1.71227
13.1595	1.61497
13.1262	1.58662
13.093	1.62337
13.06	1.72568
13.0272	1.74344
12.9946	1.72985
12.9621	1.66701
12.9298	1.66998
12.8976	1.64528
12.8656	1.73677
12.8337	1.7715
12.8021	1.7451
12.7705	1.69631
12.7391	1.73997
12.7079	1.72846
12.6769	1.77296
12.6459	1.80478
12.6152	1.76333
12.5845	1.77843
12.5541	1.69758
12.5238	1.62604
12.4936	1.67904
12.4635	1.86801
12.4337	1.97744
12.4039	1.88014
12.3743	1.85502
12.3448	1.7836
12.3155	1.72797
12.2863	1.7856
12.2573	1.78034
12.2284	1.7893
12.1996	1.76771
12.171	1.77944
12.1425	1.77472
12.1141	1.77869
12.0859	1.82492
12.0578	1.7868
12.0298	1.80531
12.0019	1.85955
11.9742	1.90432
11.9466	1.87489
11.9192	1.89576
11.8918	2.0513
11.8646	2.13565
11.8375	2.21319
11.8106	2.318
11.7837	2.52113
11.757	2.58829
11.7304	2.4957
11.7039	2.28455
11.6776	2.16062
11.6513	2.01933
11.6252	1.68077
11.5992	1.59831
11.5733	1.71878
11.5475	1.68132
11.5219	1.73463
11.4963	1.81134
11.4709	1.79187
11.4455	1.75427
11.4203	1.80978
11.3952	1.91763
11.3702	1.94155
11.3454	1.91896
11.3206	1.97183
11.2959	2.05569
11.2714	2.07314
11.2469	2.21629
11.2226	2.37373
11.1983	2.49378
11.1742	2.61746
11.1502	2.59249
11.1263	2.46943
11.1024	2.32499
11.0787	2.16201
11.0551	2.12983
11.0316	2.21373
11.0081	2.31827
10.9848	2.28804
10.9616	2.37877
10.9385	2.49711
10.9154	2.52626
10.8925	2.53078
10.8697	2.4778
10.8469	2.32311
10.8243	2.19366
10.8017	2.25689
10.7793	2.29013
10.7569	2.26712
10.7346	2.2404
10.7125	2.24421
10.6904	2.30597
10.6684	2.30508
10.6465	2.36587
10.6247	2.43364
10.6029	2.49023
10.5813	2.47259
10.5597	2.50875
10.5383	2.62839
10.5169	2.63705
10.4956	2.63183
10.4744	2.6516
10.4533	2.60963
10.4323	2.59746
10.4113	2.73015
10.3904	2.72779
10.3697	2.71291
10.349	2.80771
10.3284	2.98676
10.3078	3.09014
10.2874	3.1599
10.267	3.27858
10.2467	3.53253
10.2265	3.6417
10.2064	3.69591
10.1863	4.05912
10.1663	4.27923
10.1464	4.36764
10.1266	4.45509
10.1069	4.36479
10.0872	4.29902
10.0676	4.22252
10.0481	4.21813
10.0287	4.46003
10.0093	4.69633
9.99005	4.81853
9.97084	5.1069
9.95169	5.27818
9.93263	5.23516
9.91364	5.31589
9.89472	5.57858
9.87587	5.84942
9.8571	6.0855
9.83839	6.28366
9.81976	6.41021
9.80119	6.47183
9.78271	6.57945
9.76428	6.67346
9.74592	6.67192
9.72764	6.76035
9.70943	6.95477
9.69128	7.21347
9.6732	7.37882
9.65518	7.46183
9.63724	7.63141
9.61935	7.75227
9.60155	7.70889
9.5838	7.67946
9.56611	7.78407
9.5485	7.83543
9.53094	7.69205
9.51345	7.5492
9.49604	7.37329
9.47867	7.20811
9.46137	7.05678
9.44414	6.9074
9.42697	6.70912
9.40986	6.38892
9.39281	6.02864
9.37583	5.63944
9.35891	5.31642
9.34204	5.15672
9.32524	4.90798
9.3085	4.45502
9.29182	4.01522
9.27519	3.8371
9.25863	3.72213
9.24213	3.43841
9.22568	3.36796
9.2093	3.23303
9.19297	2.94754
9.17669	2.66796
9.16048	2.49709
9.14433	2.4789
9.12823	2.31673
9.11218	2.09418
9.0962	2.03205
9.08027	1.92151
9.06439	1.77972
9.04858	1.77545
9.03281	1.70474
9.0171	1.45456
9.00145	1.38845
8.98585	1.457
8.9703	1.4289
8.9548	1.40995
8.93937	1.4622
8.92398	1.37677
8.90865	1.2374
8.89337	1.15332
8.87814	1.1203
8.86296	1.11288
8.84784	1.08287
8.83277	1.14398
8.81774	1.10748
8.80277	1.05551
8.78786	1.04178
8.77298	1.02185
8.75816	1.09106
8.7434	0.977083
8.72868	0.848565
8.714	0.898453
8.69938	0.889775
8.68481	0.857382
8.67029	0.96644
8.65581	1.02434
8.64139	0.971082
8.62701	0.976256
8.61268	1.01994
8.5984	0.98461
8.58416	0.834205
8.56997	0.672275
8.55583	0.733967
8.54174	0.751375
8.52769	0.829933
8.51368	0.859282
8.49973	0.740061
8.48582	0.739059
8.47195	0.835393
8.45813	0.905623
8.44436	0.801878
8.43062	0.756248
8.41693	0.878909
8.4033	0.949545
8.3897	0.969075
8.37614	0.837062
8.36264	0.781101
8.34917	0.827261
8.33574	1.03678
8.32236	1.01652
8.30903	0.824894
8.29573	0.807364
8.28248	0.826129
8.26927	0.810163
8.2561	0.884718
8.24298	1.04494
8.2299	1.03152
8.21685	0.978651
8.20385	0.998492
8.19089	1.0487
8.17797	1.07592
8.16509	1.10594
8.15225	1.05508
8.13946	0.913065
8.1267	1.01263
8.11398	1.03538
8.10131	1.04088
8.08867	0.991667
8.07606	0.941749
8.0635	0.998168
8.05099	1.04853
8.0385	0.984952
8.02606	0.987434
8.01366	1.07221
8.00129	1.1637
7.98896	1.11318
7.97667	1.07489
7.96442	1.14281
7.9522	1.21906
7.94002	1.23819
7.92788	1.20569
7.91578	1.19633
7.90371	1.16981
7.89168	1.18642
7.87969	1.18262
7.86773	1.16487
7.85581	1.26471
7.84392	1.25604
7.83207	1.24675
7.82026	1.28873
7.80849	1.20307
7.79674	1.16601
7.78503	1.216
7.77337	1.21872
7.76173	1.22322
7.75012	1.23328
7.73856	1.2564
7.72703	1.33325
7.71553	1.33313
7.70406	1.31566
7.69263	1.28883
7.68123	1.15957
7.66987	1.16074
7.65855	1.28424
7.64725	1.36656
7.63598	1.43595
7.62475	1.40388
7.61356	1.3012
7.60239	1.2342
7.59126	1.21577
7.58017	1.28718
7.5691	1.36855
7.55806	1.38015
7.54707	1.34055
7.5361	1.31414
7.52516	1.38232
7.51425	1.39496
7.50338	1.38201
7.49253	1.39671
7.48172	1.36752
7.47094	1.36887
7.46019	1.38185
7.44947	1.40339
7.43879	1.33507
7.42813	1.30431
7.4175	1.34702
7.4069	1.3343
7.39634	1.31766
7.3858	1.342
7.37529	1.38282
7.36482	1.43141
7.35437	1.48358
7.34396	1.53405
7.33357	1.58124
7.32321	1.55281
7.31288	1.50343
7.30258	1.40496
7.29231	1.37261
7.28207	1.43091
7.27185	1.44101
7.26167	1.47328
7.25152	1.50459
7.24139	1.49938
7.23129	1.4607
7.22122	1.44808
7.21117	1.46662
7.20116	1.45812
7.19117	1.54354
7.18121	1.53917
7.17128	1.47264
7.16137	1.46441
7.1515	1.47352
7.14164	1.46284
7.13182	1.46995
7.12203	1.43625
7.11225	1.40248
7.10251	1.39415
7.0928	1.40049
7.08311	1.44354
7.07344	1.52853
7.06381	1.5018
7.0542	1.4521
7.04461	1.52435
7.03506	1.51493
7.02552	1.54362
7.01601	1.63404
7.00653	1.54307
6.99708	1.51502
6.98765	1.54622
6.97824	1.57799
6.96886	1.53241
6.95951	1.49793
6.95018	1.60289
6.94087	1.71386
6.9316	1.67682
6.92234	1.61969
6.91311	1.57706
6.90391	1.59181
6.89473	1.60571
6.88557	1.58544
6.87644	1.59875
6.86733	1.56866
6.85824	1.47234
6.84918	1.50366
6.84015	1.47586
6.83114	1.47565
6.82215	1.52223
6.81319	1.60042
6.80424	1.5525
6.79532	1.46348
6.78643	1.50897
6.77756	1.62088
6.76871	1.65656
6.75989	1.75487
6.75109	1.73545
6.74231	1.64777
6.73355	1.6611
6.72482	1.68223
6.71611	1.65098
6.70742	1.65546
6.69875	1.61023
6.69011	1.58654
6.68149	1.57398
6.67289	1.57033
6.66431	1.67779
6.65576	1.75522
6.64722	1.74017
6.63871	1.68021
6.63022	1.61541
6.62175	1.68194
6.61331	1.75347
6.60488	1.70389
6.59648	1.6993
6.5881	1.75058
6.57974	1.73126
6.5714	1.749
6.56308	1.72178
6.55478	1.6164
6.54651	1.64786
6.53825	1.7602
6.53001	1.82049
6.5218	1.84597
6.51361	1.83266
6.50544	1.7979
6.49729	1.71663
6.48915	1.67326
6.48104	1.72996
6.47295	1.82721
6.46488	1.84358
6.45683	1.71852
6.4488	1.59186
6.44079	1.60668
6.4328	1.67155
6.42482	1.62431
6.41687	1.46693
6.40894	1.47044
6.40103	1.61655
6.39314	1.72663
6.38526	1.74652
6.37741	1.64925
6.36957	1.58813
6.36176	1.65374
6.35396	1.70958
6.34618	1.61027
6.33843	1.51359
6.33069	1.51743
6.32297	1.56539
6.31527	1.60417
6.30758	1.60951
6.29992	1.50966
6.29227	1.54465
6.28465	1.64701
6.27704	1.60192
6.26945	1.51952
6.26188	1.51494
6.25432	1.50715
6.24679	1.47122
6.23927	1.43885
6.23177	1.48502
6.22429	1.4684
6.21683	1.43409
6.20938	1.44632
6.20195	1.37567
6.19454	1.34644
6.18715	1.38164
6.17978	1.44892
6.17242	1.44051
6.16508	1.34491
6.15776	1.38895
6.15045	1.48565
6.14317	1.42046
6.1359	1.33839
6.12864	1.30964
6.12141	1.26095
6.11419	1.29004
6.10699	1.33666
6.0998	1.2652
6.09263	1.24228
6.08549	1.28041
6.07835	1.31381
6.07123	1.29186
6.06413	1.30097
6.05705	1.33104
6.04998	1.28571
6.04293	1.18812
6.0359	1.22775
6.02888	1.24504
6.02187	1.23728
6.01489	1.24937
6.00792	1.1367
6.00096	1.11449
5.99403	1.15417
5.98711	1.12666
5.9802	1.17757
5.97331	1.2019
5.96644	1.23784
5.95958	1.22826
5.95274	1.16421
5.94591	1.23679
5.9391	1.32463
5.9323	1.25973
5.92552	1.24986
5.91876	1.29435
5.91201	1.3246
5.90528	1.40484
5.89856	1.38619
5.89186	1.2929
5.88517	1.2457
5.8785	1.29001
5.87184	1.32319
5.8652	1.30718
5.85857	1.31881
5.85196	1.35447
5.84536	1.3906
5.83878	1.37666
5.83221	1.24933
5.82566	1.22421
5.81912	1.39222
5.81259	1.41009
5.80608	1.41772
5.79959	1.55341
5.79311	1.5369
5.78665	1.41895
5.78019	1.40728
5.77376	1.45565
5.76734	1.5484
5.76093	1.57698
5.75453	1.56003
5.74815	1.55767
5.74179	1.61748
5.73543	1.61872
5.7291	1.55256
5.72277	1.4991
5.71646	1.52441
5.71017	1.54139
5.70389	1.55176
5.69762	1.63272
5.69136	1.63445
5.68513	1.63022
5.6789	1.63299
5.67268	1.63194
5.66648	1.63788
5.6603	1.63527
5.65413	1.6312
5.64797	1.66001
5.64182	1.70697
5.63569	1.72476
5.62957	1.69684
5.62347	1.75203
5.61737	1.75127
5.61129	1.60939
5.60522	1.56625
5.59917	1.67414
5.59313	1.83108
5.5871	1.78784
5.58109	1.70059
5.57509	1.75799
5.5691	1.72668
5.56312	1.68832
5.55716	1.73866
5.55121	1.7885
5.54528	1.76492
5.53935	1.6936
5.53344	1.74024
5.52754	1.74248
5.52166	1.69171
5.51578	1.72148
5.50992	1.73424
5.50407	1.72342
5.49823	1.72734
5.49241	1.77457
5.4866	1.80641
5.4808	1.83332
5.47501	1.79872
5.46923	1.75891
5.46347	1.77793
5.45772	1.83127
5.45198	1.841
5.44625	1.84022
5.44054	1.84287
5.43484	1.81637
5.42914	1.78984
5.42347	1.72084
5.4178	1.70554
5.41214	1.84303
5.4065	1.94996
5.40087	1.91175
5.39525	1.90704
5.38964	1.93449
5.38404	1.93267
5.37846	1.81872
5.37288	1.78499
5.36732	1.85031
5.36177	1.85072
5.35623	1.91129
5.35071	1.99791
5.34519	1.99185
5.33968	1.94271
5.33419	1.93595
5.32871	1.89197
5.32324	1.90792
5.31778	1.91643
5.31233	1.9291
5.30689	1.93771
5.30147	1.92947
5.29605	1.93336
5.29065	1.9104
5.28525	1.91629
5.27987	1.93987
5.2745	1.9298
5.26914	1.99901
5.26379	2.05461
5.25845	1.96652
5.25312	1.93388
5.24781	2.03189
5.2425	2.0145
5.23721	1.98054
5.23192	2.06671
5.22665	2.11597
5.22138	2.10271
5.21613	2.03891
5.21089	2.01865
5.20566	2.0188
5.20044	1.98126
5.19522	2.00164
5.19002	2.04286
5.18483	1.99351
5.17965	2.02205
5.17448	2.13105
5.16933	2.11414
5.16418	2.08106
5.15904	2.08272
5.15391	2.10264
5.14879	2.04633
5.14368	2.03347
5.13859	2.07923
5.1335	2.12659
5.12842	2.18472
5.12335	2.14182
5.1183	2.02761
5.11325	2.03571
5.10821	2.03843
5.10318	2.05493
5.09817	2.10153
5.09316	2.14077
5.08816	2.18484
5.08317	2.20044
5.07819	2.19977
5.07322	2.22061
5.06826	2.21074
5.06331	2.26131
5.05837	2.269
5.05344	2.21933
5.04852	2.24534
5.04361	2.27314
5.03871	2.19669
5.03382	2.16659
5.02894	2.30176
5.02406	2.34907
5.0192	2.36627
5.01435	2.41788
5.0095	2.41029
5.00467	2.45623
4.99984	2.47334
4.99502	2.4631
4.99021	2.4096
4.98542	2.34175
4.98063	2.41442
4.97585	2.54245
4.97108	2.60314
4.96632	2.62876
4.96156	2.56784
4.95682	2.53677
4.95209	2.48726
4.94736	2.54363
4.94264	2.65152
4.93794	2.64988
4.93324	2.63247
4.92855	2.59094
4.92387	2.58947
4.9192	2.65752
4.91453	2.7
4.90988	2.72409
4.90524	2.7066
4.9006	2.70912
4.89597	2.72736
4.89135	2.73521
4.88674	2.71492
4.88214	2.649
4.87755	2.66454
4.87296	2.74192
4.86839	2.71665
4.86382	2.70574
4.85926	2.75672
4.85471	2.76471
4.85017	2.73616
4.84564	2.71906
4.84111	2.71264
4.8366	2.67918
4.83209	2.68241
4.82759	2.73882
4.8231	2.75529
4.81862	2.79163
4.81415	2.82247
4.80968	2.73854
4.80522	2.69314
4.80077	2.71424
4.79633	2.77306
4.7919	2.78799
4.78747	2.76449
4.78306	2.83719
4.77865	2.93297
4.77425	2.92102
4.76986	2.84442
4.76547	2.87358
4.7611	2.96221
4.75673	2.94369
4.75237	2.85137
4.74802	2.86784
4.74367	2.84949
4.73934	2.91605
4.73501	2.98311
4.73069	2.99778
4.72638	2.99318
4.72207	3.06628
4.71777	3.08895
4.71348	3.03662
4.7092	3.03589
4.70493	3.05946
4.70066	3.09173
4.69641	3.02652
4.69216	2.95319
4.68791	2.98643
4.68368	3.09273
4.67945	3.18815
4.67523	3.22159
4.67102	3.19769
4.66682	3.16935
4.66262	3.13546
4.65843	3.19961
4.65425	3.31048
4.65007	3.33804
4.64591	3.27848
4.64175	3.2461
4.6376	3.29288
4.63345	3.41062
4.62932	3.45368
4.62519	3.45446
4.62106	3.44818
4.61695	3.48983
4.61284	3.49907
4.60874	3.54768
4.60465	3.63621
4.60056	3.67562
4.59648	3.72887
4.59241	3.68401
4.58835	3.62003
4.58429	3.61817
4.58024	3.67446
4.5762	3.70425
4.57216	3.67697
4.56814	3.68361
4.56411	3.78512
4.5601	3.77601
4.55609	3.77823
4.55209	3.8244
4.5481	3.82346
4.54411	3.79341
4.54013	3.7943
4.53616	3.76609
4.5322	3.77898
4.52824	3.85953
4.52429	4.0017
4.52034	4.10487
4.51641	4.03663
4.51247	4.04223
4.50855	4.12593
4.50463	4.16814
4.50072	4.25388
4.49682	4.28577
4.49292	4.21347
4.48903	4.11796
4.48515	4.09447
4.48127	4.10949
4.4774	4.18212
4.47354	4.20586
4.46968	4.20814
4.46584	4.22667
4.46199	4.25833
4.45815	4.30083
4.45432	4.25756
4.4505	4.23706
4.44668	4.33307
4.44287	4.43696
4.43907	4.50163
4.43527	4.54319
4.43148	4.48334
4.4277	4.50696
4.42392	4.4818
4.42015	4.46541
4.41638	4.53991
4.41262	4.53083
4.40887	4.4889
4.40513	4.54351
4.40139	4.62451
4.39765	4.68397
4.39393	4.73163
4.39021	4.73496
4.38649	4.78112
4.38278	4.86957
4.37908	4.83979
4.37539	4.74488
4.3717	4.71199
4.36801	4.77268
4.36434	4.75122
4.36067	4.75617
4.357	4.78055
4.35335	4.77028
4.34969	4.7866
4.34605	4.86595
4.34241	4.98486
4.33877	4.9187
4.33514	4.87352
4.33152	4.96526
4.32791	5.07282
4.3243	5.08135
4.32069	5.10163
4.3171	5.10633
4.31351	5.10646
4.30992	5.16256
4.30634	5.18269
4.30277	5.1688
4.2992	5.1795
4.29564	5.20282
4.29208	5.20771
4.28853	5.21926
4.28499	5.33076
4.28145	5.33272
4.27792	5.28264
4.27439	5.40382
4.27087	5.52625
4.26735	5.39075
4.26384	5.24897
4.26034	5.23442
4.25684	5.2886
4.25335	5.34504
4.24986	5.41825
4.24638	5.42488
4.24291	5.39535
4.23944	5.36584
4.23598	5.40908
4.23252	5.50211
4.22906	5.55212
4.22562	5.46641
4.22218	5.46846
4.21874	5.58985
4.21531	5.62404
4.21189	5.5879
4.20847	5.48669
4.20506	5.43125
4.20165	5.47951
4.19825	5.50418
4.19485	5.55269
4.19146	5.6056
4.18807	5.56969
4.18469	5.51544
4.18132	5.53282
4.17795	5.53167
4.17458	5.47144
4.17123	5.45437
4.16787	5.43155
4.16453	5.38684
4.16118	5.391
4.15785	5.45875
4.15451	5.48232
4.15119	5.39777
4.14787	5.41078
4.14455	5.44734
4.14124	5.40264
4.13794	5.3795
4.13464	5.41668
4.13134	5.41302
4.12805	5.3421
4.12477	5.32995
4.12149	5.45076
4.11822	5.48978
4.11495	5.46324
4.11168	5.52655
4.10843	5.55866
4.10517	5.51257
4.10192	5.4709
4.09868	5.39724
4.09545	5.395
4.09221	5.34913
4.08899	5.27898
4.08576	5.31291
4.08255	5.32132
4.07933	5.35753
4.07613	5.37392
4.07292	5.41837
4.06973	5.4334
4.06654	5.38234
4.06335	5.37024
4.06017	5.44527
4.05699	5.49586
4.05382	5.41328
4.05065	5.34182
4.04749	5.43444
4.04433	5.4465
4.04118	5.44691
4.03803	5.42602
4.03489	5.24463
4.03175	5.06035
4.02862	4.84863
4.02549	4.64415
4.02237	4.7197
4.01925	4.95463
4.01614	5.16976
4.01303	5.34436
4.00993	5.36082
4.00683	5.29451
4.00373	5.23041
4.00064	5.24441
3.99756	5.27555
3.99448	5.24241
3.9914	5.29083
3.98833	5.36105
3.98527	5.32622
3.98221	5.23692
3.97915	5.21124
3.9761	5.18613
3.97305	5.20108
3.97001	5.2315
3.96697	5.09986
3.96394	5.01305
3.96091	5.02772
3.95789	5.06674
3.95487	5.04123
3.95186	4.95383
3.94885	4.91153
3.94584	4.90534
3.94284	4.92512
3.93984	4.9245
3.93685	4.92449
3.93386	4.8682
3.93088	4.77293
3.9279	4.70022
3.92493	4.62592
3.92196	4.5996
3.919	4.67109
3.91604	4.85859
3.91308	4.9526
3.91013	4.82002
3.90718	4.77096
3.90424	4.84839
3.9013	4.89565
3.89837	4.9075
3.89544	4.89987
3.89252	4.87595
3.8896	4.87558
3.88668	4.88914
3.88377	4.89633
3.88086	4.81694
3.87796	4.75488
3.87506	4.80334
3.87217	4.83907
3.86928	4.83908
3.86639	4.88979
3.86351	4.83337
3.86064	4.84442
3.85776	4.88119
3.8549	4.86162
3.85203	4.79026
3.84917	4.69194
3.84631	4.68009
3.84346	4.75877
3.84062	4.78343
3.83777	4.8183
3.83494	4.8608
3.8321	4.78601
3.82927	4.74075
3.82644	4.73677
3.82362	4.71937
3.82081	4.67311
3.81799	4.60331
3.81518	4.66199
3.81238	4.74331
3.80958	4.74993
3.80678	4.66569
3.80399	4.62043
3.8012	4.54793
3.79841	4.53308
3.79563	4.64971
3.79286	4.67161
3.79008	4.57488
3.78731	4.46251
3.78455	4.41318
3.78179	4.40219
3.77903	4.41652
3.77628	4.39632
3.77353	4.41167
3.77079	4.45203
3.76805	4.38376
3.76531	4.34106
3.76258	4.27378
3.75985	4.18577
3.75713	4.16943
3.7544	4.18446
3.75169	4.19839
3.74898	4.2279
3.74627	4.21168
3.74356	4.2283
3.74086	4.21282
3.73816	4.09562
3.73547	4.01881
3.73278	4.10538
3.7301	4.19782
3.72741	4.20189
3.72474	4.16642
3.72206	4.15102
3.71939	4.09722
3.71673	3.98198
3.71406	3.93096
3.71141	3.96583
3.70875	3.9772
3.7061	3.92119
3.70345	3.8313
3.70081	3.85694
3.69817	3.95309
3.69553	3.88791
3.6929	3.868
3.69027	3.84856
3.68765	3.78384
3.68503	3.75297
3.68241	3.74129
3.6798	3.74722
3.67719	3.73211
3.67458	3.64812
3.67198	3.57223
3.66938	3.63332
3.66678	3.62998
3.66419	3.59036
3.66161	3.5894
3.65902	3.5221
3.65644	3.50489
3.65387	3.60371
3.65129	3.61007
3.64872	3.52433
3.64616	3.47036
3.64359	3.43737
3.64103	3.29302
3.63848	3.227
3.63593	3.34659
3.63338	3.43994
3.63084	3.33397
3.6283	3.20666
3.62576	3.23029
3.62322	3.31468
3.62069	3.3114
3.61817	3.27167
3.61564	3.26105
3.61312	3.30942
3.61061	3.28274
3.6081	3.2164
3.60559	3.22348
3.60308	3.2503
3.60058	3.20255
3.59808	3.21863
3.59558	3.2143
3.59309	3.13757
3.59061	3.15637
3.58812	3.22957
3.58564	3.15846
3.58316	3.05532
3.58069	3.02777
3.57822	3.02489
3.57575	3.02853
3.57328	2.89034
3.57082	2.93407
3.56836	3.00158
3.56591	3.0016
3.56346	2.95561
3.56101	2.89836
3.55857	2.93097
3.55613	2.88731
3.55369	2.85168
3.55126	2.79578
3.54883	2.736
3.5464	2.64689
3.54397	2.61454
3.54155	2.64046
3.53914	2.57445
3.53672	2.51842
3.53431	2.47524
3.5319	2.50553
3.5295	2.56013
3.5271	2.48159
3.5247	2.3346
3.52231	2.37414
3.51991	2.38169
3.51753	2.28219
3.51514	2.24646
3.51276	2.2731
3.51038	2.27387
3.50801	2.24255
3.50563	2.27969
3.50327	2.31467
3.5009	2.35248
3.49854	2.38545
3.49618	2.41521
3.49382	2.38019
3.49147	2.34857
3.48912	2.31899
3.48677	2.29755
3.48443	2.36503
3.48209	2.46175
3.47975	2.48474
3.47742	2.43082
3.47509	2.31515
3.47276	2.31281
3.47044	2.4332
3.46812	2.36739
3.4658	2.27513
3.46348	2.42559
3.46117	2.59699
3.45886	2.5445
3.45656	2.40563
3.45425	2.3141
3.45195	2.35729
3.44966	2.39627
3.44736	2.29756
3.44507	2.19723
3.44279	2.26212
3.4405	2.40745
3.43822	2.43786
3.43594	2.45241
3.43367	2.38586
3.43139	2.31802
3.42912	2.33368
3.42686	2.38388
3.42459	2.37334
3.42233	2.35507
3.42007	2.35427
3.41782	2.39166
3.41557	2.31043
3.41332	2.2418
3.41108	2.29952
3.40883	2.25627
3.40659	2.20426
3.40435	2.14332
3.40212	2.08583
3.39989	2.0928
3.39766	2.11586
3.39544	2.19854
3.39322	2.35898
3.391	2.3337
3.38878	2.1681
3.38657	2.10397
3.38436	2.14632
3.38215	2.18906
3.37994	2.10928
3.37774	2.05716
3.37554	2.15002
3.37335	2.21464
3.37115	2.02674
3.36896	1.92554
3.36678	2.03484
3.36459	2.00452
3.36241	1.97832
3.36023	1.97801
3.35805	1.97202
3.35588	2.00846
3.35371	1.84481
3.35154	1.74305
3.34938	1.83042
3.34721	1.95728
3.34505	1.97919
3.3429	1.93038
3.34074	1.87959
3.33859	1.8836
3.33644	2.03681
3.3343	2.13204
3.33215	2.00192
3.33001	1.90451
3.32788	1.86254
3.32574	1.83926
3.32361	1.92966
3.32148	2.01459
3.31936	1.98905
3.31723	1.94511
3.31511	1.9287
3.31299	1.86643
3.31088	1.89486
3.30876	1.97983
3.30665	1.8763
3.30455	1.79842
3.30244	1.86262
3.30034	1.9321
3.29824	1.88472
3.29614	1.84659
3.29405	1.9061
3.29196	1.90817
3.28987	1.88941
3.28778	1.79851
3.2857	1.73826
3.28362	1.79863
3.28154	1.87375
3.27946	1.94965
3.27739	1.94621
3.27532	1.85441
3.27325	1.84934
3.27119	1.91027
3.26913	1.85425
3.26707	1.73239
3.26501	1.75074
3.26295	1.92118
3.2609	1.87673
3.25885	1.80195
3.2568	1.83369
3.25476	1.91962
3.25272	1.87645
3.25068	1.80494
3.24864	1.76442
3.24661	1.74723
3.24458	1.71685
3.24255	1.82605
3.24052	1.79205
3.2385	1.73673
3.23648	1.83216
3.23446	1.85272
3.23244	1.85475
3.23043	1.85003
3.22841	1.87968
3.2264	1.99465
3.2244	2.02512
3.22239	1.89062
3.22039	1.8096
3.21839	1.81155
3.2164	1.77525
3.2144	1.77569
3.21241	1.77655
3.21042	1.75323
3.20844	1.72777
3.20645	1.72066
3.20447	1.78231
3.20249	1.82709
3.20051	1.85339
3.19854	1.74273
3.19657	1.6424
3.1946	1.76594
3.19263	1.87363
3.19067	1.80371
3.1887	1.7383
3.18674	1.72895
3.18479	1.75438
3.18283	1.74979
3.18088	1.76957
3.17893	1.79834
3.17698	1.81224
3.17504	1.87537
3.17309	1.90953
3.17115	1.75832
3.16921	1.734
3.16728	1.7801
3.16534	1.75562
3.16341	1.76193
3.16148	1.74152
3.15956	1.76545
3.15763	1.73693
3.15571	1.77673
3.15379	1.86164
3.15187	1.83468
3.14996	1.76727
3.14805	1.73081
3.14614	1.72028
3.14423	1.73305
3.14232	1.74365
3.14042	1.8023
3.13852	1.77671
3.13662	1.57048
3.13472	1.53695
3.13283	1.66764
3.13094	1.70192
3.12905	1.68746
3.12716	1.73618
3.12528	1.89504
3.12339	1.94868
3.12151	1.89752
3.11964	1.79544
3.11776	1.70421
3.11589	1.76265
3.11401	1.86936
3.11214	1.86871
3.11028	1.80014
3.10841	1.75283
3.10655	1.90416
3.10469	1.94319
3.10283	1.8275
3.10098	1.74595
3.09912	1.65338
3.09727	1.66429
3.09542	1.77605
3.09358	1.76016
3.09173	1.72401
3.08989	1.78433
3.08805	1.75281
3.08621	1.86364
3.08437	1.98237
3.08254	1.89348
3.08071	1.78574
3.07888	1.79195
3.07705	1.85827
3.07523	1.81565
3.0734	1.77874
3.07158	1.9378
3.06977	1.95384
3.06795	1.8623
3.06613	1.92417
3.06432	2.03756
3.06251	1.81825
3.0607	1.64202
3.0589	1.66089
3.0571	1.69183
3.05529	1.77505
3.05349	1.79903
3.0517	1.86942
3.0499	1.96237
3.04811	1.9747
3.04632	1.9554
3.04453	1.99784
3.04274	2.01033
3.04096	2.07974
3.03918	2.20344
3.0374	2.20022
3.03562	2.14305
3.03384	2.24801
3.03207	2.2363
3.03029	2.17195
3.02852	2.18685
3.02676	2.12893
3.02499	2.09164
3.02323	2.236
3.02146	2.24254
3.0197	2.27105
3.01795	2.31689
3.01619	2.41009
3.01444	2.50812
3.01269	2.68899
3.01094	2.82734
3.00919	2.8691
3.00744	2.96291
3.0057	3.10943
3.00396	3.32231
3.00222	3.46895
3.00048	3.53035
2.99875	3.64665
2.99701	3.98526
2.99528	4.0915
2.99355	4.08457
2.99183	4.14911
2.9901	4.26886
2.98838	4.33225
2.98666	4.28536
2.98494	4.09059
2.98322	4.06509
2.9815	3.89493
2.97979	3.47295
2.97808	3.11684
2.97637	2.89258
2.97466	2.54316
2.97295	2.30999
2.97125	2.15461
2.96955	2.09661
2.96785	2.11274
2.96615	1.94237
2.96446	1.6612
2.96276	1.31769
2.96107	1.11405
2.95938	0.945736
2.95769	0.882868
2.95601	1.02468
2.95432	1.27389
2.95264	1.37188
2.95096	1.23241
2.94928	1.16521
2.9476	1.20957
2.94593	1.34437
2.94425	1.3276
2.94258	1.18024
2.94092	1.1452
2.93925	1.28602
2.93758	1.33137
2.93592	1.27259
2.93426	1.33435
2.9326	1.43224
2.93094	1.40139
2.92928	1.44553
2.92763	1.47695
2.92598	1.43417
2.92433	1.47656
2.92268	1.56472
2.92103	1.46422
2.91939	1.45886
2.91775	1.60269
2.9161	1.70858
2.91447	1.92254
2.91283	2.06731
2.91119	2.05548
2.90956	2.1825
2.90793	2.37377
2.9063	2.37078
2.90467	2.3634
2.90304	2.35424
2.90142	2.38531
2.89979	2.39756
2.89817	2.31558
2.89656	2.17202
2.89494	2.24031
2.89332	2.19888
2.89171	1.89925
2.8901	1.67533
2.88849	1.5882
2.88688	1.36034
2.88527	1.07311
2.88367	1.00203
2.88206	1.04568
2.88046	0.945108
2.87886	0.973096
2.87727	1.09864
2.87567	1.05169
2.87408	1.09312
2.87248	1.06674
2.87089	0.897537
2.8693	0.859614
2.86772	0.969979
2.86613	1.0414
2.86455	0.902978
2.86297	0.801655
2.86139	1.01344
2.85981	1.07811
2.85823	1.10644
2.85666	1.22796
2.85508	1.2791
2.85351	1.16456
2.85194	1.10668
2.85038	1.02487
2.84881	0.990292
2.84724	0.992847
2.84568	1.09407
2.84412	1.05664
2.84256	1.10662
2.841	1.17535
2.83945	1.18109
2.83789	1.13216
2.83634	0.972413
2.83479	0.939055
2.83324	1.06747
2.83169	1.06014
2.83015	0.930702
2.82861	0.948979
2.82706	1.17287
2.82552	1.30517
2.82398	1.3692
2.82245	1.2152
2.82091	0.96473
2.81938	1.09879
2.81784	1.33493
2.81631	1.33152
2.81479	1.23206
2.81326	1.01699
2.81173	1.08808
2.81021	1.31223
2.80869	1.282
2.80716	1.18925
2.80565	1.28481
2.80413	1.36408
2.80261	1.26676
2.8011	1.12829
2.79959	1.10302
2.79808	1.11848
2.79657	1.14371
2.79506	1.27187
2.79355	1.29016
2.79205	1.28851
2.79055	1.39251
2.78904	1.328
2.78754	1.28459
2.78605	1.28555
2.78455	1.09508
2.78306	1.14132
2.78156	1.30624
2.78007	1.23031
2.77858	1.35616
2.77709	1.50375
2.77561	1.37225
2.77412	1.27301
2.77264	1.2845
2.77116	1.31734
2.76968	1.20105
2.7682	1.33767
2.76672	1.44251
2.76524	1.25767
2.76377	1.06342
2.7623	1.30766
2.76083	1.48769
2.75936	1.54283
2.75789	1.60647
2.75642	1.53907
2.75496	1.30955
2.7535	1.25682
2.75203	1.40337
2.75057	1.53879
2.74912	1.54081
2.74766	1.51013
2.7462	1.48119
2.74475	1.50816
2.7433	1.71264
2.74185	1.78881
2.7404	1.55635
2.73895	1.5604
2.7375	1.81119
2.73606	1.91156
2.73462	1.83472
2.73318	1.86683
2.73174	1.99466
2.7303	2.02173
2.72886	1.93453
2.72742	1.87455
2.72599	2.00593
2.72456	2.04678
2.72313	2.1205
2.7217	2.0831
2.72027	2.01224
2.71884	2.14032
2.71742	2.18513
2.71599	2.14127
2.71457	2.21587
2.71315	2.31288
2.71173	2.26256
2.71032	2.14998
2.7089	2.26786
2.70748	2.26373
2.70607	2.26748
2.70466	2.45136
2.70325	2.49268
2.70184	2.43143
2.70043	2.38014
2.69903	2.4743
2.69762	2.73026
2.69622	2.76834
2.69482	2.62839
2.69342	2.75896
2.69202	2.89813
2.69062	2.95206
2.68923	3.0434
2.68783	3.18465
2.68644	3.22037
2.68505	3.15877
2.68366	3.10163
2.68227	3.16041
2.68089	3.44215
2.6795	3.6233
2.67812	3.58455
2.67673	3.51966
2.67535	3.64625
2.67397	3.83715
2.6726	3.94344
2.67122	4.00686
2.66984	4.2152
2.66847	4.32929
2.6671	4.33495
2.66572	4.29231
2.66435	4.27225
2.66299	4.41313
2.66162	4.50113
2.66025	4.58136
2.65889	4.75793
2.65753	4.80982
2.65616	4.79418
2.65481	4.89053
2.65345	4.91989
2.65209	5.12871
2.65073	5.30646
2.64938	5.09438
2.64803	5.04467
2.64667	5.16067
2.64532	5.27551
2.64397	5.36948
2.64263	5.40976
2.64128	5.38889
2.63994	5.50443
2.63859	5.578
2.63725	5.50817
2.63591	5.44621
2.63457	5.39021
2.63323	5.44442
2.6319	5.46681
2.63056	5.33621
2.62923	5.4987
2.62789	5.63256
2.62656	5.59304
2.62523	5.85003
2.6239	6.07485
2.62258	6.09252
2.62125	5.98394
2.61993	5.96591
2.6186	6.05238
2.61728	6.1315
2.61596	6.12202
2.61464	6.16958
2.61332	6.36152
2.61201	6.42285
2.61069	6.28777
2.60938	6.37386
2.60807	6.49004
2.60675	6.36021
2.60544	6.31632
2.60414	6.49552
2.60283	6.60036
2.60152	6.65427
2.60022	6.68193
2.59891	6.67184
2.59761	6.58648
2.59631	6.3926
2.59501	6.34034
2.59371	6.68702
2.59242	6.9316
2.59112	7.05582
2.58983	6.96848
2.58853	6.85435
2.58724	6.86184
2.58595	6.90993
2.58466	6.94459
2.58338	7.06219
2.58209	7.12594
2.5808	7.16062
2.57952	7.28561
2.57824	7.45066
2.57695	7.45059
2.57567	7.45759
2.5744	7.54318
2.57312	7.52171
2.57184	7.60448
2.57057	7.73091
2.56929	7.85202
2.56802	7.93275
2.56675	7.84132
2.56548	7.70516
2.56421	7.74422
2.56294	7.74742
2.56168	7.79587
2.56041	7.92811
2.55915	8.05394
2.55789	7.98501
2.55662	7.87429
2.55536	7.86032
2.5541	7.89771
2.55285	8.02907
2.55159	8.07421
2.55034	8.01204
2.54908	8.01599
2.54783	8.08016
2.54658	8.31582
2.54533	8.56937
2.54408	8.6239
2.54283	8.61561
2.54159	8.78688
2.54034	8.81532
2.5391	8.90759
2.53785	9.10998
2.53661	9.13174
2.53537	9.16772
2.53413	9.29522
2.53289	9.48006
2.53166	9.72578
2.53042	9.79082
2.52919	9.76547
2.52795	9.77216
2.52672	9.82874
2.52549	9.94052
2.52426	10.0216
2.52303	10.1519
2.52181	10.3152
2.52058	10.4572
2.51936	10.6581
2.51813	10.8765
2.51691	10.9936
2.51569	10.9738
2.51447	10.9947
2.51325	11.1905
2.51203	11.4636
2.51082	11.5558
2.5096	11.6857
2.50839	11.9245
2.50717	12.0191
2.50596	12.0631
2.50475	12.0394
2.50354	12.1515
2.50233	12.2538
2.50113	12.2638
2.49992	12.2718
2.49872	12.3307
2.49751	12.3213
2.49631	12.2611
2.49511	12.2505
2.49391	12.227
2.49271	12.186
2.49151	12.2915
2.49031	12.4201
2.48912	12.3216
2.48792	12.0367
2.48673	11.9615
2.48554	11.9166
2.48435	11.7108
2.48316	11.553
2.48197	11.3346
2.48078	11.165
2.4796	10.9825
2.47841	10.7711
2.47723	10.531
2.47604	10.3304
2.47486	10.1669
2.47368	10.0525
2.4725	9.80746
2.47132	9.63481
2.47014	9.53509
2.46897	9.39025
2.46779	9.17407
2.46662	9.08096
2.46545	9.08718
2.46427	9.36593
2.4631	9.70296
2.46193	9.88722
2.46077	10.0853
2.4596	10.3903
2.45843	10.9394
2.45727	11.4417
2.4561	11.7466
2.45494	12.1546
2.45378	12.464
2.45262	12.7188
2.45146	12.9824
2.4503	13.1199
2.44914	13.3442
2.44799	13.7421
2.44683	13.904
2.44568	13.9342
2.44452	14.0093
2.44337	14.0178
2.44222	14.0934
2.44107	14.4608
2.43992	14.6726
2.43877	14.5666
2.43763	14.542
2.43648	14.7907
2.43534	14.9414
2.43419	15.0369
2.43305	15.0909
2.43191	15.3146
2.43077	15.3902
2.42963	15.2407
2.42849	15.275
2.42736	15.4974
2.42622	15.6663
2.42509	15.7443
2.42395	15.7642
2.42282	15.7707
2.42169	15.6836
2.42056	15.7075
2.41943	15.7575
2.4183	15.6467
2.41717	15.5853
2.41605	15.642
2.41492	15.5106
2.4138	15.3726
2.41267	15.3068
2.41155	15.318
2.41043	15.3374
2.40931	15.3718
2.40819	15.4572
2.40707	15.3994
2.40595	15.2398
2.40484	15.216
2.40372	15.2545
2.40261	15.1959
2.4015	15.1938
2.40039	15.1434
2.39928	15.0438
2.39817	14.9857
2.39706	15.1278
2.39595	15.242
2.39484	15.3484
2.39374	15.4962
2.39263	15.6508
2.39153	15.8495
2.39043	15.954
2.38932	15.9704
2.38822	16.1053
2.38712	16.0688
2.38603	15.9785
2.38493	15.9342
2.38383	15.8125
2.38274	15.718
2.38164	15.7049
2.38055	15.7099
2.37946	15.7075
2.37836	15.6945
2.37727	15.6577
2.37618	15.7515
2.3751	15.8586
2.37401	15.9658
2.37292	16.0655
2.37184	15.9812
2.37075	15.9096
2.36967	16.1772
2.36859	16.3975
2.3675	16.4918
2.36642	16.5919
2.36534	16.8185
2.36427	16.9625
2.36319	16.9647
2.36211	16.8248
2.36104	16.8092
2.35996	17.0173
2.35889	17.0563
2.35781	16.8851
2.35674	16.939
2.35567	17.0749
2.3546	17.146
2.35353	17.0946
2.35247	17.2003
2.3514	17.3493
2.35033	17.3581
2.34927	17.2119
2.3482	17.128
2.34714	17.0619
2.34608	16.9525
2.34502	16.7974
2.34396	16.5911
2.3429	16.444
2.34184	16.3823
2.34078	16.3253
2.33973	16.315
2.33867	16.4157
2.33762	16.3869
2.33656	16.4203
2.33551	16.634
2.33446	16.8767
2.33341	17.0521
2.33236	17.1558
2.33131	17.3316
2.33026	17.7194
2.32922	17.9855
2.32817	18.048
2.32712	18.2156
2.32608	18.4172
2.32504	18.4146
2.324	18.3956
2.32295	18.6046
2.32191	18.7254
2.32087	18.7478
2.31984	18.6516
2.3188	18.4191
2.31776	18.2218
2.31673	18.1439
2.31569	18.1803
2.31466	18.1557
2.31362	18.1349
2.31259	18.3065
2.31156	18.4685
2.31053	18.3742
2.3095	18.3074
2.30847	18.4338
2.30745	18.4842
2.30642	18.6306
2.3054	18.7427
2.30437	18.6071
2.30335	18.786
2.30232	19.0319
2.3013	19.0748
2.30028	19.1347
2.29926	19.1533
2.29824	19.1183
2.29722	19.3038
2.29621	19.3802
2.29519	19.4073
2.29417	19.526
2.29316	19.4604
2.29215	19.2535
2.29113	19.2179
2.29012	19.1965
2.28911	19.242
2.2881	19.2724
2.28709	19.1192
2.28608	18.9016
2.28507	18.6961
2.28407	18.5306
2.28306	18.403
2.28206	18.3797
2.28105	18.3062
2.28005	18.3397
2.27905	18.3425
2.27805	18.254
2.27705	18.4279
2.27605	18.4729
2.27505	18.4109
2.27405	18.4913
2.27305	18.6645
2.27206	18.6967
2.27106	18.6522
2.27007	18.4735
2.26907	18.3572
2.26808	18.3325
2.26709	18.2226
2.2661	18.2863
2.26511	18.395
2.26412	18.4278
2.26313	18.3768
2.26214	18.1826
2.26116	18.1006
2.26017	18.0763
2.25919	18.0038
2.2582	17.9564
2.25722	18.0098
2.25624	18.1808
2.25526	18.2658
2.25428	18.2544
2.2533	18.3326
2.25232	18.4148
2.25134	18.4594
2.25036	18.5237
2.24939	18.7128
2.24841	19.0737
2.24744	19.4531
2.24646	19.7507
2.24549	19.9537
2.24452	20.2461
2.24355	20.7356
2.24257	21.1358
2.24161	21.4071
2.24064	21.5925
2.23967	21.8414
2.2387	22.1768
2.23774	22.4892
2.23677	22.9135
2.23581	23.3364
2.23484	23.6538
2.23388	24.0431
2.23292	24.3579
2.23196	24.5068
2.231	24.6508
2.23004	24.8725
2.22908	25.038
2.22812	25.204
2.22716	25.4815
2.22621	25.676
2.22525	25.6731
2.2243	25.8333
2.22334	26.0161
2.22239	26.0937
2.22144	26.1217
2.22049	26.0876
2.21953	26.2068
2.21859	26.3615
2.21764	26.323
2.21669	26.3076
2.21574	26.3526
2.21479	26.3729
2.21385	26.2446
2.2129	26.1855
2.21196	26.1819
2.21102	26.0943
2.21007	26.1088
2.20913	26.0284
2.20819	25.8959
2.20725	26.0805
2.20631	26.3402
2.20537	26.4645
2.20444	26.5473
2.2035	26.6054
2.20256	26.6117
2.20163	26.8317
2.20069	26.9552
2.19976	26.9123
2.19883	27.0144
2.19789	27.1222
2.19696	27.0472
2.19603	27.2512
2.1951	27.3521
2.19417	27.3699
2.19325	27.3577
2.19232	27.3998
2.19139	27.5092
2.19047	27.5934
2.18954	27.7497
2.18862	27.9292
2.18769	27.9473
2.18677	27.8795
2.18585	27.8707
2.18493	27.962
2.18401	28.0773
2.18309	28.1089
2.18217	28.1774
2.18125	28.2068
2.18033	28.1095
2.17942	28.0294
2.1785	28.0261
2.17759	27.9611
2.17667	27.7594
2.17576	27.695
2.17485	27.8058
2.17393	27.7042
2.17302	27.6264
2.17211	27.5615
2.1712	27.3705
2.17029	27.2589
2.16939	27.2034
2.16848	26.9752
2.16757	26.7232
2.16667	26.5527
2.16576	26.1717
2.16486	25.7442
2.16395	25.2852
2.16305	24.8592
2.16215	24.7021
2.16125	24.6199
2.16035	24.4184
2.15945	24.35
2.15855	24.532
2.15765	24.4471
2.15675	24.5754
2.15586	24.7894
2.15496	24.955
2.15406	25.2855
2.15317	25.742
2.15228	26.0799
2.15138	26.407
2.15049	26.7255
2.1496	27.1465
2.14871	27.5533
2.14782	27.8536
2.14693	28.0989
2.14604	28.5167
2.14515	28.8906
2.14427	29.1067
2.14338	29.3155
2.14249	29.6171
2.14161	29.9005
2.14072	30.1697
2.13984	30.2873
2.13896	30.4509
2.13808	30.7142
2.13719	30.7837
2.13631	30.869
2.13543	30.9314
2.13455	31.0856
2.13368	31.3195
2.1328	31.3136
2.13192	31.3543
2.13105	31.4757
2.13017	31.4725
2.1293	31.3747
2.12842	31.5102
2.12755	31.7001
2.12668	31.6457
2.1258	31.6853
2.12493	31.7431
2.12406	31.7894
2.12319	31.7532
2.12232	31.6361
2.12145	31.7047
2.12059	31.8688
2.11972	31.8608
2.11885	31.7985
2.11799	31.7769
2.11712	31.8352
2.11626	31.7166
2.1154	31.5991
2.11453	31.6315
2.11367	31.833
2.11281	31.9002
2.11195	31.7615
2.11109	31.4245
2.11023	31.2735
2.10937	31.4652
2.10851	31.4725
2.10766	31.2752
2.1068	31.1813
2.10594	31.369
2.10509	31.4805
2.10423	31.2934
2.10338	31.144
2.10253	31.0775
2.10168	31.3217
2.10082	31.3757
2.09997	31.2466
2.09912	31.0824
2.09827	30.9322
2.09742	30.965
2.09658	31.0417
2.09573	31.0751
2.09488	31.2
2.09404	31.181
2.09319	31.1359
2.09235	30.9563
2.0915	30.7303
2.09066	31.0108
2.08982	31.2971
2.08897	31.2927
2.08813	31.249
2.08729	31.394
2.08645	31.4521
2.08561	31.4858
2.08477	31.2153
2.08394	30.854
2.0831	31.1414
2.08226	31.2678
2.08143	31.1651
2.08059	31.0531
2.07976	31.1872
2.07892	31.2117
2.07809	31.147
2.07726	30.7815
2.07643	30.4728
2.07559	30.5176
2.07476	30.9669
2.07393	31.4956
2.0731	31.4618
2.07228	31.0149
2.07145	30.631
2.07062	30.4465
2.06979	30.1351
2.06897	30.2511
2.06814	30.5062
2.06732	30.5141
2.06649	30.4515
2.06567	30.3305
2.06485	29.9794
2.06403	29.9048
2.0632	30.2031
2.06238	30.3252
2.06156	30.1845
2.06074	30.0091
2.05993	30.1353
2.05911	30.3306
2.05829	30.2005
2.05747	30.0837
2.05666	29.9947
2.05584	29.9443
2.05503	29.8097
2.05421	29.5204
2.0534	29.419
2.05259	29.3435
2.05177	29.3285
2.05096	29.5038
2.05015	29.5384
2.04934	29.4379
2.04853	29.2464
2.04772	29.0987
2.04691	29.0214
2.04611	29.1032
2.0453	29.0624
2.04449	28.823
2.04369	28.6615
2.04288	28.4532
2.04208	28.3853
2.04127	28.4902
2.04047	28.5476
2.03967	28.4139
2.03886	28.0144
2.03806	27.6865
2.03726	27.755
2.03646	27.768
2.03566	27.5491
2.03486	27.3398
2.03407	27.3803
2.03327	27.3195
2.03247	26.9218
2.03167	26.7949
2.03088	26.5541
2.03008	26.5005
2.02929	26.3182
2.0285	25.975
2.0277	26.1466
2.02691	26.2759
2.02612	26.1634
2.02533	25.995
2.02453	25.9396
2.02374	25.8601
2.02295	25.7213
2.02217	25.436
2.02138	25.216
2.02059	25.2217
2.0198	25.4475
2.01902	25.2465
2.01823	25.0583
2.01744	25.1046
2.01666	24.8984
2.01588	24.6328
2.01509	24.5012
2.01431	24.4006
2.01353	24.4361
2.01275	24.2882
2.01196	23.9815
2.01118	23.7002
2.0104	23.4778
2.00963	23.2724
2.00885	22.8782
2.00807	22.4722
2.00729	22.3157
2.00651	22.2619
2.00574	21.8329
2.00496	21.5162
2.00419	21.4383
2.00341	21.3381
2.00264	21.0855
2.00187	20.7367
2.00109	20.5741
2.00032	20.1722
