Name: Borax Na_2B_4O_5(OH)_4.8H_2O
Type: Mineral
Class: Borates
Subclass: 
Particle Size: 45-125um
Sample No.: B-6A
Owner: JPL
Wavelength range: VNIR-SWIR
Origin: USA, California, Kern County, Boron.
Collected by:  Burminco
Description: 





Measurement: Hemispherical reflectance
First Column: X
Second Column: Y
X Units: Wavelength (micrometers)
Y Units: Reflectance (percent)
First X Value: 2.500
Last X Value: 0.400
Number of X Values: 2101
Additional information: b06aa.txt

2.500  15.775197
2.499  15.578884
2.498  16.074704
2.497  16.027937
2.496  15.797878
2.495  16.198583
2.494  16.324369
2.493  16.125812
2.492  16.552809
2.491  16.525560
2.490  16.819594
2.489  16.801037
2.488  17.004309
2.487  16.875174
2.486  17.325849
2.485  17.127982
2.484  17.307860
2.483  17.301822
2.482  17.680449
2.481  17.615450
2.480  17.742320
2.479  17.691428
2.478  17.902523
2.477  18.025958
2.476  18.197338
2.475  18.196907
2.474  18.363819
2.473  18.233931
2.472  18.527370
2.471  18.477333
2.470  18.696459
2.469  18.715866
2.468  18.809343
2.467  18.980122
2.466  19.096972
2.465  19.140760
2.464  19.237569
2.463  19.319048
2.462  19.431271
2.461  19.449393
2.460  19.561401
2.459  19.451631
2.458  19.639868
2.457  19.668827
2.456  19.788996
2.455  19.767455
2.454  19.846398
2.453  19.808669
2.452  19.954572
2.451  19.879771
2.450  20.065461
2.449  20.046305
2.448  20.146892
2.447  20.077371
2.446  20.169026
2.445  20.173197
2.444  20.213915
2.443  20.277155
2.442  20.307287
2.441  20.279558
2.440  20.345783
2.439  20.382604
2.438  20.494214
2.437  20.430900
2.436  20.558731
2.435  20.515518
2.434  20.588788
2.433  20.622111
2.432  20.822957
2.431  20.778469
2.430  20.939479
2.429  20.813171
2.428  21.023375
2.427  21.040723
2.426  21.210644
2.425  21.236676
2.424  21.314148
2.423  21.358278
2.422  21.586918
2.421  21.548404
2.420  21.705327
2.419  21.781178
2.418  21.923471
2.417  21.987547
2.416  22.208391
2.415  22.239564
2.414  22.428787
2.413  22.468975
2.412  22.668122
2.411  22.690623
2.410  22.823786
2.409  22.964068
2.408  23.102851
2.407  23.153059
2.406  23.285226
2.405  23.461062
2.404  23.545181
2.403  23.653287
2.402  23.855941
2.401  23.897422
2.400  24.036970
2.399  24.130196
2.398  24.312305
2.397  24.430914
2.396  24.576670
2.395  24.728372
2.394  24.883102
2.393  24.967005
2.392  25.129138
2.391  25.267973
2.390  25.416359
2.389  25.561251
2.388  25.655494
2.387  25.763609
2.386  26.011827
2.385  26.111483
2.384  26.231839
2.383  26.364473
2.382  26.467190
2.381  26.573012
2.380  26.689824
2.379  26.857009
2.378  27.047434
2.377  27.069751
2.376  27.204008
2.375  27.297551
2.374  27.436011
2.373  27.599220
2.372  27.716536
2.371  27.739811
2.370  27.848735
2.369  27.947403
2.368  28.040904
2.367  28.122792
2.366  28.208243
2.365  28.274750
2.364  28.353319
2.363  28.447777
2.362  28.564838
2.361  28.644399
2.360  28.674437
2.359  28.713479
2.358  28.796611
2.357  28.906074
2.356  28.940517
2.355  28.933687
2.354  28.954091
2.353  29.017284
2.352  29.082129
2.351  29.137465
2.350  29.191428
2.349  29.226239
2.348  29.236128
2.347  29.278217
2.346  29.304794
2.345  29.337129
2.344  29.424540
2.343  29.456053
2.342  29.458482
2.341  29.517936
2.340  29.542885
2.339  29.534706
2.338  29.524652
2.337  29.593793
2.336  29.585775
2.335  29.599392
2.334  29.609726
2.333  29.628480
2.332  29.661963
2.331  29.694768
2.330  29.654179
2.329  29.708466
2.328  29.724061
2.327  29.697719
2.326  29.710885
2.325  29.738322
2.324  29.724585
2.323  29.734346
2.322  29.700443
2.321  29.743510
2.320  29.742652
2.319  29.769772
2.318  29.766881
2.317  29.730889
2.316  29.747822
2.315  29.817433
2.314  29.802177
2.313  29.815001
2.312  29.753886
2.311  29.730224
2.310  29.774041
2.309  29.814296
2.308  29.763554
2.307  29.807960
2.306  29.794084
2.305  29.824576
2.304  29.789852
2.303  29.809670
2.302  29.753147
2.301  29.815917
2.300  29.795394
2.299  29.785423
2.298  29.759285
2.297  29.804935
2.296  29.766879
2.295  29.794806
2.294  29.759144
2.293  29.851060
2.292  29.741251
2.291  29.763513
2.290  29.715818
2.289  29.754637
2.288  29.776772
2.287  29.816913
2.286  29.736340
2.285  29.780814
2.284  29.797275
2.283  29.818725
2.282  29.763339
2.281  29.727464
2.280  29.726520
2.279  29.767526
2.278  29.780434
2.277  29.752062
2.276  29.679067
2.275  29.745369
2.274  29.708998
2.273  29.766205
2.272  29.783848
2.271  29.777064
2.270  29.710612
2.269  29.873809
2.268  29.722233
2.267  29.759522
2.266  29.762165
2.265  29.766004
2.264  29.729313
2.263  29.833926
2.262  29.727201
2.261  29.779355
2.260  29.789602
2.259  29.841971
2.258  29.759307
2.257  29.804591
2.256  29.731806
2.255  29.807624
2.254  29.812523
2.253  29.765962
2.252  29.761576
2.251  29.855338
2.250  29.837305
2.249  29.902907
2.248  29.841203
2.247  29.938557
2.246  29.825025
2.245  29.991335
2.244  29.918272
2.243  29.971365
2.242  29.896611
2.241  29.996447
2.240  29.972897
2.239  29.987886
2.238  29.990162
2.237  30.092122
2.236  30.028293
2.235  30.122761
2.234  30.052009
2.233  30.137233
2.232  30.064110
2.231  30.202934
2.230  30.219110
2.229  30.261145
2.228  30.272292
2.227  30.293971
2.226  30.251934
2.225  30.398175
2.224  30.351790
2.223  30.431491
2.222  30.471958
2.221  30.506661
2.220  30.540801
2.219  30.636329
2.218  30.593417
2.217  30.707724
2.216  30.678918
2.215  30.767319
2.214  30.718296
2.213  30.839934
2.212  30.915163
2.211  30.903920
2.210  30.946664
2.209  31.019547
2.208  31.063484
2.207  31.127203
2.206  31.167800
2.205  31.271084
2.204  31.211124
2.203  31.290201
2.202  31.243700
2.201  31.346450
2.200  31.370756
2.199  31.427644
2.198  31.381878
2.197  31.418445
2.196  31.484143
2.195  31.551337
2.194  31.476145
2.193  31.490048
2.192  31.441331
2.191  31.484730
2.190  31.467860
2.189  31.456690
2.188  31.404448
2.187  31.397498
2.186  31.331593
2.185  31.374657
2.184  31.226084
2.183  31.309722
2.182  31.211128
2.181  31.140086
2.180  31.080613
2.179  31.046183
2.178  30.904871
2.177  30.882928
2.176  30.782412
2.175  30.733784
2.174  30.557247
2.173  30.536563
2.172  30.419067
2.171  30.354268
2.170  30.176220
2.169  30.109178
2.168  29.949514
2.167  29.895241
2.166  29.728038
2.165  29.661094
2.164  29.507670
2.163  29.481794
2.162  29.316310
2.161  29.218215
2.160  29.209472
2.159  29.127218
2.158  29.085329
2.157  29.051981
2.156  28.948164
2.155  28.951718
2.154  28.869036
2.153  28.971069
2.152  28.879366
2.151  29.020392
2.150  28.970199
2.149  29.089823
2.148  29.166482
2.147  29.293822
2.146  29.326999
2.145  29.455479
2.144  29.540097
2.143  29.681843
2.142  29.748105
2.141  29.952377
2.140  30.008753
2.139  30.173075
2.138  30.273174
2.137  30.431429
2.136  30.514689
2.135  30.643802
2.134  30.687647
2.133  30.785316
2.132  30.825997
2.131  30.914615
2.130  30.953039
2.129  31.064545
2.128  31.026061
2.127  31.053612
2.126  31.060369
2.125  31.078983
2.124  31.094487
2.123  31.122889
2.122  31.005162
2.121  31.038102
2.120  30.950078
2.119  30.972127
2.118  30.920118
2.117  30.860559
2.116  30.796163
2.115  30.795798
2.114  30.732319
2.113  30.665926
2.112  30.602777
2.111  30.567603
2.110  30.523206
2.109  30.515822
2.108  30.504654
2.107  30.454074
2.106  30.357704
2.105  30.372213
2.104  30.307264
2.103  30.313600
2.102  30.248328
2.101  30.261301
2.100  30.214703
2.099  30.196457
2.098  30.166403
2.097  30.191226
2.096  30.226029
2.095  30.236458
2.094  30.210615
2.093  30.267204
2.092  30.273331
2.091  30.263408
2.090  30.262525
2.089  30.245687
2.088  30.241404
2.087  30.234122
2.086  30.230359
2.085  30.262176
2.084  30.243654
2.083  30.239354
2.082  30.195731
2.081  30.216972
2.080  30.245475
2.079  30.271112
2.078  30.236912
2.077  30.241165
2.076  30.230016
2.075  30.155897
2.074  30.116757
2.073  30.154003
2.072  30.175679
2.071  30.156263
2.070  30.099871
2.069  30.085107
2.068  30.096879
2.067  30.086947
2.066  30.050343
2.065  30.030446
2.064  30.053041
2.063  30.002719
2.062  29.894895
2.061  29.865195
2.060  29.917767
2.059  29.864804
2.058  29.784413
2.057  29.744219
2.056  29.770550
2.055  29.740005
2.054  29.670709
2.053  29.641199
2.052  29.637223
2.051  29.537425
2.050  29.520803
2.049  29.511239
2.048  29.492911
2.047  29.458703
2.046  29.433917
2.045  29.370622
2.044  29.353100
2.043  29.285552
2.042  29.302293
2.041  29.300019
2.040  29.279441
2.039  29.195036
2.038  29.187087
2.037  29.168113
2.036  29.203600
2.035  29.120944
2.034  29.073967
2.033  29.052739
2.032  29.047934
2.031  28.958461
2.030  28.947245
2.029  28.917911
2.028  28.908835
2.027  28.833716
2.026  28.826208
2.025  28.757592
2.024  28.747116
2.023  28.650195
2.022  28.657240
2.021  28.607610
2.020  28.536350
2.019  28.489650
2.018  28.431019
2.017  28.387310
2.016  28.396599
2.015  28.331012
2.014  28.279118
2.013  28.136945
2.012  28.123714
2.011  28.073309
2.010  28.095521
2.009  28.017152
2.008  27.999923
2.007  27.931873
2.006  27.938294
2.005  27.774456
2.004  27.786447
2.003  27.725346
2.002  27.728776
2.001  27.654610
2.000  27.640387
1.999  27.564334
1.998  27.593392
1.997  27.531999
1.996  27.480806
1.995  27.373676
1.994  27.424950
1.993  27.344493
1.992  27.322508
1.991  27.209930
1.990  27.199303
1.989  27.091906
1.988  27.082203
1.987  27.000536
1.986  27.017856
1.985  26.966626
1.984  26.989507
1.983  26.872273
1.982  26.952998
1.981  26.852839
1.980  26.844137
1.979  26.794541
1.978  26.830489
1.977  26.693063
1.976  26.711582
1.975  26.623186
1.974  26.620058
1.973  26.570592
1.972  26.604199
1.971  26.458813
1.970  26.509992
1.969  26.343915
1.968  26.470313
1.967  26.228199
1.966  26.285257
1.965  26.088851
1.964  26.142040
1.963  25.991428
1.962  25.989954
1.961  25.894431
1.960  25.806759
1.959  25.671954
1.958  25.679568
1.957  25.456815
1.956  25.490483
1.955  25.352270
1.954  25.248505
1.953  25.105867
1.952  24.999898
1.951  24.897178
1.950  24.871545
1.949  24.629744
1.948  24.568604
1.947  24.454553
1.946  24.367801
1.945  24.179035
1.944  24.100908
1.943  23.934945
1.942  23.844547
1.941  23.730485
1.940  23.667076
1.939  23.481258
1.938  23.483571
1.937  23.301196
1.936  23.296609
1.935  23.117513
1.934  23.083348
1.933  23.027930
1.932  23.077643
1.931  22.965862
1.930  23.061674
1.929  22.987130
1.928  23.082905
1.927  23.114886
1.926  23.066817
1.925  23.159585
1.924  23.214667
1.923  23.234899
1.922  23.431519
1.921  23.367942
1.920  23.469706
1.919  23.527694
1.918  23.642659
1.917  23.670426
1.916  23.822712
1.915  23.892492
1.914  24.036970
1.913  24.083626
1.912  24.302505
1.911  24.465913
1.910  24.719636
1.909  24.900813
1.908  25.299096
1.907  25.567538
1.906  25.923490
1.905  26.332370
1.904  26.902704
1.903  27.383890
1.902  28.046897
1.901  28.619590
1.900  29.225387
1.899  29.753293
1.898  30.457255
1.897  31.011274
1.896  31.637101
1.895  32.142194
1.894  32.819811
1.893  33.260737
1.892  33.883733
1.891  34.404104
1.890  35.003319
1.889  35.448487
1.888  36.020183
1.887  36.332881
1.886  36.808754
1.885  37.183611
1.884  37.635965
1.883  37.995139
1.882  38.264899
1.881  38.581493
1.880  38.946184
1.879  39.193698
1.878  39.510632
1.877  39.687274
1.876  39.952607
1.875  40.174420
1.874  40.474316
1.873  40.634258
1.872  40.920867
1.871  41.185247
1.870  41.431087
1.869  41.560082
1.868  41.750753
1.867  41.870151
1.866  42.054185
1.865  42.162502
1.864  42.339070
1.863  42.417384
1.862  42.590556
1.861  42.617522
1.860  42.797882
1.859  42.863977
1.858  42.939216
1.857  43.013225
1.856  43.121243
1.855  43.209599
1.854  43.304387
1.853  43.373962
1.852  43.553711
1.851  43.544946
1.850  43.624632
1.849  43.615283
1.848  43.722793
1.847  43.726107
1.846  43.872737
1.845  43.891807
1.844  43.989418
1.843  44.044094
1.842  44.092104
1.841  44.074669
1.840  44.194208
1.839  44.176026
1.838  44.221828
1.837  44.227336
1.836  44.304413
1.835  44.348959
1.834  44.450845
1.833  44.462659
1.832  44.490741
1.831  44.476902
1.830  44.559305
1.829  44.572668
1.828  44.646219
1.827  44.657830
1.826  44.741661
1.825  44.768557
1.824  44.814711
1.823  44.834423
1.822  44.868089
1.821  44.867226
1.820  44.927924
1.819  44.974143
1.818  45.056485
1.817  45.104241
1.816  45.142699
1.815  45.195194
1.814  45.266035
1.813  45.233267
1.812  45.328994
1.811  45.382309
1.810  45.363487
1.809  45.410687
1.808  45.506711
1.807  45.514355
1.806  45.577639
1.805  45.588380
1.804  45.658607
1.803  45.696690
1.802  45.776362
1.801  45.820907
1.800  45.854987
1.799  45.866796
1.798  45.954522
1.797  46.033328
1.796  46.104885
1.795  46.128842
1.794  46.182142
1.793  46.246949
1.792  46.313511
1.791  46.368740
1.790  46.476903
1.789  46.532615
1.788  46.500669
1.787  46.547585
1.786  46.582130
1.785  46.683263
1.784  46.804969
1.783  46.871491
1.782  46.945514
1.781  47.009186
1.780  47.019991
1.779  47.081779
1.778  47.214100
1.777  47.274934
1.776  47.292914
1.775  47.378881
1.774  47.432687
1.773  47.467520
1.772  47.534562
1.771  47.594634
1.770  47.625301
1.769  47.731757
1.768  47.761997
1.767  47.817804
1.766  47.911829
1.765  47.957742
1.764  47.982780
1.763  48.061802
1.762  48.128847
1.761  48.204061
1.760  48.222747
1.759  48.277679
1.758  48.266792
1.757  48.323123
1.756  48.388607
1.755  48.405911
1.754  48.462685
1.753  48.532371
1.752  48.547202
1.751  48.514039
1.750  48.575092
1.749  48.675401
1.748  48.676215
1.747  48.663286
1.746  48.629873
1.745  48.706079
1.744  48.712295
1.743  48.740990
1.742  48.795514
1.741  48.779826
1.740  48.769026
1.739  48.858642
1.738  48.865111
1.737  48.836117
1.736  48.782305
1.735  48.809495
1.734  48.766366
1.733  48.847288
1.732  48.786837
1.731  48.795982
1.730  48.841435
1.729  48.816982
1.728  48.796603
1.727  48.828643
1.726  48.823589
1.725  48.836123
1.724  48.831086
1.723  48.812468
1.722  48.744834
1.721  48.804768
1.720  48.772010
1.719  48.751735
1.718  48.752870
1.717  48.759307
1.716  48.729313
1.715  48.765583
1.714  48.714900
1.713  48.767725
1.712  48.701504
1.711  48.751405
1.710  48.737716
1.709  48.741468
1.708  48.724433
1.707  48.849070
1.706  48.770489
1.705  48.771796
1.704  48.759074
1.703  48.809602
1.702  48.747644
1.701  48.848434
1.700  48.837785
1.699  48.819121
1.698  48.833684
1.697  48.862741
1.696  48.893638
1.695  48.999514
1.694  48.947836
1.693  49.070357
1.692  49.027807
1.691  49.127336
1.690  49.075333
1.689  49.116588
1.688  49.178371
1.687  49.171626
1.686  49.207809
1.685  49.254501
1.684  49.244252
1.683  49.309296
1.682  49.325523
1.681  49.451179
1.680  49.419026
1.679  49.395850
1.678  49.536558
1.677  49.574193
1.676  49.496498
1.675  49.687825
1.674  49.657826
1.673  49.832212
1.672  49.757919
1.671  49.886866
1.670  49.902160
1.669  49.954148
1.668  49.839433
1.667  50.112675
1.666  50.087112
1.665  50.159102
1.664  50.120317
1.663  50.251501
1.662  50.280561
1.661  50.293082
1.660  50.388356
1.659  50.556563
1.658  50.562418
1.657  50.664772
1.656  50.609536
1.655  50.734027
1.654  50.742499
1.653  50.883613
1.652  50.840501
1.651  50.955196
1.650  51.001961
1.649  51.076056
1.648  51.177603
1.647  51.214836
1.646  51.296997
1.645  51.338956
1.644  51.451691
1.643  51.935170
1.642  51.542546
1.641  51.565397
1.640  51.668929
1.639  51.782342
1.638  51.725815
1.637  51.793659
1.636  51.875265
1.635  51.911510
1.634  51.960685
1.633  52.046672
1.632  52.027895
1.631  52.168785
1.630  52.157593
1.629  52.219558
1.628  52.289073
1.627  52.438575
1.626  52.427092
1.625  52.501050
1.624  52.552136
1.623  52.626393
1.622  52.585302
1.621  52.737433
1.620  52.733923
1.619  52.862598
1.618  52.849188
1.617  52.941171
1.616  52.901240
1.615  53.044081
1.614  53.039674
1.613  53.074692
1.612  53.102757
1.611  53.169022
1.610  53.179808
1.609  53.268267
1.608  53.306075
1.607  53.420821
1.606  53.330349
1.605  53.419616
1.604  53.404169
1.603  53.517737
1.602  53.495461
1.601  53.573362
1.600  53.547406
1.599  53.611295
1.598  53.675183
1.597  53.698983
1.596  53.689463
1.595  53.686014
1.594  53.661677
1.593  53.700353
1.592  53.764652
1.591  53.810485
1.590  53.749291
1.589  53.779770
1.588  53.755092
1.587  53.817106
1.586  53.729664
1.585  53.733540
1.584  53.802452
1.583  53.757143
1.582  53.720235
1.581  53.760725
1.580  53.661022
1.579  53.730932
1.578  53.700210
1.577  53.720012
1.576  53.654028
1.575  53.655915
1.574  53.557453
1.573  53.556259
1.572  53.590901
1.571  53.587474
1.570  53.523248
1.569  53.522294
1.568  53.512036
1.567  53.486798
1.566  53.442307
1.565  53.442538
1.564  53.427890
1.563  53.421556
1.562  53.365229
1.561  53.360208
1.560  53.411492
1.559  53.414037
1.558  53.446699
1.557  53.423634
1.556  53.374258
1.555  53.456319
1.554  53.490493
1.553  53.546024
1.552  53.569890
1.551  53.614490
1.550  53.627479
1.549  53.715991
1.548  53.799941
1.547  53.829419
1.546  53.889451
1.545  53.958932
1.544  54.011521
1.543  54.086332
1.542  54.198230
1.541  54.278531
1.540  54.377310
1.539  54.505786
1.538  54.528939
1.537  54.636626
1.536  54.712105
1.535  54.796430
1.534  54.867066
1.533  55.015782
1.532  55.056943
1.531  55.186130
1.530  55.335176
1.529  55.309535
1.528  55.370901
1.527  55.454085
1.526  55.514140
1.525  55.594160
1.524  55.665104
1.523  55.711917
1.522  55.748385
1.521  55.825077
1.520  55.875939
1.519  55.839515
1.518  55.850079
1.517  55.887739
1.516  55.849905
1.515  55.908984
1.514  55.932438
1.513  55.862528
1.512  55.855589
1.511  55.818153
1.510  55.724709
1.509  55.651097
1.508  55.584246
1.507  55.478939
1.506  55.311861
1.505  55.190843
1.504  55.100339
1.503  54.981392
1.502  54.865876
1.501  54.691976
1.500  54.460949
1.499  54.260046
1.498  54.062034
1.497  53.892098
1.496  53.675082
1.495  53.441463
1.494  53.237939
1.493  53.069494
1.492  52.884327
1.491  52.644788
1.490  52.494922
1.489  52.367379
1.488  52.183856
1.487  52.071118
1.486  52.015342
1.485  51.882629
1.484  51.773649
1.483  51.747381
1.482  51.695254
1.481  51.625891
1.480  51.665483
1.479  51.675378
1.478  51.685004
1.477  51.735327
1.476  51.825343
1.475  51.924378
1.474  52.049580
1.473  52.088614
1.472  52.166151
1.471  52.276359
1.470  52.372915
1.469  52.494697
1.468  52.596065
1.467  52.690835
1.466  52.852822
1.465  52.986413
1.464  53.152594
1.463  53.281863
1.462  53.506259
1.461  53.698237
1.460  53.900987
1.459  54.159986
1.458  54.393868
1.457  54.493795
1.456  54.751387
1.455  55.006369
1.454  55.142517
1.453  55.270343
1.452  55.412948
1.451  55.520398
1.450  55.688611
1.449  55.788610
1.448  55.848204
1.447  55.987920
1.446  56.153620
1.445  56.272616
1.444  56.442621
1.443  56.624038
1.442  56.727003
1.441  56.808197
1.440  56.942284
1.439  57.001241
1.438  57.001412
1.437  56.974173
1.436  57.004087
1.435  56.830525
1.434  56.725993
1.433  56.584974
1.432  56.414794
1.431  56.225814
1.430  56.062539
1.429  55.935743
1.428  55.794472
1.427  55.610793
1.426  55.632434
1.425  55.648094
1.424  55.840169
1.423  56.054177
1.422  56.430915
1.421  56.902354
1.420  57.420377
1.419  58.000295
1.418  58.672695
1.417  59.321466
1.416  60.020128
1.415  60.685492
1.414  61.408550
1.413  61.971560
1.412  62.593106
1.411  63.242827
1.410  63.810396
1.409  64.347465
1.408  65.051074
1.407  65.540004
1.406  66.104692
1.405  66.590989
1.404  67.056811
1.403  67.592679
1.402  67.957577
1.401  68.318548
1.400  68.797924
1.399  69.091659
1.398  69.562748
1.397  69.780595
1.396  70.175586
1.395  70.534020
1.394  70.853937
1.393  71.118436
1.392  71.498909
1.391  71.801837
1.390  72.038311
1.389  72.328053
1.388  72.611268
1.387  72.750755
1.386  72.979875
1.385  73.163115
1.384  73.434708
1.383  73.631422
1.382  73.795729
1.381  73.938036
1.380  74.063547
1.379  74.202033
1.378  74.349100
1.377  74.448839
1.376  74.543471
1.375  74.647754
1.374  74.798358
1.373  74.922552
1.372  75.038966
1.371  75.083125
1.370  75.271619
1.369  75.308144
1.368  75.403631
1.367  75.546331
1.366  75.675907
1.365  75.815816
1.364  75.836410
1.363  75.876774
1.362  76.076479
1.361  76.170075
1.360  76.303352
1.359  76.381316
1.358  76.549063
1.357  76.594497
1.356  76.775988
1.355  76.801730
1.354  76.976608
1.353  77.035529
1.352  77.219268
1.351  77.295889
1.350  77.488534
1.349  77.485642
1.348  77.717559
1.347  77.730978
1.346  77.909321
1.345  77.970458
1.344  78.138844
1.343  78.247024
1.342  78.364574
1.341  78.395314
1.340  78.540133
1.339  78.576872
1.338  78.777996
1.337  78.814717
1.336  78.954946
1.335  79.078640
1.334  79.113556
1.333  79.253219
1.332  79.327671
1.331  79.427968
1.330  79.503781
1.329  79.607946
1.328  79.724593
1.327  79.726461
1.326  79.859741
1.325  79.910748
1.324  79.943861
1.323  80.065345
1.322  80.097012
1.321  80.151579
1.320  80.225674
1.319  80.267577
1.318  80.295498
1.317  80.274634
1.316  80.379078
1.315  80.423553
1.314  80.488197
1.313  80.440921
1.312  80.464600
1.311  80.554570
1.310  80.534918
1.309  80.611704
1.308  80.605362
1.307  80.551415
1.306  80.582585
1.305  80.620871
1.304  80.654987
1.303  80.516184
1.302  80.571416
1.301  80.579433
1.300  80.579521
1.299  80.579723
1.298  80.558431
1.297  80.398550
1.296  80.391253
1.295  80.320837
1.294  80.313536
1.293  80.277916
1.292  80.219894
1.291  80.155307
1.290  80.106373
1.289  80.020104
1.288  80.044932
1.287  79.967898
1.286  79.984820
1.285  79.944337
1.284  80.007076
1.283  80.016743
1.282  80.012249
1.281  80.037306
1.280  80.045683
1.279  80.027078
1.278  80.055488
1.277  80.071552
1.276  80.184849
1.275  80.165449
1.274  80.197745
1.273  80.256876
1.272  80.230951
1.271  80.198923
1.270  80.242036
1.269  80.263948
1.268  80.340195
1.267  80.372949
1.266  80.347583
1.265  80.367713
1.264  80.338546
1.263  80.283133
1.262  80.386516
1.261  80.413732
1.260  80.333880
1.259  80.363032
1.258  80.410335
1.257  80.435975
1.256  80.465455
1.255  80.422376
1.254  80.449589
1.253  80.487940
1.252  80.509515
1.251  80.478539
1.250  80.506566
1.249  80.507849
1.248  80.578906
1.247  80.606279
1.246  80.569077
1.245  80.562123
1.244  80.552619
1.243  80.553122
1.242  80.613749
1.241  80.583040
1.240  80.634290
1.239  80.637953
1.238  80.618213
1.237  80.689673
1.236  80.672829
1.235  80.693460
1.234  80.761672
1.233  80.723287
1.232  80.735633
1.231  80.794503
1.230  80.794925
1.229  80.788418
1.228  80.807702
1.227  80.813405
1.226  80.833883
1.225  80.837457
1.224  80.824513
1.223  80.847735
1.222  80.910535
1.221  80.882431
1.220  80.886501
1.219  80.911193
1.218  80.914931
1.217  80.982312
1.216  81.004542
1.215  81.008488
1.214  80.987223
1.213  81.000514
1.212  80.999801
1.211  81.009813
1.210  81.044894
1.209  81.029191
1.208  81.023626
1.207  81.030356
1.206  81.041573
1.205  81.064454
1.204  81.065295
1.203  81.106858
1.202  81.123349
1.201  81.046508
1.200  81.018959
1.199  81.097293
1.198  81.087587
1.197  81.052050
1.196  81.058842
1.195  81.087271
1.194  81.119668
1.193  81.076620
1.192  81.041627
1.191  81.072713
1.190  81.132565
1.189  81.094615
1.188  81.068469
1.187  81.139128
1.186  81.186709
1.185  81.176435
1.184  81.179703
1.183  81.195486
1.182  81.200237
1.181  81.136030
1.180  81.130326
1.179  81.197832
1.178  81.187817
1.177  81.192262
1.176  81.227295
1.175  81.190971
1.174  81.159880
1.173  81.190393
1.172  81.154457
1.171  81.196044
1.170  81.088931
1.169  81.046713
1.168  81.090977
1.167  81.067118
1.166  80.991043
1.165  80.958680
1.164  80.918742
1.163  80.895334
1.162  80.830122
1.161  80.805164
1.160  80.821540
1.159  80.891359
1.158  81.002806
1.157  81.158099
1.156  81.319793
1.155  81.495473
1.154  81.773730
1.153  81.990755
1.152  82.199820
1.151  82.401343
1.150  82.522782
1.149  82.752211
1.148  82.980810
1.147  83.061044
1.146  83.078849
1.145  83.206998
1.144  83.311689
1.143  83.392750
1.142  83.488827
1.141  83.533315
1.140  83.550710
1.139  83.676942
1.138  83.788924
1.137  83.746683
1.136  83.781808
1.135  83.873589
1.134  83.832191
1.133  83.949024
1.132  83.906491
1.131  83.887417
1.130  83.948925
1.129  83.988490
1.128  83.961168
1.127  83.984467
1.126  83.992714
1.125  83.960256
1.124  84.050208
1.123  84.114683
1.122  84.125586
1.121  84.140562
1.120  84.150488
1.119  84.096055
1.118  84.115134
1.117  84.085584
1.116  84.160275
1.115  84.175521
1.114  84.305700
1.113  84.241932
1.112  84.241972
1.111  84.248916
1.110  84.233474
1.109  84.287052
1.108  84.312487
1.107  84.310694
1.106  84.359939
1.105  84.358051
1.104  84.364789
1.103  84.372191
1.102  84.476472
1.101  84.418710
1.100  84.485103
1.099  84.411218
1.098  84.475078
1.097  84.476119
1.096  84.466652
1.095  84.621921
1.094  84.496336
1.093  84.556124
1.092  84.626796
1.091  84.552375
1.090  84.560111
1.089  84.586977
1.088  84.597787
1.087  84.613350
1.086  84.576032
1.085  84.650611
1.084  84.620808
1.083  84.674666
1.082  84.605315
1.081  84.675679
1.080  84.632627
1.079  84.671721
1.078  84.660079
1.077  84.656379
1.076  84.564113
1.075  84.616984
1.074  84.742554
1.073  84.611380
1.072  84.668958
1.071  84.708583
1.070  84.652388
1.069  84.655880
1.068  84.676800
1.067  84.652622
1.066  84.766593
1.065  84.675145
1.064  84.646261
1.063  84.594335
1.062  84.621273
1.061  84.651979
1.060  84.567657
1.059  84.629146
1.058  84.567180
1.057  84.722356
1.056  84.543200
1.055  84.545391
1.054  84.605605
1.053  84.649851
1.052  84.632923
1.051  84.570514
1.050  84.556232
1.049  84.628857
1.048  84.552781
1.047  84.640152
1.046  84.522394
1.045  84.525065
1.044  84.507861
1.043  84.456653
1.042  84.486124
1.041  84.394988
1.040  84.443143
1.039  84.487888
1.038  84.474133
1.037  84.417759
1.036  84.394920
1.035  84.396584
1.034  84.464064
1.033  84.381234
1.032  84.426881
1.031  84.378963
1.030  84.373055
1.029  84.377661
1.028  84.330491
1.027  84.294584
1.026  84.282604
1.025  84.306845
1.024  84.352796
1.023  84.273284
1.022  84.214269
1.021  84.312438
1.020  84.282526
1.019  84.269357
1.018  84.258127
1.017  84.263493
1.016  84.269790
1.015  84.220060
1.014  84.206083
1.013  84.145431
1.012  84.159542
1.011  84.164409
1.010  84.185484
1.009  84.153267
1.008  84.098989
1.007  84.082269
1.006  84.075693
1.005  84.075218
1.004  84.084037
1.003  84.074851
1.002  84.035796
1.001  84.033594
1.000  83.984692
0.999  83.975910
0.998  83.975562
0.997  84.012203
0.996  83.919764
0.995  84.022923
0.994  83.994146
0.993  83.995989
0.992  83.939763
0.991  83.970802
0.990  83.937487
0.989  83.903311
0.988  83.898523
0.987  83.877543
0.986  83.902708
0.985  83.925693
0.984  83.889392
0.983  83.891514
0.982  83.948360
0.981  83.898439
0.980  83.870652
0.979  83.816900
0.978  83.818947
0.977  83.871497
0.976  83.813400
0.975  83.819284
0.974  83.810501
0.973  83.849416
0.972  83.894947
0.971  83.883756
0.970  83.931796
0.969  84.045425
0.968  84.113718
0.967  84.136032
0.966  84.189954
0.965  84.290297
0.964  84.381316
0.963  84.446341
0.962  84.498085
0.961  84.521699
0.960  84.575389
0.959  84.632417
0.958  84.670855
0.957  84.737851
0.956  84.725356
0.955  84.773236
0.954  84.834817
0.953  84.838380
0.952  84.845103
0.951  84.888633
0.950  84.887930
0.949  84.937274
0.948  84.991885
0.947  84.975991
0.946  84.975650
0.945  84.954396
0.944  84.932418
0.943  84.957663
0.942  84.990297
0.941  85.031302
0.940  85.048070
0.939  85.137758
0.938  85.150836
0.937  85.073342
0.936  85.085915
0.935  85.156881
0.934  85.165921
0.933  85.144782
0.932  85.142952
0.931  85.153984
0.930  85.206473
0.929  85.210412
0.928  85.224942
0.927  85.204016
0.926  85.184831
0.925  85.198207
0.924  85.210686
0.923  85.271716
0.922  85.315098
0.921  85.326003
0.920  85.306099
0.919  85.253284
0.918  85.274243
0.917  85.335164
0.916  85.324037
0.915  85.318515
0.914  85.321648
0.913  85.289286
0.912  85.285181
0.911  85.274634
0.910  85.312267
0.909  85.317353
0.908  85.326390
0.907  85.317752
0.906  85.329350
0.905  85.327785
0.904  85.283785
0.903  85.279963
0.902  85.298866
0.901  85.290379
0.900  85.316317
0.899  85.382522
0.898  85.340941
0.897  85.320874
0.896  85.260499
0.895  85.256126
0.894  85.290977
0.893  85.347958
0.892  85.368058
0.891  85.410220
0.890  85.378607
0.889  85.372601
0.888  85.353735
0.887  85.402496
0.886  85.372635
0.885  85.347662
0.884  85.393008
0.883  85.413425
0.882  85.399111
0.881  85.364840
0.880  85.418217
0.879  85.390888
0.878  85.402613
0.877  85.398759
0.876  85.357654
0.875  85.363721
0.874  85.425425
0.873  85.397190
0.872  85.337347
0.871  85.384584
0.870  85.466412
0.869  85.406853
0.868  85.361796
0.867  85.439427
0.866  85.439341
0.865  85.373169
0.864  85.399134
0.863  85.384026
0.862  85.398215
0.861  85.401741
0.860  85.740959
0.859  85.315033
0.858  85.255441
0.857  85.360453
0.856  85.362070
0.855  85.298711
0.854  85.395949
0.853  85.474306
0.852  85.251919
0.851  85.433315
0.850  85.626753
0.849  85.369367
0.848  85.411331
0.847  85.586259
0.846  85.357144
0.845  85.432138
0.844  85.525354
0.843  85.450075
0.842  85.450063
0.841  85.599679
0.840  85.523679
0.839  85.374833
0.838  85.481824
0.837  85.543022
0.836  85.440661
0.835  85.579164
0.834  85.598418
0.833  85.480577
0.832  85.606438
0.831  85.589215
0.830  85.498133
0.829  85.607238
0.828  85.680574
0.827  85.517852
0.826  85.603305
0.825  85.660571
0.824  85.540664
0.823  85.661364
0.822  85.707875
0.821  85.563264
0.820  85.593159
0.819  85.637853
0.818  85.545653
0.817  85.608566
0.816  85.702065
0.815  85.582185
0.814  85.584937
0.813  85.662077
0.812  85.583013
0.811  85.677698
0.810  85.702910
0.809  85.631334
0.808  85.674888
0.807  85.712581
0.806  85.574443
0.805  85.644638
0.804  85.718789
0.803  85.565577
0.802  85.619285
0.801  85.711403
0.800  85.608591
0.799  85.639376
0.798  85.690140
0.797  85.554534
0.796  85.603922
0.795  85.611192
0.794  85.551971
0.793  85.561510
0.792  85.588847
0.791  85.469175
0.790  85.574660
0.789  85.584553
0.788  85.520982
0.787  85.550316
0.786  85.626375
0.785  85.527786
0.784  85.541398
0.783  85.621053
0.782  85.567428
0.781  85.542659
0.780  85.625096
0.779  85.569674
0.778  85.512197
0.777  85.556286
0.776  85.508088
0.775  85.504766
0.774  85.569948
0.773  85.496170
0.772  85.472905
0.771  85.500519
0.770  85.568634
0.769  85.493600
0.768  85.550269
0.767  85.542587
0.766  85.487130
0.765  85.518541
0.764  85.504125
0.763  85.506534
0.762  85.517409
0.761  85.546173
0.760  85.534723
0.759  85.511895
0.758  85.523475
0.757  85.518176
0.756  85.550996
0.755  85.533620
0.754  85.494163
0.753  85.544768
0.752  85.519851
0.751  85.470314
0.750  85.513473
0.749  85.503468
0.748  85.447039
0.747  85.538318
0.746  85.499428
0.745  85.516448
0.744  85.541758
0.743  85.547058
0.742  85.474125
0.741  85.531042
0.740  85.564563
0.739  85.523177
0.738  85.557347
0.737  85.522692
0.736  85.524523
0.735  85.569648
0.734  85.574807
0.733  85.581427
0.732  85.559665
0.731  85.574911
0.730  85.529639
0.729  85.570601
0.728  85.570923
0.727  85.538923
0.726  85.572631
0.725  85.605516
0.724  85.559069
0.723  85.550303
0.722  85.554244
0.721  85.543756
0.720  85.548384
0.719  85.577613
0.718  85.556414
0.717  85.569624
0.716  85.583077
0.715  85.550719
0.714  85.543962
0.713  85.584572
0.712  85.569386
0.711  85.546206
0.710  85.551745
0.709  85.535765
0.708  85.559091
0.707  85.558706
0.706  85.550592
0.705  85.554976
0.704  85.569846
0.703  85.533845
0.702  85.566767
0.701  85.573510
0.700  85.553679
0.699  85.552623
0.698  85.574091
0.697  85.550263
0.696  85.571908
0.695  85.554325
0.694  85.540384
0.693  85.545721
0.692  85.566728
0.691  85.555612
0.690  85.553275
0.689  85.536054
0.688  85.537307
0.687  85.561043
0.686  85.561413
0.685  85.535810
0.684  85.562067
0.683  85.571291
0.682  85.556999
0.681  85.560812
0.680  85.553906
0.679  85.548602
0.678  85.538348
0.677  85.537084
0.676  85.545762
0.675  85.551022
0.674  85.534752
0.673  85.535967
0.672  85.558588
0.671  85.541173
0.670  85.537864
0.669  85.551704
0.668  85.546589
0.667  85.529838
0.666  85.532654
0.665  85.531255
0.664  85.526389
0.663  85.535069
0.662  85.543846
0.661  85.541491
0.660  85.547593
0.659  85.532682
0.658  85.528994
0.657  85.538191
0.656  85.540885
0.655  85.542159
0.654  85.545155
0.653  85.535871
0.652  85.523184
0.651  85.537481
0.650  85.532078
0.649  85.523058
0.648  85.534263
0.647  85.530615
0.646  85.522075
0.645  85.534293
0.644  85.540443
0.643  85.527952
0.642  85.511975
0.641  85.509798
0.640  85.504135
0.639  85.506273
0.638  85.518398
0.637  85.527491
0.636  85.525122
0.635  85.512745
0.634  85.511744
0.633  85.523445
0.632  85.532701
0.631  85.526124
0.630  85.515888
0.629  85.506306
0.628  85.503757
0.627  85.500172
0.626  85.488639
0.625  85.486257
0.624  85.508096
0.623  85.502741
0.622  85.500103
0.621  85.509965
0.620  85.499919
0.619  85.498356
0.618  85.499048
0.617  85.488296
0.616  85.497507
0.615  85.499636
0.614  85.490351
0.613  85.491045
0.612  85.489670
0.611  85.458911
0.610  85.460164
0.609  85.475634
0.608  85.469871
0.607  85.477837
0.606  85.488739
0.605  85.473093
0.604  85.468297
0.603  85.477114
0.602  85.465644
0.601  85.482016
0.600  85.491715
0.599  85.488472
0.598  85.500516
0.597  85.531415
0.596  85.549666
0.595  85.563763
0.594  85.553064
0.593  85.543338
0.592  85.544375
0.591  85.542235
0.590  85.542584
0.589  85.545000
0.588  85.545291
0.587  85.533851
0.586  85.528724
0.585  85.530383
0.584  85.516077
0.583  85.516794
0.582  85.522905
0.581  85.513763
0.580  85.514780
0.579  85.516278
0.578  85.504774
0.577  85.504056
0.576  85.522104
0.575  85.513436
0.574  85.504049
0.573  85.498518
0.572  85.502054
0.571  85.501065
0.570  85.511319
0.569  85.490876
0.568  85.486918
0.567  85.502811
0.566  85.507122
0.565  85.491021
0.564  85.486742
0.563  85.486996
0.562  85.495777
0.561  85.478143
0.560  85.438730
0.559  85.438328
0.558  85.448603
0.557  85.438478
0.556  85.430885
0.555  85.432940
0.554  85.431691
0.553  85.419638
0.552  85.428206
0.551  85.419967
0.550  85.420236
0.549  85.418236
0.548  85.402355
0.547  85.403892
0.546  85.399744
0.545  85.396183
0.544  85.412742
0.543  85.406117
0.542  85.389156
0.541  85.389165
0.540  85.393368
0.539  85.386727
0.538  85.372985
0.537  85.385181
0.536  85.374742
0.535  85.371032
0.534  85.361853
0.533  85.361459
0.532  85.359264
0.531  85.345363
0.530  85.355196
0.529  85.346426
0.528  85.361080
0.527  85.348130
0.526  85.341474
0.525  85.340979
0.524  85.332085
0.523  85.339233
0.522  85.311704
0.521  85.327536
0.520  85.307068
0.519  85.304070
0.518  85.311496
0.517  85.299956
0.516  85.304984
0.515  85.287710
0.514  85.267275
0.513  85.269873
0.512  85.274863
0.511  85.262384
0.510  85.243923
0.509  85.254999
0.508  85.210141
0.507  85.227159
0.506  85.220317
0.505  85.184640
0.504  85.183655
0.503  85.149428
0.502  85.150722
0.501  85.120140
0.500  85.128503
0.499  85.097193
0.498  85.097752
0.497  85.067215
0.496  85.039374
0.495  85.039447
0.494  85.043006
0.493  85.004286
0.492  84.985818
0.491  84.968138
0.490  84.970540
0.489  84.931748
0.488  84.895556
0.487  84.876741
0.486  84.846949
0.485  84.820515
0.484  84.820909
0.483  84.767210
0.482  84.784443
0.481  84.780416
0.480  84.776207
0.479  84.780632
0.478  84.778110
0.477  84.767205
0.476  84.754804
0.475  84.753459
0.474  84.750915
0.473  84.742318
0.472  84.721040
0.471  84.718218
0.470  84.713837
0.469  84.711060
0.468  84.675626
0.467  84.672497
0.466  84.655852
0.465  84.665909
0.464  84.639493
0.463  84.653909
0.462  84.635617
0.461  84.626341
0.460  84.579469
0.459  84.594035
0.458  84.548102
0.457  84.536036
0.456  84.539034
0.455  84.508019
0.454  84.512313
0.453  84.494468
0.452  84.470690
0.451  84.423292
0.450  84.440685
0.449  84.402535
0.448  84.372043
0.447  84.391798
0.446  84.346186
0.445  84.321605
0.444  84.316989
0.443  84.310622
0.442  84.272094
0.441  84.295486
0.440  84.285770
0.439  84.254752
0.438  84.267079
0.437  84.247399
0.436  84.224842
0.435  84.221504
0.434  84.201108
0.433  84.206048
0.432  84.184217
0.431  84.178065
0.430  84.127730
0.429  84.136438
0.428  84.147977
0.427  84.102533
0.426  84.128051
0.425  84.087658
0.424  84.075315
0.423  84.066164
0.422  84.081809
0.421  84.042268
0.420  84.035535
0.419  84.042697
0.418  84.011703
0.417  84.016413
0.416  84.010096
0.415  83.968551
0.414  83.980793
0.413  83.989275
0.412  83.963997
0.411  83.944850
0.410  83.940079
0.409  83.919930
0.408  83.903727
0.407  83.906602
0.406  83.888685
0.405  83.890165
0.404  83.901249
0.403  83.855668
0.402  83.811615
0.401  83.853740
0.400  83.828023
