Name: Quartz Conglomerate
Type: Rock
Class: Sedimentary
Subclass:  Conglomerate 
Particle Size: Solid surface
Sample No.: Ward49.txt
Owner: JPL
Wavelength range:  VNIR SWIR IR
Origin: Ward's Collection of American Rocks.  Sample locality - near Olean, Cattaraugus County, New York.
Collected by:  Ward's Natural Science
Description: The rock is composed principally of sub-angular and rounded
pebbles of milky quartz of various size, cemented by a siliceous cement
which is usually coated with clay material.
Geologic age - Pennsylvanian.


Measurement: Hemispherical reflectance
First Column: X
Second Column: Y
X Units: Wavelength (micrometers)
Y Units: Reflectance (percent)
First X Value: 2.500
Last X Value: 0.400
Number of X Values: 2101
Additional information: None

2.500  47.623239
2.499  47.745269
2.498  47.422678
2.497  47.787058
2.496  47.435015
2.495  47.895914
2.494  47.825120
2.493  47.970415
2.492  47.763674
2.491  48.093768
2.490  47.913858
2.489  48.322851
2.488  47.940183
2.487  48.206533
2.486  48.108326
2.485  48.140046
2.484  48.292667
2.483  48.390410
2.482  48.329511
2.481  48.517696
2.480  48.467443
2.479  48.708331
2.478  48.463002
2.477  48.714491
2.476  48.739150
2.475  48.766631
2.474  48.843297
2.473  49.031173
2.472  48.990836
2.471  49.056260
2.470  49.138668
2.469  49.316431
2.468  49.300633
2.467  49.328210
2.466  49.466172
2.465  49.558231
2.464  49.567910
2.463  49.661950
2.462  49.607936
2.461  49.821801
2.460  49.717713
2.459  49.935338
2.458  49.918320
2.457  49.974851
2.456  50.087016
2.455  50.190208
2.454  50.098734
2.453  50.135254
2.452  50.327885
2.451  50.295254
2.450  50.302754
2.449  50.375663
2.448  50.468181
2.447  50.447081
2.446  50.583571
2.445  50.648545
2.444  50.686509
2.443  50.842226
2.442  50.832545
2.441  50.875379
2.440  50.926108
2.439  51.067113
2.438  51.136987
2.437  51.142158
2.436  51.201312
2.435  51.389664
2.434  51.474818
2.433  51.697293
2.432  51.591877
2.431  51.797616
2.430  51.859365
2.429  51.869344
2.428  51.952044
2.427  52.088527
2.426  52.129343
2.425  52.384666
2.424  52.351134
2.423  52.420315
2.422  52.528006
2.421  52.604755
2.420  52.656770
2.419  52.744829
2.418  52.783205
2.417  52.934730
2.416  52.999762
2.415  53.021086
2.414  53.074040
2.413  53.247486
2.412  53.289985
2.411  53.282620
2.410  53.370822
2.409  53.315029
2.408  53.444614
2.407  53.634406
2.406  53.617000
2.405  53.573809
2.404  53.672006
2.403  53.793908
2.402  53.723470
2.401  53.737824
2.400  53.727056
2.399  53.857420
2.398  53.789659
2.397  53.873409
2.396  53.841753
2.395  53.933442
2.394  53.943944
2.393  53.944951
2.392  53.995075
2.391  54.021813
2.390  54.040830
2.389  54.104243
2.388  54.105933
2.387  54.096519
2.386  54.052728
2.385  54.156975
2.384  54.197410
2.383  54.227943
2.382  54.344738
2.381  54.347254
2.380  54.384161
2.379  54.460135
2.378  54.553317
2.377  54.654637
2.376  54.608742
2.375  54.650533
2.374  54.790342
2.373  54.891583
2.372  54.963764
2.371  55.045273
2.370  55.085456
2.369  55.102436
2.368  55.172662
2.367  55.276408
2.366  55.297849
2.365  55.349154
2.364  55.435950
2.363  55.476250
2.362  55.449679
2.361  55.470507
2.360  55.570594
2.359  55.621445
2.358  55.675144
2.357  55.726892
2.356  55.720890
2.355  55.724563
2.354  55.802286
2.353  55.878110
2.352  55.949049
2.351  56.055665
2.350  56.081308
2.349  56.108358
2.348  56.103381
2.347  56.177422
2.346  56.257349
2.345  56.297221
2.344  56.369290
2.343  56.393309
2.342  56.493066
2.341  56.574370
2.340  56.566883
2.339  56.649178
2.338  56.774076
2.337  56.798297
2.336  56.850488
2.335  56.939717
2.334  56.996943
2.333  57.061483
2.332  57.109669
2.331  57.129117
2.330  57.218765
2.329  57.278616
2.328  57.291595
2.327  57.325383
2.326  57.423812
2.325  57.451315
2.324  57.516747
2.323  57.627544
2.322  57.689011
2.321  57.685145
2.320  57.777402
2.319  57.842939
2.318  57.851016
2.317  57.906834
2.316  57.982287
2.315  57.974883
2.314  58.042920
2.313  58.068924
2.312  58.118274
2.311  58.158197
2.310  58.208558
2.309  58.223702
2.308  58.315359
2.307  58.373646
2.306  58.394153
2.305  58.419900
2.304  58.500800
2.303  58.529220
2.302  58.626954
2.301  58.688438
2.300  58.746380
2.299  58.841421
2.298  58.912237
2.297  58.956987
2.296  58.991291
2.295  59.072678
2.294  59.185773
2.293  59.231065
2.292  59.290579
2.291  59.290622
2.290  59.482261
2.289  59.423745
2.288  59.582299
2.287  59.655828
2.286  59.760248
2.285  59.769789
2.284  59.823156
2.283  59.883306
2.282  59.958320
2.281  60.039367
2.280  60.069582
2.279  60.121836
2.278  60.199477
2.277  60.226604
2.276  60.212493
2.275  60.229100
2.274  60.271181
2.273  60.357788
2.272  60.385190
2.271  60.412388
2.270  60.416656
2.269  60.422642
2.268  60.414398
2.267  60.584588
2.266  60.600192
2.265  60.476404
2.264  60.548075
2.263  60.488842
2.262  60.959637
2.261  60.574869
2.260  60.600098
2.259  60.542942
2.258  60.567582
2.257  60.638249
2.256  60.622866
2.255  60.606691
2.254  60.702915
2.253  60.716354
2.252  60.809209
2.251  60.748965
2.250  60.705077
2.249  60.723269
2.248  60.805577
2.247  60.909976
2.246  60.894247
2.245  60.878648
2.244  60.834149
2.243  60.848791
2.242  60.982574
2.241  60.886810
2.240  60.898191
2.239  60.879638
2.238  60.908265
2.237  60.865623
2.236  60.877698
2.235  60.778858
2.234  60.731776
2.233  60.769619
2.232  60.766406
2.231  60.655258
2.230  60.640782
2.229  60.464748
2.228  60.422760
2.227  60.322888
2.226  60.244881
2.225  60.138144
2.224  59.994788
2.223  59.781149
2.222  59.678652
2.221  59.576643
2.220  59.422666
2.219  59.184947
2.218  59.125787
2.217  58.771927
2.216  58.563619
2.215  58.282062
2.214  58.069753
2.213  57.851388
2.212  57.705397
2.211  57.485721
2.210  57.455559
2.209  57.312518
2.208  57.340705
2.207  57.353480
2.206  57.409094
2.205  57.442555
2.204  57.722293
2.203  57.693840
2.202  57.974056
2.201  58.087414
2.200  58.301842
2.199  58.442812
2.198  58.677243
2.197  58.746731
2.196  59.019590
2.195  58.919476
2.194  59.016374
2.193  59.129975
2.192  59.251620
2.191  59.155748
2.190  59.237256
2.189  59.197873
2.188  59.314395
2.187  59.269162
2.186  59.301925
2.185  59.375997
2.184  59.430664
2.183  59.386672
2.182  59.591123
2.181  59.537187
2.180  59.595295
2.179  59.676133
2.178  59.725207
2.177  59.785229
2.176  59.928099
2.175  59.993852
2.174  60.073045
2.173  60.208836
2.172  60.351880
2.171  60.385568
2.170  60.535176
2.169  60.541049
2.168  60.780175
2.167  60.863680
2.166  60.972306
2.165  61.107518
2.164  61.278594
2.163  61.374742
2.162  61.519230
2.161  61.620447
2.160  61.736276
2.159  61.750118
2.158  61.863207
2.157  62.027340
2.156  62.105972
2.155  62.215040
2.154  62.446047
2.153  62.434776
2.152  62.557281
2.151  62.553578
2.150  62.725118
2.149  62.706347
2.148  62.781905
2.147  62.869972
2.146  62.982616
2.145  63.015080
2.144  63.092710
2.143  63.165184
2.142  63.254677
2.141  63.253795
2.140  63.336390
2.139  63.411307
2.138  63.399734
2.137  63.391398
2.136  63.443322
2.135  63.483637
2.134  63.525669
2.133  63.500610
2.132  63.493545
2.131  63.558185
2.130  63.546627
2.129  63.589081
2.128  63.618230
2.127  63.538609
2.126  63.562045
2.125  63.559581
2.124  63.537855
2.123  63.553280
2.122  63.483825
2.121  63.397701
2.120  63.368663
2.119  63.331298
2.118  63.297403
2.117  63.160513
2.116  63.125306
2.115  63.094621
2.114  63.109245
2.113  63.071211
2.112  63.025978
2.111  62.983488
2.110  63.024936
2.109  62.973270
2.108  62.972321
2.107  62.898934
2.106  62.902294
2.105  62.892768
2.104  62.856416
2.103  62.823187
2.102  62.785600
2.101  62.812951
2.100  62.765513
2.099  62.671372
2.098  62.724781
2.097  62.781946
2.096  62.801918
2.095  62.757687
2.094  62.698009
2.093  62.726915
2.092  62.719701
2.091  62.732957
2.090  62.774869
2.089  62.809188
2.088  62.783538
2.087  62.756671
2.086  62.711980
2.085  62.649810
2.084  62.682143
2.083  62.671572
2.082  62.711237
2.081  62.728508
2.080  62.700004
2.079  62.760347
2.078  62.714222
2.077  62.660806
2.076  62.666227
2.075  62.666837
2.074  62.650450
2.073  62.609773
2.072  62.544115
2.071  62.514792
2.070  62.562039
2.069  62.550550
2.068  62.504005
2.067  62.467874
2.066  62.496836
2.065  62.478826
2.064  62.423713
2.063  62.385313
2.062  62.370750
2.061  62.379585
2.060  62.392119
2.059  62.390749
2.058  62.284166
2.057  62.269185
2.056  62.249685
2.055  62.207431
2.054  62.126394
2.053  62.110583
2.052  62.171406
2.051  62.162119
2.050  62.077376
2.049  61.980124
2.048  61.951973
2.047  61.956517
2.046  61.959826
2.045  61.968713
2.044  61.937472
2.043  61.881932
2.042  61.755082
2.041  61.747367
2.040  61.714481
2.039  61.695794
2.038  61.656723
2.037  61.554852
2.036  61.475028
2.035  61.506022
2.034  61.444211
2.033  61.384183
2.032  61.382341
2.031  61.298604
2.030  61.241951
2.029  61.212091
2.028  61.082053
2.027  61.115729
2.026  61.082376
2.025  60.986278
2.024  60.847056
2.023  60.833074
2.022  60.769539
2.021  60.721333
2.020  60.656191
2.019  60.638028
2.018  60.510691
2.017  60.448265
2.016  60.418423
2.015  60.265790
2.014  60.202694
2.013  60.214489
2.012  60.116256
2.011  60.069135
2.010  59.956451
2.009  59.942448
2.008  59.818811
2.007  59.726349
2.006  59.668434
2.005  59.655590
2.004  59.530915
2.003  59.493084
2.002  59.322868
2.001  59.238641
2.000  59.192359
1.999  59.112757
1.998  59.037817
1.997  58.934311
1.996  58.906656
1.995  58.872873
1.994  58.802257
1.993  58.654177
1.992  58.439881
1.991  58.396299
1.990  58.304020
1.989  58.266087
1.988  58.169163
1.987  58.084000
1.986  57.948763
1.985  57.846149
1.984  57.745936
1.983  57.619840
1.982  57.521298
1.981  57.493587
1.980  57.369247
1.979  57.409804
1.978  57.204479
1.977  57.117030
1.976  57.004463
1.975  56.933160
1.974  56.813237
1.973  56.709266
1.972  56.606981
1.971  56.488618
1.970  56.334112
1.969  56.363210
1.968  56.239442
1.967  56.187028
1.966  56.063902
1.965  56.039579
1.964  55.871627
1.963  55.826447
1.962  55.673846
1.961  55.646908
1.960  55.529970
1.959  55.582029
1.958  55.432969
1.957  55.329720
1.956  55.281443
1.955  55.131064
1.954  55.077121
1.953  55.065279
1.952  54.877936
1.951  54.879322
1.950  54.796362
1.949  54.715052
1.948  54.642777
1.947  54.684214
1.946  54.477476
1.945  54.520991
1.944  54.412947
1.943  54.425227
1.942  54.275585
1.941  54.276035
1.940  54.211321
1.939  54.142333
1.938  54.165245
1.937  54.113267
1.936  54.158600
1.935  54.109627
1.934  54.176412
1.933  54.115230
1.932  54.020346
1.931  54.089372
1.930  54.112445
1.929  54.121546
1.928  54.199842
1.927  54.213900
1.926  54.070663
1.925  54.317462
1.924  54.119190
1.923  54.359737
1.922  54.292825
1.921  54.456468
1.920  54.319560
1.919  54.593500
1.918  54.607559
1.917  54.676140
1.916  54.787728
1.915  54.843907
1.914  55.048746
1.913  55.305626
1.912  55.257403
1.911  55.636787
1.910  55.603205
1.909  55.833965
1.908  56.070795
1.907  56.261817
1.906  56.426169
1.905  56.729815
1.904  56.929309
1.903  57.286198
1.902  57.511581
1.901  57.922329
1.900  58.213867
1.899  58.533517
1.898  58.818894
1.897  59.271945
1.896  59.589973
1.895  60.139532
1.894  60.452190
1.893  60.901126
1.892  61.252008
1.891  61.643181
1.890  62.112304
1.889  62.504752
1.888  62.915553
1.887  63.297653
1.886  63.579141
1.885  64.002294
1.884  64.315999
1.883  64.647477
1.882  64.991326
1.881  65.335983
1.880  65.624578
1.879  65.924961
1.878  66.201383
1.877  66.489753
1.876  66.614267
1.875  66.785710
1.874  66.978625
1.873  67.197401
1.872  67.274554
1.871  67.412591
1.870  67.577163
1.869  67.686067
1.868  67.838581
1.867  67.965607
1.866  68.207556
1.865  68.356396
1.864  68.516605
1.863  68.672914
1.862  68.657718
1.861  68.763535
1.860  68.903094
1.859  68.933296
1.858  68.984325
1.857  69.034332
1.856  69.074764
1.855  69.125705
1.854  69.215781
1.853  69.286862
1.852  69.232287
1.851  69.371155
1.850  69.439983
1.849  69.348235
1.848  69.296562
1.847  69.340421
1.846  69.296531
1.845  69.295035
1.844  69.349475
1.843  69.455765
1.842  69.519104
1.841  69.439671
1.840  69.446694
1.839  69.529308
1.838  69.450867
1.837  69.406875
1.836  69.440961
1.835  69.469622
1.834  69.528515
1.833  69.640108
1.832  69.600212
1.831  69.569422
1.830  69.548347
1.829  69.548654
1.828  69.492380
1.827  69.496019
1.826  69.522646
1.825  69.553166
1.824  69.597361
1.823  69.692856
1.822  69.694608
1.821  69.649127
1.820  69.619620
1.819  69.606358
1.818  69.661435
1.817  69.720191
1.816  69.617369
1.815  69.635432
1.814  69.686798
1.813  69.698411
1.812  69.741169
1.811  69.688283
1.810  69.636672
1.809  69.758478
1.808  69.738373
1.807  69.766520
1.806  69.727058
1.805  69.666932
1.804  69.692846
1.803  69.715122
1.802  69.697278
1.801  69.762232
1.800  69.735361
1.799  69.736328
1.798  69.751667
1.797  69.729844
1.796  69.770685
1.795  69.793637
1.794  69.785028
1.793  69.788495
1.792  69.801102
1.791  69.795588
1.790  69.804902
1.789  69.793384
1.788  69.832413
1.787  69.888796
1.786  69.850272
1.785  69.868049
1.784  69.862083
1.783  69.857340
1.782  69.902415
1.781  69.932122
1.780  69.954309
1.779  69.882970
1.778  69.934094
1.777  70.008994
1.776  69.906875
1.775  69.869621
1.774  69.940113
1.773  69.972097
1.772  69.988139
1.771  69.918855
1.770  69.924180
1.769  70.000119
1.768  70.055864
1.767  70.053152
1.766  70.041218
1.765  70.080889
1.764  70.133920
1.763  70.112019
1.762  70.100865
1.761  70.082948
1.760  70.109753
1.759  70.131303
1.758  70.165133
1.757  70.212425
1.756  70.208976
1.755  70.173996
1.754  70.239621
1.753  70.295972
1.752  70.341235
1.751  70.287476
1.750  70.309469
1.749  70.303841
1.748  70.327502
1.747  70.262734
1.746  70.346754
1.745  70.403975
1.744  70.348461
1.743  70.371718
1.742  70.473214
1.741  70.486816
1.740  70.415790
1.739  70.442122
1.738  70.497123
1.737  70.503327
1.736  70.514732
1.735  70.444216
1.734  70.483334
1.733  70.487216
1.732  70.572894
1.731  70.608661
1.730  70.572152
1.729  70.598312
1.728  70.616145
1.727  70.580134
1.726  70.604322
1.725  70.624162
1.724  70.604768
1.723  70.674474
1.722  70.704038
1.721  70.684407
1.720  70.748787
1.719  70.652548
1.718  70.718872
1.717  70.671422
1.716  70.711229
1.715  70.678148
1.714  70.774649
1.713  70.833807
1.712  70.749291
1.711  70.767994
1.710  70.788991
1.709  70.696620
1.708  70.800473
1.707  70.786120
1.706  70.797521
1.705  70.747204
1.704  70.749345
1.703  70.686565
1.702  70.723747
1.701  70.741745
1.700  70.223424
1.699  70.572638
1.698  70.866562
1.697  70.854885
1.696  70.904846
1.695  70.785663
1.694  70.778160
1.693  70.752432
1.692  70.806270
1.691  70.841872
1.690  70.880637
1.689  70.738124
1.688  70.753747
1.687  70.771544
1.686  70.813395
1.685  70.823697
1.684  70.865799
1.683  70.879690
1.682  70.790522
1.681  70.764853
1.680  70.825983
1.679  70.889348
1.678  70.892394
1.677  70.871483
1.676  70.865637
1.675  70.840270
1.674  70.860095
1.673  70.882545
1.672  70.796230
1.671  70.900973
1.670  70.911837
1.669  70.839854
1.668  70.870879
1.667  70.957779
1.666  70.897065
1.665  70.845467
1.664  70.832371
1.663  70.867461
1.662  70.814797
1.661  70.865589
1.660  70.896614
1.659  70.908565
1.658  70.888784
1.657  70.855107
1.656  70.914479
1.655  70.892060
1.654  70.914223
1.653  70.774667
1.652  70.954320
1.651  71.045326
1.650  70.927241
1.649  70.808769
1.648  70.901800
1.647  70.811433
1.646  70.819629
1.645  70.854789
1.644  70.915446
1.643  70.799645
1.642  70.927781
1.641  70.815648
1.640  70.904122
1.639  71.028758
1.638  70.894689
1.637  70.814910
1.636  70.915410
1.635  70.872415
1.634  70.823139
1.633  70.913432
1.632  70.887116
1.631  70.816841
1.630  70.830499
1.629  70.835097
1.628  70.775817
1.627  70.793325
1.626  70.829512
1.625  70.808682
1.624  70.842314
1.623  70.867248
1.622  70.847579
1.621  70.806040
1.620  70.909303
1.619  70.846750
1.618  70.890114
1.617  70.844633
1.616  70.867122
1.615  70.748691
1.614  70.878501
1.613  70.832106
1.612  70.877671
1.611  70.834421
1.610  70.832988
1.609  70.786308
1.608  70.740965
1.607  70.785917
1.606  70.779756
1.605  70.765678
1.604  70.829298
1.603  70.776155
1.602  70.790673
1.601  70.805504
1.600  70.804501
1.599  70.723160
1.598  70.710148
1.597  70.684467
1.596  70.790334
1.595  70.665453
1.594  70.688011
1.593  70.685353
1.592  70.699083
1.591  70.602511
1.590  70.686474
1.589  70.589549
1.588  70.666346
1.587  70.551689
1.586  70.603508
1.585  70.560933
1.584  70.569901
1.583  70.535647
1.582  70.558241
1.581  70.586658
1.580  70.577959
1.579  70.531380
1.578  70.485713
1.577  70.486375
1.576  70.480407
1.575  70.447033
1.574  70.464407
1.573  70.389926
1.572  70.418043
1.571  70.425739
1.570  70.430538
1.569  70.435937
1.568  70.426097
1.567  70.333166
1.566  70.314748
1.565  70.236722
1.564  70.329497
1.563  70.330139
1.562  70.362567
1.561  70.293371
1.560  70.279478
1.559  70.209386
1.558  70.223546
1.557  70.114067
1.556  70.204929
1.555  70.122206
1.554  70.166099
1.553  70.100544
1.552  70.077496
1.551  70.087456
1.550  70.115462
1.549  70.045685
1.548  69.977732
1.547  69.957217
1.546  69.951286
1.545  69.936303
1.544  69.929836
1.543  69.921554
1.542  69.946486
1.541  69.852479
1.540  69.826025
1.539  69.834589
1.538  69.831379
1.537  69.781161
1.536  69.767887
1.535  69.684117
1.534  69.618308
1.533  69.551690
1.532  69.557893
1.531  69.582188
1.530  69.569102
1.529  69.530088
1.528  69.453107
1.527  69.422521
1.526  69.461629
1.525  69.434460
1.524  69.419694
1.523  69.359878
1.522  69.264874
1.521  69.230642
1.520  69.185879
1.519  69.123048
1.518  69.115684
1.517  69.140389
1.516  69.097745
1.515  69.078809
1.514  69.081091
1.513  69.053213
1.512  68.965472
1.511  68.912478
1.510  68.890415
1.509  68.840052
1.508  68.792649
1.507  68.764830
1.506  68.730720
1.505  68.692567
1.504  68.668139
1.503  68.616313
1.502  68.551252
1.501  68.498676
1.500  68.484707
1.499  68.437101
1.498  68.422365
1.497  68.335466
1.496  68.259325
1.495  68.230779
1.494  68.215342
1.493  68.271789
1.492  68.234540
1.491  68.163792
1.490  68.115293
1.489  68.042831
1.488  67.950495
1.487  67.926646
1.486  67.901295
1.485  67.891907
1.484  67.862092
1.483  67.806266
1.482  67.771083
1.481  67.710865
1.480  67.655654
1.479  67.638387
1.478  67.587160
1.477  67.601995
1.476  67.529311
1.475  67.481568
1.474  67.395744
1.473  67.356184
1.472  67.377861
1.471  67.447451
1.470  67.365907
1.469  67.271610
1.468  67.234245
1.467  67.259786
1.466  67.176831
1.465  67.183129
1.464  67.193980
1.463  67.120531
1.462  67.078688
1.461  67.136783
1.460  67.088167
1.459  67.005411
1.458  66.952277
1.457  67.014396
1.456  66.980366
1.455  66.947806
1.454  67.007143
1.453  67.003283
1.452  67.013895
1.451  66.986179
1.450  66.901355
1.449  66.976221
1.448  66.983134
1.447  66.951482
1.446  66.927423
1.445  66.961726
1.444  66.898673
1.443  66.914012
1.442  66.946820
1.441  66.926607
1.440  66.930300
1.439  66.964745
1.438  66.927253
1.437  66.904169
1.436  66.880431
1.435  66.789442
1.434  66.809391
1.433  66.848389
1.432  66.852158
1.431  66.804210
1.430  66.670386
1.429  66.732652
1.428  66.588524
1.427  66.524032
1.426  66.437179
1.425  66.331597
1.424  66.201098
1.423  66.087182
1.422  65.886455
1.421  65.607401
1.420  65.362381
1.419  64.989523
1.418  64.512543
1.417  64.106529
1.416  63.736158
1.415  63.669461
1.414  63.970314
1.413  64.427944
1.412  64.917162
1.411  65.366914
1.410  65.704210
1.409  65.925259
1.408  66.129472
1.407  66.331373
1.406  66.487967
1.405  66.643846
1.404  66.739813
1.403  67.042113
1.402  67.147482
1.401  67.363647
1.400  67.452746
1.399  67.630810
1.398  67.859091
1.397  68.100414
1.396  68.086990
1.395  68.215780
1.394  68.339959
1.393  68.410907
1.392  68.557499
1.391  68.778638
1.390  68.773441
1.389  68.875174
1.388  68.903297
1.387  68.860115
1.386  68.944461
1.385  68.997317
1.384  68.887816
1.383  68.822036
1.382  68.758743
1.381  68.867747
1.380  68.960902
1.379  69.200232
1.378  69.360007
1.377  69.635132
1.376  69.767067
1.375  69.945390
1.374  70.085358
1.373  70.169813
1.372  70.173380
1.371  70.306033
1.370  70.363950
1.369  70.486449
1.368  70.518015
1.367  70.464219
1.366  70.475078
1.365  70.592998
1.364  70.488579
1.363  70.599078
1.362  70.471972
1.361  70.381257
1.360  70.408484
1.359  70.480172
1.358  70.515008
1.357  70.553108
1.356  70.748521
1.355  70.629698
1.354  70.656009
1.353  70.756151
1.352  70.784491
1.351  70.902251
1.350  70.849509
1.349  70.975745
1.348  70.862343
1.347  71.022617
1.346  70.849137
1.345  70.893104
1.344  70.945304
1.343  70.924257
1.342  70.994155
1.341  70.898520
1.340  70.914380
1.339  70.999188
1.338  70.981809
1.337  70.985430
1.336  71.081579
1.335  71.034912
1.334  70.913242
1.333  71.083315
1.332  70.987501
1.331  71.036106
1.330  70.954591
1.329  70.983111
1.328  71.023821
1.327  71.039030
1.326  71.000940
1.325  71.088373
1.324  71.069191
1.323  71.066140
1.322  71.021076
1.321  71.038633
1.320  71.067713
1.319  71.058316
1.318  71.038154
1.317  71.161352
1.316  71.161634
1.315  71.104513
1.314  71.023716
1.313  71.035838
1.312  70.987799
1.311  71.032774
1.310  70.998553
1.309  71.059197
1.308  71.057786
1.307  71.061266
1.306  71.009786
1.305  71.070820
1.304  71.109620
1.303  71.113416
1.302  71.097312
1.301  71.145276
1.300  71.018541
1.299  71.096598
1.298  71.056041
1.297  71.078006
1.296  71.054552
1.295  71.124362
1.294  71.050722
1.293  71.154632
1.292  71.089972
1.291  71.208516
1.290  71.200731
1.289  71.123172
1.288  70.993207
1.287  71.102846
1.286  71.162714
1.285  71.171554
1.284  71.106577
1.283  71.095382
1.282  71.171623
1.281  71.175795
1.280  71.171935
1.279  71.196903
1.278  71.183897
1.277  71.198490
1.276  71.183245
1.275  71.143061
1.274  71.052026
1.273  71.060670
1.272  71.002271
1.271  71.070938
1.270  71.131545
1.269  71.130036
1.268  71.059095
1.267  71.139988
1.266  71.075386
1.265  71.061917
1.264  71.055723
1.263  71.003404
1.262  70.974992
1.261  70.983627
1.260  70.990812
1.259  70.980806
1.258  70.897882
1.257  70.922307
1.256  70.899091
1.255  70.941825
1.254  70.909473
1.253  70.933051
1.252  70.888633
1.251  70.850167
1.250  70.847828
1.249  70.890931
1.248  70.851045
1.247  70.806570
1.246  70.795752
1.245  70.757096
1.244  70.739355
1.243  70.804455
1.242  70.756923
1.241  70.741317
1.240  70.752177
1.239  70.771141
1.238  70.741887
1.237  70.695362
1.236  70.665931
1.235  70.679722
1.234  70.703248
1.233  70.744982
1.232  70.689984
1.231  70.703378
1.230  70.680769
1.229  70.674713
1.228  70.663949
1.227  70.593415
1.226  70.580120
1.225  70.619394
1.224  70.645783
1.223  70.640827
1.222  70.616012
1.221  70.599420
1.220  70.575367
1.219  70.599257
1.218  70.565075
1.217  70.523530
1.216  70.553993
1.215  70.521770
1.214  70.490251
1.213  70.516017
1.212  70.482022
1.211  70.448997
1.210  70.438642
1.209  70.407610
1.208  70.403208
1.207  70.409981
1.206  70.428505
1.205  70.415639
1.204  70.413015
1.203  70.421241
1.202  70.362580
1.201  70.278016
1.200  70.258738
1.199  70.276808
1.198  70.261711
1.197  70.168668
1.196  70.216185
1.195  70.287918
1.194  70.259384
1.193  70.234403
1.192  70.274195
1.191  70.218630
1.190  70.222180
1.189  70.130877
1.188  70.058442
1.187  70.131856
1.186  70.179011
1.185  70.110258
1.184  70.023787
1.183  70.059836
1.182  70.089269
1.181  70.070741
1.180  70.065238
1.179  70.012669
1.178  70.024581
1.177  69.950191
1.176  69.934904
1.175  69.898387
1.174  69.934967
1.173  69.964215
1.172  69.924726
1.171  69.870991
1.170  69.846021
1.169  69.821637
1.168  69.898887
1.167  69.882499
1.166  69.854178
1.165  69.801813
1.164  69.798709
1.163  69.760453
1.162  69.748475
1.161  69.688899
1.160  69.734405
1.159  69.722021
1.158  69.716073
1.157  69.679975
1.156  69.708147
1.155  69.654644
1.154  69.644395
1.153  69.584882
1.152  69.673212
1.151  69.647929
1.150  69.651841
1.149  69.559640
1.148  69.563116
1.147  69.566717
1.146  69.538932
1.145  69.509226
1.144  69.558442
1.143  69.538521
1.142  69.498097
1.141  69.487034
1.140  69.537326
1.139  69.488394
1.138  69.463975
1.137  69.401677
1.136  69.448384
1.135  69.361031
1.134  69.343725
1.133  69.330672
1.132  69.284708
1.131  69.225026
1.130  69.359919
1.129  69.251592
1.128  69.268760
1.127  69.229284
1.126  69.247267
1.125  69.132644
1.124  69.195807
1.123  69.144529
1.122  69.156386
1.121  69.090815
1.120  69.070659
1.119  69.087835
1.118  69.084177
1.117  69.008002
1.116  69.041925
1.115  68.958321
1.114  68.961856
1.113  68.967289
1.112  68.927951
1.111  68.918440
1.110  68.918294
1.109  68.798929
1.108  68.883482
1.107  68.800397
1.106  68.827924
1.105  68.757602
1.104  68.671549
1.103  68.740181
1.102  68.686910
1.101  68.629354
1.100  68.710478
1.099  68.606160
1.098  68.710885
1.097  68.582364
1.096  68.686369
1.095  68.584909
1.094  68.534261
1.093  68.495880
1.092  68.479018
1.091  68.474401
1.090  68.548947
1.089  68.447552
1.088  68.446229
1.087  68.337835
1.086  68.356762
1.085  68.379378
1.084  68.360851
1.083  68.240996
1.082  68.242105
1.081  68.121841
1.080  68.265577
1.079  68.264147
1.078  68.225434
1.077  68.220534
1.076  68.183737
1.075  68.106009
1.074  68.116838
1.073  67.998528
1.072  68.027365
1.071  68.095571
1.070  68.036009
1.069  68.009513
1.068  67.861823
1.067  67.923749
1.066  67.877923
1.065  67.797931
1.064  67.825576
1.063  67.785794
1.062  67.781707
1.061  67.761231
1.060  67.787753
1.059  67.786177
1.058  67.760074
1.057  67.546608
1.056  67.669235
1.055  67.527643
1.054  67.574693
1.053  67.499555
1.052  67.529288
1.051  67.463445
1.050  67.457094
1.049  67.307101
1.048  67.452953
1.047  67.406708
1.046  67.425763
1.045  67.276586
1.044  67.338486
1.043  67.341590
1.042  67.324209
1.041  67.244856
1.040  67.215584
1.039  67.161257
1.038  67.152060
1.037  67.044758
1.036  67.114364
1.035  67.075215
1.034  67.073495
1.033  66.905527
1.032  67.003715
1.031  66.925661
1.030  66.986383
1.029  66.898278
1.028  66.894081
1.027  66.723229
1.026  66.780007
1.025  66.786275
1.024  66.763699
1.023  66.732348
1.022  66.718982
1.021  66.640982
1.020  66.632620
1.019  66.551412
1.018  66.540749
1.017  66.572329
1.016  66.513529
1.015  66.435378
1.014  66.514210
1.013  66.411404
1.012  66.445274
1.011  66.387027
1.010  66.292213
1.009  66.299838
1.008  66.307736
1.007  66.232939
1.006  66.229235
1.005  66.210897
1.004  66.204496
1.003  66.152852
1.002  66.120175
1.001  66.068258
1.000  66.044093
0.999  65.985915
0.998  65.968472
0.997  65.901957
0.996  65.935397
0.995  65.863254
0.994  65.878863
0.993  65.792370
0.992  65.785222
0.991  65.749060
0.990  65.724629
0.989  65.722701
0.988  65.608345
0.987  65.566285
0.986  65.627380
0.985  65.548824
0.984  65.527007
0.983  65.458976
0.982  65.421856
0.981  65.363139
0.980  65.350893
0.979  65.269459
0.978  65.327768
0.977  65.255959
0.976  65.278655
0.975  65.141938
0.974  65.139652
0.973  65.156666
0.972  65.142175
0.971  65.081111
0.970  65.025188
0.969  64.946411
0.968  64.997001
0.967  64.933411
0.966  64.971725
0.965  64.920088
0.964  64.835410
0.963  64.837250
0.962  64.901370
0.961  64.832364
0.960  64.807075
0.959  64.835358
0.958  64.835744
0.957  64.751715
0.956  64.675035
0.955  64.688581
0.954  64.600666
0.953  64.530341
0.952  64.586789
0.951  64.537891
0.950  64.531179
0.949  64.493373
0.948  64.466641
0.947  64.445288
0.946  64.447705
0.945  64.420940
0.944  64.354722
0.943  64.277591
0.942  64.328041
0.941  64.325683
0.940  64.290909
0.939  64.279059
0.938  64.237450
0.937  64.275784
0.936  64.194451
0.935  64.109937
0.934  64.128104
0.933  64.115064
0.932  64.143408
0.931  64.105054
0.930  64.016312
0.929  64.002814
0.928  63.990956
0.927  63.908221
0.926  63.897641
0.925  63.912190
0.924  63.892712
0.923  63.882772
0.922  63.890541
0.921  63.896046
0.920  63.809459
0.919  63.772061
0.918  63.691086
0.917  63.676542
0.916  63.694783
0.915  63.681065
0.914  63.636047
0.913  63.621569
0.912  63.675674
0.911  63.620509
0.910  63.512328
0.909  63.491688
0.908  63.453814
0.907  63.450088
0.906  63.466024
0.905  63.452716
0.904  63.402576
0.903  63.415558
0.902  63.381693
0.901  63.383926
0.900  63.327540
0.899  63.285637
0.898  63.346292
0.897  63.312407
0.896  63.229373
0.895  63.241381
0.894  63.206808
0.893  63.207877
0.892  63.210846
0.891  63.199486
0.890  63.142410
0.889  63.178290
0.888  63.152429
0.887  63.068680
0.886  63.027974
0.885  63.063764
0.884  63.024211
0.883  63.035317
0.882  63.021223
0.881  63.001841
0.880  62.989963
0.879  62.948602
0.878  62.920918
0.877  62.974577
0.876  62.932181
0.875  62.952806
0.874  62.923827
0.873  62.902592
0.872  62.834200
0.871  62.866050
0.870  62.813952
0.869  62.903203
0.868  62.871571
0.867  62.804964
0.866  62.793184
0.865  62.848651
0.864  62.799729
0.863  62.805155
0.862  62.754186
0.861  62.789922
0.860  62.449463
0.859  62.386594
0.858  62.382199
0.857  62.348583
0.856  62.316729
0.855  62.334963
0.854  62.344532
0.853  62.341989
0.852  62.290539
0.851  62.287035
0.850  62.240735
0.849  62.265789
0.848  62.252939
0.847  62.174225
0.846  62.246755
0.845  62.250480
0.844  62.202592
0.843  62.175990
0.842  62.250368
0.841  62.246354
0.840  62.188870
0.839  62.190301
0.838  62.176970
0.837  62.155769
0.836  62.140501
0.835  62.151800
0.834  62.126821
0.833  62.133897
0.832  62.089665
0.831  62.117738
0.830  62.049007
0.829  62.044409
0.828  62.004289
0.827  62.035839
0.826  62.059312
0.825  62.036648
0.824  61.976045
0.823  61.947351
0.822  61.964530
0.821  61.919466
0.820  61.918054
0.819  61.906487
0.818  61.900659
0.817  61.840374
0.816  61.817852
0.815  61.750521
0.814  61.774443
0.813  61.792290
0.812  61.758478
0.811  61.690075
0.810  61.673548
0.809  61.654116
0.808  61.632045
0.807  61.610037
0.806  61.626835
0.805  61.557685
0.804  61.500831
0.803  61.503585
0.802  61.476497
0.801  61.469130
0.800  61.434000
0.799  61.392268
0.798  61.325871
0.797  61.290164
0.796  61.281070
0.795  61.196306
0.794  61.239009
0.793  61.145987
0.792  61.132981
0.791  61.096150
0.790  61.046236
0.789  61.017954
0.788  60.967091
0.787  60.966030
0.786  60.947330
0.785  60.893904
0.784  60.851350
0.783  60.839826
0.782  60.792675
0.781  60.733765
0.780  60.718672
0.779  60.685667
0.778  60.666538
0.777  60.622217
0.776  60.532551
0.775  60.527826
0.774  60.506932
0.773  60.455856
0.772  60.395977
0.771  60.363099
0.770  60.318339
0.769  60.291080
0.768  60.276827
0.767  60.241960
0.766  60.200152
0.765  60.170239
0.764  60.134095
0.763  60.087979
0.762  60.032249
0.761  60.004938
0.760  59.953531
0.759  59.923325
0.758  59.868522
0.757  59.824219
0.756  59.774916
0.755  59.742794
0.754  59.729162
0.753  59.649167
0.752  59.618508
0.751  59.573205
0.750  59.523450
0.749  59.464827
0.748  59.430928
0.747  59.388275
0.746  59.358006
0.745  59.318860
0.744  59.263483
0.743  59.207634
0.742  59.191555
0.741  59.118173
0.740  59.076204
0.739  59.049248
0.738  59.006079
0.737  58.960164
0.736  58.896134
0.735  58.858817
0.734  58.813550
0.733  58.781883
0.732  58.741149
0.731  58.680745
0.730  58.648253
0.729  58.589212
0.728  58.526390
0.727  58.495605
0.726  58.456971
0.725  58.392615
0.724  58.356769
0.723  58.322374
0.722  58.255693
0.721  58.198141
0.720  58.148611
0.719  58.105468
0.718  58.065812
0.717  58.002442
0.716  57.963359
0.715  57.923065
0.714  57.872814
0.713  57.827331
0.712  57.778979
0.711  57.712439
0.710  57.668831
0.709  57.598978
0.708  57.570226
0.707  57.522714
0.706  57.488846
0.705  57.438227
0.704  57.393384
0.703  57.353032
0.702  57.302754
0.701  57.250747
0.700  57.198060
0.699  57.146137
0.698  57.086721
0.697  57.041225
0.696  57.004712
0.695  56.944596
0.694  56.895490
0.693  56.851925
0.692  56.796752
0.691  56.762919
0.690  56.718421
0.689  56.660791
0.688  56.608301
0.687  56.559462
0.686  56.516184
0.685  56.457442
0.684  56.415755
0.683  56.378141
0.682  56.344159
0.681  56.299970
0.680  56.249437
0.679  56.185567
0.678  56.141032
0.677  56.100985
0.676  56.056076
0.675  56.018607
0.674  55.964643
0.673  55.913753
0.672  55.867959
0.671  55.821344
0.670  55.759719
0.669  55.717400
0.668  55.687595
0.667  55.646282
0.666  55.587575
0.665  55.532672
0.664  55.505059
0.663  55.472856
0.662  55.420907
0.661  55.366479
0.660  55.335303
0.659  55.299150
0.658  55.238722
0.657  55.187250
0.656  55.149254
0.655  55.104894
0.654  55.051003
0.653  55.007597
0.652  54.963806
0.651  54.915986
0.650  54.872244
0.649  54.833802
0.648  54.795112
0.647  54.738788
0.646  54.692501
0.645  54.643490
0.644  54.590077
0.643  54.554860
0.642  54.505993
0.641  54.453075
0.640  54.404473
0.639  54.351108
0.638  54.308877
0.637  54.251058
0.636  54.187701
0.635  54.142344
0.634  54.098022
0.633  54.058364
0.632  54.022179
0.631  53.967830
0.630  53.906853
0.629  53.852010
0.628  53.797998
0.627  53.742514
0.626  53.687042
0.625  53.634432
0.624  53.577824
0.623  53.513561
0.622  53.450933
0.621  53.393120
0.620  53.332625
0.619  53.274204
0.618  53.212877
0.617  53.142669
0.616  53.086091
0.615  53.030723
0.614  52.966615
0.613  52.896751
0.612  52.828780
0.611  52.757575
0.610  52.686235
0.609  52.603625
0.608  52.531690
0.607  52.455643
0.606  52.368199
0.605  52.286431
0.604  52.205263
0.603  52.120606
0.602  52.037101
0.601  51.947163
0.600  51.860592
0.599  51.780150
0.598  51.700938
0.597  51.608640
0.596  51.520381
0.595  51.428943
0.594  51.327092
0.593  51.214910
0.592  51.103085
0.591  50.990107
0.590  50.874766
0.589  50.763618
0.588  50.646900
0.587  50.516243
0.586  50.393910
0.585  50.268644
0.584  50.150955
0.583  50.012997
0.582  49.878051
0.581  49.758258
0.580  49.626091
0.579  49.484848
0.578  49.343927
0.577  49.192647
0.576  49.050464
0.575  48.915030
0.574  48.768009
0.573  48.619324
0.572  48.483294
0.571  48.339145
0.570  48.186971
0.569  48.041634
0.568  47.901189
0.567  47.744432
0.566  47.590707
0.565  47.440840
0.564  47.287422
0.563  47.137347
0.562  46.976714
0.561  46.767709
0.560  46.582186
0.559  46.415585
0.558  46.242738
0.557  46.068718
0.556  45.904635
0.555  45.744019
0.554  45.562091
0.553  45.383056
0.552  45.208428
0.551  45.036230
0.550  44.858532
0.549  44.671245
0.548  44.497267
0.547  44.320002
0.546  44.133480
0.545  43.944647
0.544  43.761859
0.543  43.577111
0.542  43.385924
0.541  43.211453
0.540  43.025482
0.539  42.843360
0.538  42.655179
0.537  42.478258
0.536  42.285571
0.535  42.100457
0.534  41.913598
0.533  41.727069
0.532  41.543471
0.531  41.365093
0.530  41.172442
0.529  40.989766
0.528  40.820778
0.527  40.649720
0.526  40.459967
0.525  40.284249
0.524  40.106884
0.523  39.929710
0.522  39.753357
0.521  39.582008
0.520  39.420999
0.519  39.241737
0.518  39.068075
0.517  38.890728
0.516  38.730575
0.515  38.558698
0.514  38.388833
0.513  38.217070
0.512  38.060131
0.511  37.894278
0.510  37.727980
0.509  37.571025
0.508  37.395178
0.507  37.247095
0.506  37.085149
0.505  36.927073
0.504  36.744564
0.503  36.593359
0.502  36.434035
0.501  36.278590
0.500  36.124418
0.499  35.958773
0.498  35.800522
0.497  35.682778
0.496  35.522100
0.495  35.379051
0.494  35.230653
0.493  35.089549
0.492  34.933414
0.491  34.788965
0.490  34.658403
0.489  34.506338
0.488  34.371246
0.487  34.229173
0.486  34.112340
0.485  33.984338
0.484  33.873158
0.483  33.780112
0.482  33.675065
0.481  33.588343
0.480  33.514439
0.479  33.449952
0.478  33.405014
0.477  33.367790
0.476  33.320720
0.475  33.262939
0.474  33.197309
0.473  33.131768
0.472  33.070966
0.471  33.004845
0.470  32.952915
0.469  32.898406
0.468  32.863120
0.467  32.803239
0.466  32.744042
0.465  32.680017
0.464  32.613752
0.463  32.549502
0.462  32.470635
0.461  32.411983
0.460  32.319405
0.459  32.242926
0.458  32.160642
0.457  32.097799
0.456  32.001434
0.455  31.917779
0.454  31.815514
0.453  31.715619
0.452  31.607034
0.451  31.506398
0.450  31.392831
0.449  31.277326
0.448  31.156471
0.447  31.025231
0.446  30.900195
0.445  30.763733
0.444  30.612334
0.443  30.457816
0.442  30.311910
0.441  30.175248
0.440  30.027429
0.439  29.870803
0.438  29.711763
0.437  29.549945
0.436  29.389472
0.435  29.233309
0.434  29.062393
0.433  28.885804
0.432  28.733363
0.431  28.574112
0.430  28.413741
0.429  28.265593
0.428  28.100698
0.427  27.946317
0.426  27.796666
0.425  27.651070
0.424  27.507755
0.423  27.377057
0.422  27.229868
0.421  27.097347
0.420  26.967132
0.419  26.833648
0.418  26.713810
0.417  26.574498
0.416  26.455778
0.415  26.332415
0.414  26.212240
0.413  26.099439
0.412  25.973829
0.411  25.856322
0.410  25.743097
0.409  25.621026
0.408  25.515330
0.407  25.405566
0.406  25.290387
0.405  25.176623
0.404  25.061083
0.403  24.950028
0.402  24.839713
0.401  24.717416
0.400  24.607266
