Name: Aplite
Type: Rock
Class: Igneous
Subclass:  Felsic 
Particle Size: Solid surface
Sample No.: Ward16.txt
Owner: JPL
Wavelength range:  VNIR SWIR IR 
Origin: Ward's Collection of American Rocks.  Sample locality - Boulder County, Colorado.
Collected by:  Ward's Natural Science
Description: A fine-grained pink rock composed of quartz, glassy feldspar
and biotite.  The hand specimen occasionally has irregular stringers and
patches of coarser grain.
Geologic age - Pre-Cambrian.


Measurement: Hemispherical reflectance
First Column: X
Second Column: Y
X Units: Wavelength (micrometers)
Y Units: Reflectance (percent)
First X Value: 2.500
Last X Value: 0.400
Number of X Values: 2101
Additional information: None

2.500  20.713131
2.499  20.902239
2.498  20.807929
2.497  20.910607
2.496  20.606355
2.495  20.911880
2.494  20.920717
2.493  20.801850
2.492  20.757628
2.491  20.909030
2.490  20.698803
2.489  21.182768
2.488  20.731874
2.487  21.126076
2.486  20.968960
2.485  20.985796
2.484  20.906731
2.483  21.177662
2.482  20.995349
2.481  21.155929
2.480  21.161070
2.479  21.058166
2.478  20.983758
2.477  21.106276
2.476  21.009158
2.475  21.175365
2.474  21.034369
2.473  21.341045
2.472  21.018626
2.471  21.293526
2.470  21.144681
2.469  21.297927
2.468  21.178141
2.467  21.353370
2.466  21.376517
2.465  21.330589
2.464  21.225443
2.463  21.462397
2.462  21.224875
2.461  21.242008
2.460  21.231233
2.459  21.269432
2.458  21.302566
2.457  21.290514
2.456  21.236478
2.455  21.234505
2.454  21.155861
2.453  21.299644
2.452  21.153928
2.451  21.354730
2.450  21.183540
2.449  21.341005
2.448  21.157052
2.447  21.341182
2.446  21.198374
2.445  21.261102
2.444  21.125436
2.443  21.292185
2.442  21.279651
2.441  21.278697
2.440  21.268250
2.439  21.366321
2.438  21.326657
2.437  21.380029
2.436  21.389011
2.435  21.532578
2.434  21.353535
2.433  21.558925
2.432  21.442959
2.431  21.579758
2.430  21.590835
2.429  21.701570
2.428  21.678438
2.427  21.794537
2.426  21.760252
2.425  21.863102
2.424  21.858004
2.423  21.881342
2.422  21.886403
2.421  22.069764
2.420  22.003340
2.419  22.074507
2.418  22.036482
2.417  22.201887
2.416  22.198901
2.415  22.299942
2.414  22.303894
2.413  22.403828
2.412  22.402259
2.411  22.438898
2.410  22.399194
2.409  22.567280
2.408  22.541719
2.407  22.603883
2.406  22.644844
2.405  22.745329
2.404  22.697151
2.403  22.725273
2.402  22.769663
2.401  22.881001
2.400  22.900212
2.399  22.907430
2.398  22.815449
2.397  22.929573
2.396  22.906598
2.395  22.978754
2.394  23.022744
2.393  22.989763
2.392  22.950351
2.391  23.032936
2.390  23.016587
2.389  23.072036
2.388  23.008675
2.387  23.015541
2.386  23.095436
2.385  23.170653
2.384  23.090875
2.383  23.148157
2.382  23.119832
2.381  23.135834
2.380  23.157781
2.379  23.200491
2.378  23.207474
2.377  23.213290
2.376  23.202132
2.375  23.313102
2.374  23.321726
2.373  23.331485
2.372  23.320360
2.371  23.390479
2.370  23.409908
2.369  23.417975
2.368  23.405090
2.367  23.438546
2.366  23.496047
2.365  23.498055
2.364  23.489154
2.363  23.534190
2.362  23.532968
2.361  23.571034
2.360  23.560807
2.359  23.513914
2.358  23.505785
2.357  23.557359
2.356  23.550084
2.355  23.531358
2.354  23.553161
2.353  23.559327
2.352  23.550637
2.351  23.548748
2.350  23.622890
2.349  23.629817
2.348  23.629395
2.347  23.629159
2.346  23.661534
2.345  23.654660
2.344  23.662923
2.343  23.728946
2.342  23.763023
2.341  23.715288
2.340  23.810977
2.339  23.892502
2.338  23.940536
2.337  23.951930
2.336  24.031604
2.335  24.088565
2.334  24.080566
2.333  24.108477
2.332  24.185510
2.331  24.179379
2.330  24.287939
2.329  24.280811
2.328  24.335177
2.327  24.381760
2.326  24.444759
2.325  24.459667
2.324  24.549162
2.323  24.575171
2.322  24.592327
2.321  24.610669
2.320  24.691109
2.319  24.762437
2.318  24.873444
2.317  24.839541
2.316  24.921587
2.315  24.874812
2.314  24.971424
2.313  25.036696
2.312  25.101467
2.311  25.121195
2.310  25.139896
2.309  25.164963
2.308  25.238041
2.307  25.245791
2.306  25.337943
2.305  25.369445
2.304  25.445078
2.303  25.477141
2.302  25.514529
2.301  25.541582
2.300  25.607943
2.299  25.574497
2.298  25.624387
2.297  25.597450
2.296  25.697559
2.295  25.737602
2.294  25.748793
2.293  25.735796
2.292  25.784593
2.291  25.811112
2.290  25.849051
2.289  25.788876
2.288  25.867097
2.287  25.927265
2.286  26.069477
2.285  25.935122
2.284  25.927807
2.283  25.927034
2.282  25.978744
2.281  25.937262
2.280  26.032280
2.279  26.021483
2.278  26.024846
2.277  26.088515
2.276  26.140137
2.275  26.065532
2.274  26.157675
2.273  26.059703
2.272  26.096483
2.271  26.090535
2.270  26.225359
2.269  26.085165
2.268  26.160323
2.267  26.114306
2.266  26.180518
2.265  26.039523
2.264  26.129902
2.263  26.088538
2.262  26.206135
2.261  26.042688
2.260  26.090875
2.259  26.018585
2.258  26.026709
2.257  26.003211
2.256  25.977372
2.255  25.988105
2.254  26.002712
2.253  25.865177
2.252  25.938458
2.251  25.877437
2.250  25.919971
2.249  25.862761
2.248  25.836634
2.247  25.766326
2.246  25.837304
2.245  25.714430
2.244  25.797936
2.243  25.676723
2.242  25.789005
2.241  25.717165
2.240  25.768563
2.239  25.680151
2.238  25.659980
2.237  25.569724
2.236  25.686088
2.235  25.539106
2.234  25.606321
2.233  25.472150
2.232  25.529499
2.231  25.459876
2.230  25.400161
2.229  25.320996
2.228  25.396971
2.227  25.286694
2.226  25.223257
2.225  25.170315
2.224  25.078606
2.223  25.014297
2.222  24.870625
2.221  24.768564
2.220  24.680288
2.219  24.505100
2.218  24.468651
2.217  24.195930
2.216  24.229950
2.215  23.984441
2.214  23.908782
2.213  23.646533
2.212  23.706661
2.211  23.308438
2.210  23.431023
2.209  23.184793
2.208  23.142761
2.207  23.061955
2.206  23.104476
2.205  22.829859
2.204  22.882576
2.203  22.774483
2.202  22.928189
2.201  22.703421
2.200  22.856974
2.199  22.802384
2.198  22.849610
2.197  22.768838
2.196  22.986284
2.195  22.974401
2.194  23.068223
2.193  23.038505
2.192  23.230217
2.191  23.159650
2.190  23.387288
2.189  23.422450
2.188  23.636929
2.187  23.583517
2.186  23.776856
2.185  23.804479
2.184  23.993071
2.183  23.945146
2.182  24.258654
2.181  24.228667
2.180  24.380718
2.179  24.531800
2.178  24.643994
2.177  24.731719
2.176  24.813556
2.175  24.834253
2.174  24.997710
2.173  24.987513
2.172  25.092971
2.171  25.185296
2.170  25.224577
2.169  25.242497
2.168  25.381988
2.167  25.445691
2.166  25.495382
2.165  25.505062
2.164  25.626206
2.163  25.713623
2.162  25.713422
2.161  25.756816
2.160  25.775875
2.159  25.825812
2.158  25.938685
2.157  25.932221
2.156  26.070440
2.155  26.021080
2.154  26.113748
2.153  26.150813
2.152  26.248025
2.151  26.306272
2.150  26.410275
2.149  26.371602
2.148  26.580075
2.147  26.534902
2.146  26.594815
2.145  26.572146
2.144  26.676743
2.143  26.664944
2.142  26.723175
2.141  26.653408
2.140  26.759825
2.139  26.721654
2.138  26.821962
2.137  26.824052
2.136  26.801223
2.135  26.734864
2.134  26.818295
2.133  26.802781
2.132  26.846648
2.131  26.708841
2.130  26.749518
2.129  26.736160
2.128  26.764394
2.127  26.695127
2.126  26.744096
2.125  26.699473
2.124  26.701071
2.123  26.607496
2.122  26.721977
2.121  26.667061
2.120  26.605407
2.119  26.576088
2.118  26.574716
2.117  26.583223
2.116  26.591489
2.115  26.581736
2.114  26.546005
2.113  26.453569
2.112  26.475317
2.111  26.476796
2.110  26.482668
2.109  26.368253
2.108  26.391194
2.107  26.367811
2.106  26.406523
2.105  26.422759
2.104  26.392387
2.103  26.282149
2.102  26.308657
2.101  26.312244
2.100  26.292157
2.099  26.305153
2.098  26.288823
2.097  26.217035
2.096  26.268582
2.095  26.311937
2.094  26.308001
2.093  26.303032
2.092  26.343774
2.091  26.304982
2.090  26.358002
2.089  26.361823
2.088  26.329362
2.087  26.323831
2.086  26.324842
2.085  26.331903
2.084  26.363076
2.083  26.334947
2.082  26.332884
2.081  26.327103
2.080  26.346864
2.079  26.395216
2.078  26.408721
2.077  26.323791
2.076  26.290720
2.075  26.315171
2.074  26.339693
2.073  26.350181
2.072  26.335281
2.071  26.315947
2.070  26.340394
2.069  26.348464
2.068  26.342562
2.067  26.322493
2.066  26.316245
2.065  26.342183
2.064  26.318003
2.063  26.289131
2.062  26.278798
2.061  26.309528
2.060  26.257215
2.059  26.292281
2.058  26.284526
2.057  26.259670
2.056  26.266391
2.055  26.201222
2.054  26.120928
2.053  26.023066
2.052  25.910989
2.051  25.888075
2.050  25.896097
2.049  25.914605
2.048  25.842052
2.047  25.806738
2.046  25.797417
2.045  25.823230
2.044  25.782631
2.043  25.762856
2.042  25.777006
2.041  25.770770
2.040  25.730620
2.039  25.732897
2.038  25.676568
2.037  25.676946
2.036  25.660564
2.035  25.679705
2.034  25.656681
2.033  25.685596
2.032  25.621096
2.031  25.558759
2.030  25.519756
2.029  25.518008
2.028  25.483339
2.027  25.548425
2.026  25.450290
2.025  25.518190
2.024  25.458239
2.023  25.430858
2.022  25.377596
2.021  25.367966
2.020  25.308908
2.019  25.322689
2.018  25.252083
2.017  25.258713
2.016  25.254850
2.015  25.255628
2.014  25.167589
2.013  25.191261
2.012  25.119518
2.011  25.199226
2.010  25.080179
2.009  25.104204
2.008  25.017953
2.007  24.978876
2.006  24.926714
2.005  24.934914
2.004  24.905077
2.003  24.876409
2.002  24.807328
2.001  24.805405
2.000  24.781761
1.999  24.761634
1.998  24.690679
1.997  24.738830
1.996  24.672227
1.995  24.649210
1.994  24.528482
1.993  24.568062
1.992  24.528140
1.991  24.490325
1.990  24.411805
1.989  24.500500
1.988  24.312666
1.987  24.389045
1.986  24.290611
1.985  24.254806
1.984  24.293123
1.983  24.253405
1.982  24.151593
1.981  24.226347
1.980  24.120504
1.979  24.207627
1.978  24.000937
1.977  24.040465
1.976  23.963232
1.975  24.085907
1.974  23.907417
1.973  23.972999
1.972  23.908157
1.971  23.885639
1.970  23.826097
1.969  23.885211
1.968  23.841275
1.967  23.810035
1.966  23.699375
1.965  23.852091
1.964  23.667784
1.963  23.718804
1.962  23.691040
1.961  23.680902
1.960  23.562494
1.959  23.607602
1.958  23.535516
1.957  23.645899
1.956  23.584787
1.955  23.529735
1.954  23.489420
1.953  23.554924
1.952  23.486113
1.951  23.573515
1.950  23.358269
1.949  23.445905
1.948  23.332402
1.947  23.422686
1.946  23.325705
1.945  23.383301
1.944  23.248037
1.943  23.319240
1.942  23.256707
1.941  23.318116
1.940  23.185770
1.939  23.200813
1.938  23.253506
1.937  23.157518
1.936  23.161639
1.935  23.124716
1.934  23.019643
1.933  23.208258
1.932  22.954240
1.931  23.154411
1.930  22.931641
1.929  22.965375
1.928  22.827469
1.927  22.986167
1.926  22.650690
1.925  22.879566
1.924  22.653414
1.923  22.680297
1.922  22.525871
1.921  22.657866
1.920  22.435414
1.919  22.449559
1.918  22.314535
1.917  22.297921
1.916  22.193647
1.915  22.163268
1.914  22.059537
1.913  22.149358
1.912  21.981403
1.911  22.043833
1.910  22.005284
1.909  22.173142
1.908  21.966286
1.907  22.199457
1.906  22.143895
1.905  22.413367
1.904  22.408215
1.903  22.641316
1.902  22.761832
1.901  23.025174
1.900  23.179498
1.899  23.413192
1.898  23.522530
1.897  23.772369
1.896  24.045622
1.895  24.219429
1.894  24.324755
1.893  24.656051
1.892  24.767886
1.891  24.948691
1.890  25.086060
1.889  25.322751
1.888  25.372365
1.887  25.609796
1.886  25.697126
1.885  25.914356
1.884  25.859107
1.883  26.151950
1.882  26.146605
1.881  26.305177
1.880  26.340131
1.879  26.410758
1.878  26.474653
1.877  26.588695
1.876  26.534324
1.875  26.729363
1.874  26.727565
1.873  26.884087
1.872  26.855368
1.871  27.003272
1.870  27.057510
1.869  27.117800
1.868  27.052108
1.867  27.165516
1.866  27.114678
1.865  27.179925
1.864  27.094736
1.863  27.194030
1.862  27.171535
1.861  27.194986
1.860  27.178226
1.859  27.286346
1.858  27.216117
1.857  27.301206
1.856  27.216438
1.855  27.298799
1.854  27.262547
1.853  27.380999
1.852  27.321910
1.851  27.340788
1.850  27.270762
1.849  27.358864
1.848  27.366782
1.847  27.322810
1.846  27.320501
1.845  27.371908
1.844  27.300131
1.843  27.352300
1.842  27.322413
1.841  27.327512
1.840  27.339788
1.839  27.381662
1.838  27.429183
1.837  27.373160
1.836  27.366343
1.835  27.408949
1.834  27.432596
1.833  27.420843
1.832  27.385163
1.831  27.418624
1.830  27.431152
1.829  27.420208
1.828  27.379007
1.827  27.436973
1.826  27.405213
1.825  27.376713
1.824  27.404798
1.823  27.393985
1.822  27.375840
1.821  27.417351
1.820  27.367065
1.819  27.443973
1.818  27.435560
1.817  27.441832
1.816  27.375570
1.815  27.354324
1.814  27.444340
1.813  27.454997
1.812  27.430796
1.811  27.466519
1.810  27.426634
1.809  27.406566
1.808  27.398022
1.807  27.477171
1.806  27.460392
1.805  27.448832
1.804  27.396901
1.803  27.398971
1.802  27.443085
1.801  27.436420
1.800  27.422732
1.799  27.451573
1.798  27.418675
1.797  27.445113
1.796  27.487165
1.795  27.473254
1.794  27.420319
1.793  27.454557
1.792  27.475195
1.791  27.498230
1.790  27.491924
1.789  27.470302
1.788  27.506468
1.787  27.489396
1.786  27.444509
1.785  27.435281
1.784  27.415885
1.783  27.459218
1.782  27.436365
1.781  27.440109
1.780  27.517511
1.779  27.508843
1.778  27.525209
1.777  27.529801
1.776  27.497230
1.775  27.489849
1.774  27.517229
1.773  27.500985
1.772  27.511054
1.771  27.472208
1.770  27.510616
1.769  27.598860
1.768  27.585426
1.767  27.571109
1.766  27.607876
1.765  27.564242
1.764  27.592223
1.763  27.624587
1.762  27.626062
1.761  27.621583
1.760  27.630578
1.759  27.624020
1.758  27.681225
1.757  27.627655
1.756  27.617018
1.755  27.610520
1.754  27.653290
1.753  27.654800
1.752  27.645349
1.751  27.678759
1.750  27.668823
1.749  27.582577
1.748  27.634186
1.747  27.691643
1.746  27.708386
1.745  27.711422
1.744  27.713555
1.743  27.643120
1.742  27.742806
1.741  27.665098
1.740  27.680408
1.739  27.664313
1.738  27.730873
1.737  27.694240
1.736  27.752136
1.735  27.755260
1.734  27.722432
1.733  27.787451
1.732  27.845576
1.731  27.774877
1.730  27.815871
1.729  27.778816
1.728  27.790840
1.727  27.791311
1.726  27.828901
1.725  27.764620
1.724  27.811249
1.723  27.841231
1.722  27.824779
1.721  27.764860
1.720  27.796492
1.719  27.809336
1.718  27.846751
1.717  27.808727
1.716  27.856194
1.715  27.787514
1.714  27.822325
1.713  27.814305
1.712  27.850831
1.711  27.797833
1.710  27.830465
1.709  27.866267
1.708  27.836614
1.707  27.769870
1.706  27.850763
1.705  27.837415
1.704  27.841958
1.703  27.774805
1.702  27.869408
1.701  27.790838
1.700  27.826582
1.699  27.813693
1.698  27.837915
1.697  27.754492
1.696  27.824045
1.695  27.835608
1.694  27.913745
1.693  27.805201
1.692  27.870374
1.691  27.835139
1.690  27.836965
1.689  27.821428
1.688  27.831282
1.687  27.813247
1.686  27.846363
1.685  27.755346
1.684  27.830302
1.683  27.834110
1.682  27.839386
1.681  27.818683
1.680  27.893762
1.679  27.847343
1.678  27.914491
1.677  27.797944
1.676  27.969315
1.675  27.894897
1.674  27.846843
1.673  27.879930
1.672  27.936963
1.671  27.880715
1.670  27.967415
1.669  27.934325
1.668  27.770496
1.667  27.912627
1.666  27.846832
1.665  27.891913
1.664  27.956322
1.663  27.787405
1.662  27.923344
1.661  27.820974
1.660  27.862618
1.659  27.819244
1.658  27.926604
1.657  27.841907
1.656  27.957749
1.655  27.811087
1.654  27.879020
1.653  27.864437
1.652  27.895215
1.651  27.880874
1.650  27.887535
1.649  27.855722
1.648  27.831396
1.647  27.889249
1.646  27.987772
1.645  27.877220
1.644  27.860426
1.643  27.915146
1.642  27.981529
1.641  27.791075
1.640  27.943888
1.639  27.816464
1.638  27.939672
1.637  27.917492
1.636  27.974297
1.635  27.870183
1.634  27.928835
1.633  27.870612
1.632  27.978457
1.631  27.906447
1.630  28.019081
1.629  27.905639
1.628  27.986262
1.627  27.933147
1.626  27.910000
1.625  27.893767
1.624  27.992643
1.623  27.953982
1.622  28.025675
1.621  27.872141
1.620  27.949594
1.619  27.865977
1.618  27.921124
1.617  27.878581
1.616  27.980027
1.615  27.920717
1.614  27.930849
1.613  27.926652
1.612  27.955656
1.611  27.909523
1.610  27.971885
1.609  27.930857
1.608  28.002885
1.607  27.908142
1.606  28.041736
1.605  27.907618
1.604  27.975499
1.603  27.961231
1.602  27.945480
1.601  27.904950
1.600  27.944562
1.599  27.889682
1.598  27.974506
1.597  27.868825
1.596  27.972145
1.595  27.893474
1.594  27.963296
1.593  27.936431
1.592  28.007593
1.591  27.931170
1.590  27.907011
1.589  27.858537
1.588  27.973667
1.587  27.897902
1.586  27.966009
1.585  27.936797
1.584  27.959064
1.583  27.860689
1.582  27.945258
1.581  27.938236
1.580  28.034795
1.579  27.964992
1.578  27.951851
1.577  27.871554
1.576  27.877032
1.575  27.913571
1.574  27.955038
1.573  27.888206
1.572  27.994321
1.571  27.931572
1.570  27.980435
1.569  27.875550
1.568  27.912494
1.567  27.912179
1.566  27.931552
1.565  27.929045
1.564  28.001832
1.563  27.891819
1.562  27.908540
1.561  27.923169
1.560  27.930151
1.559  27.944391
1.558  27.983013
1.557  27.976693
1.556  28.012518
1.555  27.958374
1.554  27.924537
1.553  27.906231
1.552  27.916792
1.551  27.926070
1.550  27.974749
1.549  27.932411
1.548  27.967606
1.547  27.925135
1.546  27.928125
1.545  27.959124
1.544  28.002802
1.543  27.949353
1.542  27.945629
1.541  27.867354
1.540  27.904739
1.539  27.896106
1.538  27.930925
1.537  27.950567
1.536  27.997883
1.535  27.953879
1.534  27.924319
1.533  27.887483
1.532  27.944532
1.531  27.906917
1.530  27.975805
1.529  27.929568
1.528  27.923175
1.527  27.890379
1.526  27.921367
1.525  27.895964
1.524  27.874234
1.523  27.860222
1.522  27.890733
1.521  27.909889
1.520  27.917978
1.519  27.816572
1.518  27.874390
1.517  27.926861
1.516  27.865211
1.515  27.851237
1.514  27.873499
1.513  27.854814
1.512  27.872651
1.511  27.821487
1.510  27.795462
1.509  27.872102
1.508  27.895340
1.507  27.770501
1.506  27.771240
1.505  27.825572
1.504  27.846468
1.503  27.815677
1.502  27.782751
1.501  27.783203
1.500  27.752257
1.499  27.793241
1.498  27.815807
1.497  27.766865
1.496  27.711648
1.495  27.747935
1.494  27.752892
1.493  27.712822
1.492  27.683896
1.491  27.674430
1.490  27.642377
1.489  27.651793
1.488  27.630945
1.487  27.707408
1.486  27.728627
1.485  27.648700
1.484  27.682321
1.483  27.697369
1.482  27.653760
1.481  27.648251
1.480  27.611232
1.479  27.642972
1.478  27.600836
1.477  27.567236
1.476  27.586219
1.475  27.610749
1.474  27.536896
1.473  27.504226
1.472  27.470755
1.471  27.485495
1.470  27.459188
1.469  27.477467
1.468  27.497921
1.467  27.493079
1.466  27.432310
1.465  27.486036
1.464  27.499653
1.463  27.522547
1.462  27.459128
1.461  27.480460
1.460  27.502479
1.459  27.525209
1.458  27.456291
1.457  27.464498
1.456  27.498118
1.455  27.527354
1.454  27.494143
1.453  27.456569
1.452  27.483614
1.451  27.540669
1.450  27.428473
1.449  27.435282
1.448  27.416496
1.447  27.474420
1.446  27.428450
1.445  27.481922
1.444  27.407425
1.443  27.396140
1.442  27.343676
1.441  27.437607
1.440  27.364808
1.439  27.329154
1.438  27.169055
1.437  27.197818
1.436  27.193056
1.435  27.159613
1.434  27.094503
1.433  27.129000
1.432  27.047558
1.431  27.026912
1.430  26.957437
1.429  26.951338
1.428  26.788583
1.427  26.773551
1.426  26.702681
1.425  26.619847
1.424  26.527673
1.423  26.468683
1.422  26.287557
1.421  26.266394
1.420  25.964587
1.419  25.789229
1.418  25.548112
1.417  25.408247
1.416  25.206451
1.415  25.152644
1.414  25.117166
1.413  25.206941
1.412  25.187323
1.411  25.281604
1.410  25.322654
1.409  25.473905
1.408  25.476874
1.407  25.590778
1.406  25.637243
1.405  25.855156
1.404  25.774978
1.403  26.014177
1.402  26.058983
1.401  26.294016
1.400  26.269391
1.399  26.445748
1.398  26.484591
1.397  26.697745
1.396  26.798304
1.395  26.970478
1.394  27.040532
1.393  27.331436
1.392  27.350273
1.391  27.566908
1.390  27.593545
1.389  27.793550
1.388  27.760740
1.387  27.890667
1.386  27.867925
1.385  28.086814
1.384  28.052096
1.383  28.246235
1.382  28.191969
1.381  28.301897
1.380  28.348568
1.379  28.527712
1.378  28.425303
1.377  28.616890
1.376  28.456140
1.375  28.613955
1.374  28.501167
1.373  28.536754
1.372  28.485066
1.371  28.594353
1.370  28.568470
1.369  28.672257
1.368  28.683778
1.367  28.665991
1.366  28.667370
1.365  28.690101
1.364  28.679690
1.363  28.657607
1.362  28.699327
1.361  28.713632
1.360  28.715397
1.359  28.816461
1.358  28.685519
1.357  28.850837
1.356  28.841295
1.355  28.654650
1.354  28.790736
1.353  28.801118
1.352  28.782507
1.351  28.972116
1.350  28.844569
1.349  28.921159
1.348  28.894428
1.347  28.937804
1.346  28.848268
1.345  28.935759
1.344  28.907457
1.343  28.867117
1.342  28.958556
1.341  28.989340
1.340  28.874505
1.339  28.978500
1.338  28.864919
1.337  28.932437
1.336  28.978676
1.335  28.895459
1.334  28.917169
1.333  29.013818
1.332  28.920124
1.331  28.941642
1.330  28.979425
1.329  29.020229
1.328  28.933221
1.327  29.056692
1.326  28.898096
1.325  29.077385
1.324  29.079980
1.323  29.074996
1.322  29.000046
1.321  29.044715
1.320  29.033184
1.319  29.113721
1.318  29.012582
1.317  29.066329
1.316  29.056212
1.315  29.076088
1.314  29.031867
1.313  29.149700
1.312  29.117933
1.311  29.183805
1.310  29.045244
1.309  29.099137
1.308  29.077664
1.307  29.107737
1.306  29.090452
1.305  29.176455
1.304  29.105972
1.303  29.207399
1.302  29.162341
1.301  29.229902
1.300  29.160968
1.299  29.280920
1.298  29.195147
1.297  29.167016
1.296  29.153196
1.295  29.186427
1.294  29.158212
1.293  29.240055
1.292  29.268867
1.291  29.310670
1.290  29.218484
1.289  29.253774
1.288  29.313709
1.287  29.331784
1.286  29.264629
1.285  29.295364
1.284  29.251855
1.283  29.367659
1.282  29.272360
1.281  29.333032
1.280  29.292312
1.279  29.326955
1.278  29.348411
1.277  29.381685
1.276  29.348540
1.275  29.381632
1.274  29.350494
1.273  29.377954
1.272  29.350959
1.271  29.395549
1.270  29.309266
1.269  29.406594
1.268  29.399600
1.267  29.437379
1.266  29.403307
1.265  29.410156
1.264  29.383486
1.263  29.444670
1.262  29.368783
1.261  29.420374
1.260  29.448721
1.259  29.503480
1.258  29.446258
1.257  29.429029
1.256  29.418459
1.255  29.459367
1.254  29.466005
1.253  29.496320
1.252  29.460853
1.251  29.485839
1.250  29.474278
1.249  29.507456
1.248  29.497792
1.247  29.499701
1.246  29.482021
1.245  29.480644
1.244  29.501941
1.243  29.567181
1.242  29.510228
1.241  29.522474
1.240  29.532876
1.239  29.545926
1.238  29.503930
1.237  29.535462
1.236  29.556815
1.235  29.588369
1.234  29.548295
1.233  29.546350
1.232  29.544845
1.231  29.548815
1.230  29.601995
1.229  29.587349
1.228  29.560438
1.227  29.634560
1.226  29.578719
1.225  29.579193
1.224  29.609594
1.223  29.634781
1.222  29.667993
1.221  29.620456
1.220  29.634867
1.219  29.650982
1.218  29.650589
1.217  29.669389
1.216  29.632658
1.215  29.636661
1.214  29.676418
1.213  29.666571
1.212  29.703070
1.211  29.687533
1.210  29.642507
1.209  29.617876
1.208  29.651944
1.207  29.714609
1.206  29.736483
1.205  29.686004
1.204  29.744704
1.203  29.780750
1.202  29.753357
1.201  29.721748
1.200  29.717788
1.199  29.736365
1.198  29.707451
1.197  29.699515
1.196  29.768365
1.195  29.765681
1.194  29.776331
1.193  29.737536
1.192  29.785712
1.191  29.770811
1.190  29.788161
1.189  29.870093
1.188  29.763724
1.187  29.762008
1.186  29.832712
1.185  29.759813
1.184  29.827562
1.183  29.835281
1.182  29.791726
1.181  29.719328
1.180  29.786854
1.179  29.864623
1.178  29.904592
1.177  29.866825
1.176  29.889952
1.175  29.848363
1.174  29.820135
1.173  29.830426
1.172  29.853937
1.171  29.866007
1.170  29.965944
1.169  29.853889
1.168  29.837184
1.167  29.853991
1.166  29.838576
1.165  29.861692
1.164  29.910613
1.163  29.860796
1.162  29.851768
1.161  29.851764
1.160  29.891081
1.159  29.851712
1.158  29.946284
1.157  29.894724
1.156  29.899881
1.155  29.895309
1.154  29.953160
1.153  29.905139
1.152  30.006067
1.151  29.913270
1.150  29.976977
1.149  29.901619
1.148  29.917789
1.147  29.888422
1.146  29.997227
1.145  29.962731
1.144  30.017305
1.143  30.008736
1.142  30.036191
1.141  29.987804
1.140  30.053751
1.139  29.957684
1.138  30.001155
1.137  29.967643
1.136  30.054457
1.135  30.009966
1.134  29.987742
1.133  29.995900
1.132  30.049394
1.131  30.010711
1.130  30.089297
1.129  30.033109
1.128  30.092283
1.127  29.913637
1.126  30.026265
1.125  30.069015
1.124  30.167855
1.123  30.102360
1.122  30.066777
1.121  29.975334
1.120  30.110870
1.119  30.068039
1.118  30.168158
1.117  30.073259
1.116  30.166335
1.115  30.033277
1.114  30.054689
1.113  29.995407
1.112  30.066440
1.111  30.054876
1.110  30.102510
1.109  30.024784
1.108  30.142799
1.107  30.055902
1.106  30.062969
1.105  30.024809
1.104  30.108746
1.103  30.080875
1.102  30.115078
1.101  30.032095
1.100  30.133739
1.099  30.103225
1.098  29.820440
1.097  30.125287
1.096  30.162175
1.095  30.058660
1.094  30.212271
1.093  30.042779
1.092  30.192665
1.091  30.103187
1.090  30.067465
1.089  30.062049
1.088  30.129764
1.087  30.071911
1.086  30.107009
1.085  30.071173
1.084  30.180228
1.083  30.112037
1.082  30.120844
1.081  30.112267
1.080  30.179314
1.079  30.101278
1.078  30.215963
1.077  30.119329
1.076  30.173824
1.075  30.164752
1.074  30.126639
1.073  30.096836
1.072  30.199506
1.071  30.134805
1.070  30.070619
1.069  30.131988
1.068  30.176518
1.067  30.095461
1.066  30.111291
1.065  30.114517
1.064  30.199012
1.063  30.134300
1.062  30.151806
1.061  30.189564
1.060  30.168358
1.059  29.996858
1.058  30.165466
1.057  30.153016
1.056  30.158650
1.055  30.092053
1.054  30.229463
1.053  30.130195
1.052  30.126685
1.051  30.015950
1.050  30.115899
1.049  30.119808
1.048  30.154239
1.047  30.050846
1.046  30.123867
1.045  30.055024
1.044  30.095218
1.043  30.040259
1.042  30.089158
1.041  30.036478
1.040  30.117049
1.039  30.021731
1.038  30.093987
1.037  30.129814
1.036  30.142801
1.035  29.995463
1.034  30.090753
1.033  30.038437
1.032  30.063864
1.031  29.984957
1.030  30.047194
1.029  29.911721
1.028  30.135700
1.027  29.987663
1.026  30.008306
1.025  29.982987
1.024  30.055534
1.023  29.993670
1.022  30.012019
1.021  29.955466
1.020  29.979128
1.019  29.865437
1.018  29.954996
1.017  29.871989
1.016  29.895561
1.015  29.871718
1.014  29.911148
1.013  29.854948
1.012  29.859851
1.011  29.809187
1.010  29.840591
1.009  29.822164
1.008  29.868523
1.007  29.777685
1.006  29.804308
1.005  29.786170
1.004  29.809187
1.003  29.732709
1.002  29.773036
1.001  29.682084
1.000  29.725834
0.999  29.659819
0.998  29.710337
0.997  29.599878
0.996  29.668605
0.995  29.695096
0.994  29.658788
0.993  29.607486
0.992  29.625310
0.991  29.488151
0.990  29.490456
0.989  29.502127
0.988  29.530577
0.987  29.416638
0.986  29.458257
0.985  29.443712
0.984  29.485605
0.983  29.368081
0.982  29.407503
0.981  29.354800
0.980  29.310033
0.979  29.267281
0.978  29.266139
0.977  29.202695
0.976  29.231147
0.975  29.206372
0.974  29.152946
0.973  29.075856
0.972  29.130646
0.971  29.066320
0.970  29.008588
0.969  29.041482
0.968  29.030537
0.967  28.938007
0.966  28.941263
0.965  28.928263
0.964  28.924702
0.963  28.890837
0.962  28.963372
0.961  28.854364
0.960  28.789866
0.959  28.774117
0.958  28.747429
0.957  28.706211
0.956  28.713385
0.955  28.717103
0.954  28.746754
0.953  28.720645
0.952  28.636027
0.951  28.654751
0.950  28.697883
0.949  28.637009
0.948  28.670289
0.947  28.662201
0.946  28.623747
0.945  28.563862
0.944  28.517784
0.943  28.513796
0.942  28.546550
0.941  28.487596
0.940  28.432119
0.939  28.371891
0.938  28.413762
0.937  28.387431
0.936  28.392497
0.935  28.415084
0.934  28.321386
0.933  28.293451
0.932  28.302507
0.931  28.265551
0.930  28.299002
0.929  28.329464
0.928  28.248984
0.927  28.219501
0.926  28.215613
0.925  28.203622
0.924  28.181819
0.923  28.201977
0.922  28.171200
0.921  28.121991
0.920  28.066449
0.919  28.094122
0.918  28.121346
0.917  28.118150
0.916  28.103010
0.915  28.065910
0.914  28.104752
0.913  28.112268
0.912  28.027920
0.911  28.017173
0.910  28.025121
0.909  28.058145
0.908  28.039032
0.907  28.062333
0.906  28.018361
0.905  27.974748
0.904  27.989638
0.903  27.991461
0.902  27.950046
0.901  27.973638
0.900  27.990116
0.899  28.038369
0.898  27.939286
0.897  27.953640
0.896  27.974746
0.895  28.028915
0.894  28.023709
0.893  28.063691
0.892  28.015272
0.891  28.035751
0.890  27.955806
0.889  28.013362
0.888  28.030263
0.887  28.081522
0.886  28.062828
0.885  28.080932
0.884  28.078829
0.883  28.068350
0.882  28.089696
0.881  28.193195
0.880  28.119864
0.879  28.197269
0.878  28.169419
0.877  28.267167
0.876  28.165624
0.875  28.179010
0.874  28.154642
0.873  28.246168
0.872  28.203831
0.871  28.281153
0.870  28.221807
0.869  28.263655
0.868  28.201173
0.867  28.330358
0.866  28.295408
0.865  28.423538
0.864  28.290399
0.863  28.404279
0.862  28.359425
0.861  28.387906
0.860  28.300642
0.859  28.202416
0.858  28.199316
0.857  28.214843
0.856  28.212657
0.855  28.250712
0.854  28.256040
0.853  28.230286
0.852  28.263525
0.851  28.298085
0.850  28.287024
0.849  28.297256
0.848  28.305634
0.847  28.334398
0.846  28.384083
0.845  28.363184
0.844  28.371094
0.843  28.363223
0.842  28.376935
0.841  28.413593
0.840  28.446110
0.839  28.431477
0.838  28.418960
0.837  28.445067
0.836  28.445152
0.835  28.459710
0.834  28.494238
0.833  28.515842
0.832  28.484908
0.831  28.502172
0.830  28.542914
0.829  28.509312
0.828  28.546115
0.827  28.569438
0.826  28.581873
0.825  28.565002
0.824  28.598475
0.823  28.617850
0.822  28.628513
0.821  28.649171
0.820  28.658386
0.819  28.664177
0.818  28.656492
0.817  28.687218
0.816  28.680791
0.815  28.698005
0.814  28.715045
0.813  28.761683
0.812  28.749032
0.811  28.763780
0.810  28.771632
0.809  28.786078
0.808  28.798583
0.807  28.799556
0.806  28.839398
0.805  28.833557
0.804  28.836143
0.803  28.820505
0.802  28.856665
0.801  28.864934
0.800  28.889355
0.799  28.895394
0.798  28.909985
0.797  28.914599
0.796  28.921352
0.795  28.909837
0.794  28.929596
0.793  28.931530
0.792  28.949134
0.791  28.954657
0.790  28.972842
0.789  28.999460
0.788  29.009587
0.787  29.017056
0.786  29.022901
0.785  29.017825
0.784  29.046462
0.783  29.062103
0.782  29.047519
0.781  29.071231
0.780  29.091320
0.779  29.100422
0.778  29.106121
0.777  29.100172
0.776  29.089573
0.775  29.098587
0.774  29.117266
0.773  29.117383
0.772  29.127442
0.771  29.134702
0.770  29.132438
0.769  29.137864
0.768  29.137068
0.767  29.147537
0.766  29.142281
0.765  29.139126
0.764  29.132650
0.763  29.146418
0.762  29.130799
0.761  29.132091
0.760  29.134287
0.759  29.139438
0.758  29.116617
0.757  29.114721
0.756  29.115167
0.755  29.124111
0.754  29.106075
0.753  29.107377
0.752  29.087207
0.751  29.089785
0.750  29.070353
0.749  29.062556
0.748  29.065059
0.747  29.039691
0.746  29.027769
0.745  29.010771
0.744  29.007316
0.743  28.981570
0.742  28.963177
0.741  28.957895
0.740  28.941977
0.739  28.912599
0.738  28.901431
0.737  28.886578
0.736  28.852276
0.735  28.851928
0.734  28.829572
0.733  28.797014
0.732  28.776969
0.731  28.758454
0.730  28.718034
0.729  28.696331
0.728  28.679566
0.727  28.656082
0.726  28.618097
0.725  28.610162
0.724  28.574270
0.723  28.543403
0.722  28.506445
0.721  28.465924
0.720  28.439731
0.719  28.403186
0.718  28.379600
0.717  28.342874
0.716  28.302478
0.715  28.270094
0.714  28.247615
0.713  28.209075
0.712  28.169503
0.711  28.145534
0.710  28.095390
0.709  28.075415
0.708  28.030462
0.707  27.985662
0.706  27.952688
0.705  27.917170
0.704  27.878703
0.703  27.839970
0.702  27.795776
0.701  27.768224
0.700  27.730995
0.699  27.684255
0.698  27.647330
0.697  27.611980
0.696  27.580969
0.695  27.532361
0.694  27.488257
0.693  27.456367
0.692  27.425483
0.691  27.386172
0.690  27.346446
0.689  27.303453
0.688  27.263457
0.687  27.228247
0.686  27.185914
0.685  27.146851
0.684  27.108185
0.683  27.081489
0.682  27.043825
0.681  27.000887
0.680  26.966155
0.679  26.931997
0.678  26.898086
0.677  26.862068
0.676  26.819885
0.675  26.783577
0.674  26.749948
0.673  26.711983
0.672  26.679523
0.671  26.647671
0.670  26.607523
0.669  26.575826
0.668  26.541275
0.667  26.507835
0.666  26.475172
0.665  26.444692
0.664  26.408636
0.663  26.375347
0.662  26.337710
0.661  26.301623
0.660  26.274554
0.659  26.243181
0.658  26.213525
0.657  26.187518
0.656  26.151861
0.655  26.118332
0.654  26.094536
0.653  26.059492
0.652  26.028743
0.651  25.997127
0.650  25.963505
0.649  25.932448
0.648  25.908087
0.647  25.876623
0.646  25.844631
0.645  25.816519
0.644  25.784916
0.643  25.756606
0.642  25.725920
0.641  25.695862
0.640  25.662946
0.639  25.630748
0.638  25.605381
0.637  25.576358
0.636  25.542977
0.635  25.513996
0.634  25.485085
0.633  25.455408
0.632  25.426540
0.631  25.393059
0.630  25.356019
0.629  25.324309
0.628  25.290835
0.627  25.256195
0.626  25.229853
0.625  25.194475
0.624  25.152479
0.623  25.113671
0.622  25.078104
0.621  25.043180
0.620  25.003094
0.619  24.964746
0.618  24.926314
0.617  24.886749
0.616  24.840158
0.615  24.789809
0.614  24.745132
0.613  24.697498
0.612  24.649932
0.611  24.600417
0.610  24.551060
0.609  24.500536
0.608  24.445470
0.607  24.386718
0.606  24.331151
0.605  24.268876
0.604  24.202069
0.603  24.141809
0.602  24.071710
0.601  24.004414
0.600  23.930728
0.599  23.862657
0.598  23.794925
0.597  23.719321
0.596  23.646039
0.595  23.572016
0.594  23.486310
0.593  23.395951
0.592  23.304170
0.591  23.219277
0.590  23.130054
0.589  23.035233
0.588  22.936602
0.587  22.840013
0.586  22.743331
0.585  22.644818
0.584  22.543928
0.583  22.441430
0.582  22.338391
0.581  22.233041
0.580  22.127399
0.579  22.025668
0.578  21.922122
0.577  21.821664
0.576  21.721243
0.575  21.616089
0.574  21.515236
0.573  21.415124
0.572  21.315099
0.571  21.216305
0.570  21.121877
0.569  21.026856
0.568  20.931813
0.567  20.838242
0.566  20.750638
0.565  20.663239
0.564  20.578067
0.563  20.495200
0.562  20.413659
0.561  20.306797
0.560  20.226095
0.559  20.151668
0.558  20.076949
0.557  20.001174
0.556  19.938394
0.555  19.867617
0.554  19.805323
0.553  19.744248
0.552  19.683358
0.551  19.635741
0.550  19.573307
0.549  19.517529
0.548  19.473059
0.547  19.424242
0.546  19.375781
0.545  19.331451
0.544  19.291866
0.543  19.249061
0.542  19.208230
0.541  19.170381
0.540  19.131952
0.539  19.095278
0.538  19.058513
0.537  19.025195
0.536  18.990107
0.535  18.961609
0.534  18.933160
0.533  18.905206
0.532  18.874107
0.531  18.846295
0.530  18.821889
0.529  18.794615
0.528  18.768919
0.527  18.747527
0.526  18.717949
0.525  18.690283
0.524  18.668049
0.523  18.645487
0.522  18.621985
0.521  18.599889
0.520  18.576265
0.519  18.558515
0.518  18.532153
0.517  18.506454
0.516  18.487792
0.515  18.463978
0.514  18.445286
0.513  18.420452
0.512  18.392590
0.511  18.374347
0.510  18.346084
0.509  18.322790
0.508  18.298042
0.507  18.267591
0.506  18.253480
0.505  18.230783
0.504  18.208417
0.503  18.177632
0.502  18.154011
0.501  18.128884
0.500  18.107192
0.499  18.063225
0.498  18.035831
0.497  18.006035
0.496  17.985746
0.495  17.962321
0.494  17.927815
0.493  17.903871
0.492  17.887427
0.491  17.863965
0.490  17.837418
0.489  17.812947
0.488  17.788222
0.487  17.767294
0.486  17.765661
0.485  17.743268
0.484  17.731558
0.483  17.714811
0.482  17.697641
0.481  17.686527
0.480  17.671049
0.479  17.660721
0.478  17.672530
0.477  17.672091
0.476  17.665028
0.475  17.657123
0.474  17.637510
0.473  17.622512
0.472  17.605813
0.471  17.599926
0.470  17.590506
0.469  17.572746
0.468  17.555043
0.467  17.541162
0.466  17.526853
0.465  17.519331
0.464  17.493960
0.463  17.479467
0.462  17.468397
0.461  17.451725
0.460  17.431710
0.459  17.408913
0.458  17.389547
0.457  17.378201
0.456  17.349553
0.455  17.332281
0.454  17.307219
0.453  17.279814
0.452  17.254315
0.451  17.238968
0.450  17.206752
0.449  17.181410
0.448  17.147278
0.447  17.102601
0.446  17.082619
0.445  17.056134
0.444  17.023949
0.443  16.986084
0.442  16.962443
0.441  16.935625
0.440  16.908812
0.439  16.885242
0.438  16.854940
0.437  16.826437
0.436  16.792884
0.435  16.762180
0.434  16.737629
0.433  16.703417
0.432  16.674060
0.431  16.642412
0.430  16.616193
0.429  16.592963
0.428  16.559869
0.427  16.528138
0.426  16.499794
0.425  16.467736
0.424  16.438141
0.423  16.416495
0.422  16.384944
0.421  16.355812
0.420  16.333282
0.419  16.299016
0.418  16.272482
0.417  16.254742
0.416  16.226605
0.415  16.198889
0.414  16.175701
0.413  16.147514
0.412  16.113857
0.411  16.092434
0.410  16.069996
0.409  16.041955
0.408  16.007473
0.407  15.979058
0.406  15.959825
0.405  15.931004
0.404  15.906379
0.403  15.878891
0.402  15.847029
0.401  15.820381
0.400  15.794389
