Name: Arsenopyrite FeAsS
Type: Mineral
Class: Sulfides
Subclass: 
Particle Size: 0-45um
Sample No.: S-5A
Owner: JPL
Wavelength range: IR
Origin: USA, Nevada, Lander County, Austin
Collected by Burminco
Description: 





Measurement: Hemispherical reflectance
First Column: X
Second Column: Y
X Units:  Wavelength (micrometers)
Y Units:  Reflectance (percent)
First X Value: 15.3853
Last X Value: 2.00032
Number of X Values: 2256
Additional information: s05aa.txt
 
15.3853	8.24652
15.3397	8.34382
15.2945	8.18914
15.2495	8.09432
15.2048	8.23236
15.1603	8.23728
15.1161	8.059
15.0722	8.11855
15.0285	8.046
14.9851	8.0655
14.9419	8.15292
14.8989	8.106
14.8563	8.0365
14.8138	8.00494
14.7716	8.05198
14.7296	8.05702
14.6879	8.12023
14.6464	8.07317
14.6052	8.03073
14.5641	7.67398
14.5233	7.40037
14.4828	7.14802
14.4424	7.11757
14.4023	7.18833
14.3624	6.99796
14.3227	6.98996
14.2833	7.18615
14.244	7.3323
14.205	7.53763
14.1662	7.86348
14.1276	8.06542
14.0892	7.98463
14.051	7.75791
14.0131	7.85907
13.9753	8.14643
13.9377	8.35975
13.9004	8.38203
13.8632	8.41571
13.8262	8.36543
13.7895	8.33084
13.7529	8.32517
13.7165	8.34697
13.6803	8.36568
13.6443	8.17196
13.6085	8.2628
13.5729	8.47054
13.5374	8.58583
13.5022	8.55619
13.4671	8.43188
13.4322	8.26766
13.3975	8.18228
13.363	8.21517
13.3286	8.33746
13.2944	8.27966
13.2604	8.13151
13.2266	8.16202
13.193	8.22702
13.1595	8.10782
13.1262	7.82786
13.093	7.7076
13.06	7.81594
13.0272	7.69671
12.9946	7.4541
12.9621	7.36083
12.9298	7.5808
12.8976	7.61063
12.8656	7.5865
12.8337	7.46578
12.8021	7.56176
12.7705	7.66619
12.7391	7.41534
12.7079	7.20282
12.6769	7.19869
12.6459	7.24616
12.6152	7.29798
12.5845	7.30551
12.5541	7.40109
12.5238	7.32917
12.4936	7.30527
12.4635	7.35558
12.4337	7.24206
12.4039	7.0162
12.3743	6.75107
12.3448	6.58791
12.3155	6.60035
12.2863	6.69136
12.2573	6.72298
12.2284	6.76413
12.1996	6.81474
12.171	7.01057
12.1425	7.14027
12.1141	7.13904
12.0859	7.2207
12.0578	7.29705
12.0298	7.29367
12.0019	7.29898
11.9742	7.44432
11.9466	7.53125
11.9192	7.57669
11.8918	7.50994
11.8646	7.60051
11.8375	7.66247
11.8106	7.69895
11.7837	7.70646
11.757	7.69858
11.7304	7.83516
11.7039	7.96253
11.6776	8.06192
11.6513	8.04859
11.6252	8.00523
11.5992	8.07293
11.5733	8.0489
11.5475	7.98754
11.5219	8.09447
11.4963	8.13814
11.4709	8.10326
11.4455	8.22756
11.4203	8.34585
11.3952	8.3296
11.3702	8.2386
11.3454	8.27909
11.3206	8.38636
11.2959	8.46746
11.2714	8.46157
11.2469	8.32684
11.2226	8.25769
11.1983	8.41413
11.1742	8.58713
11.1502	8.59781
11.1263	8.65012
11.1024	8.71593
11.0787	8.70257
11.0551	8.57401
11.0316	8.58908
11.0081	8.64292
10.9848	8.65616
10.9616	8.70236
10.9385	8.77847
10.9154	8.74365
10.8925	8.79336
10.8697	8.86746
10.8469	8.87827
10.8243	8.91416
10.8017	8.94335
10.7793	8.94765
10.7569	8.95063
10.7346	8.91305
10.7125	8.93446
10.6904	8.95662
10.6684	8.94771
10.6465	8.98031
10.6247	8.99679
10.6029	9.01684
10.5813	9.08048
10.5597	9.15677
10.5383	9.14899
10.5169	9.05065
10.4956	9.06165
10.4744	9.16828
10.4533	9.15669
10.4323	9.05841
10.4113	8.97197
10.3904	9.02503
10.3697	9.13375
10.349	9.06394
10.3284	8.97284
10.3078	9.0016
10.2874	9.01653
10.267	8.97926
10.2467	8.94774
10.2265	8.88777
10.2064	8.86516
10.1863	8.74889
10.1663	8.75701
10.1464	8.77555
10.1266	8.76407
10.1069	8.80233
10.0872	8.81219
10.0676	8.66413
10.0481	8.57537
10.0287	8.6781
10.0093	8.69318
9.99005	8.58591
9.97084	8.63063
9.95169	8.7006
9.93263	8.64279
9.91364	8.66696
9.89472	8.63881
9.87587	8.57454
9.8571	8.5146
9.83839	8.46677
9.81976	8.4695
9.80119	8.54554
9.78271	8.50182
9.76428	8.49627
9.74592	8.47622
9.72764	8.46052
9.70943	8.46455
9.69128	8.4946
9.6732	8.58589
9.65518	8.55036
9.63724	8.49585
9.61935	8.61263
9.60155	8.74364
9.5838	8.77249
9.56611	8.82706
9.5485	8.8128
9.53094	8.87499
9.51345	9.01942
9.49604	9.2477
9.47867	9.40657
9.46137	9.60273
9.44414	9.87935
9.42697	10.1029
9.40986	10.48
9.39281	11.0341
9.37583	11.5419
9.35891	12.0885
9.34204	12.4531
9.32524	12.7829
9.3085	13.1194
9.29182	13.2087
9.27519	13.217
9.25863	13.1709
9.24213	13.0067
9.22568	12.9751
9.2093	13.2073
9.19297	13.298
9.17669	13.1865
9.16048	13.1646
9.14433	13.2468
9.12823	13.3068
9.11218	13.1814
9.0962	13.101
9.08027	13.1362
9.06439	13.0416
9.04858	12.899
9.03281	12.9898
9.0171	13.0768
9.00145	13.0945
8.98585	12.9361
8.9703	12.6604
8.9548	12.535
8.93937	12.5595
8.92398	12.465
8.90865	12.4174
8.89337	12.4563
8.87814	12.4578
8.86296	12.3155
8.84784	12.1465
8.83277	11.9651
8.81774	11.8106
8.80277	11.6885
8.78786	11.5954
8.77298	11.5312
8.75816	11.3804
8.7434	11.2993
8.72868	11.1467
8.714	11.186
8.69938	11.1706
8.68481	10.883
8.67029	10.4709
8.65581	10.2273
8.64139	10.0021
8.62701	9.83925
8.61268	9.94365
8.5984	10.3541
8.58416	10.6783
8.56997	11.0154
8.55583	11.1372
8.54174	11.1345
8.52769	11.1662
8.51368	11.2321
8.49973	11.2385
8.48582	11.2152
8.47195	11.3189
8.45813	11.2879
8.44436	11.186
8.43062	11.1094
8.41693	11.1722
8.4033	11.3087
8.3897	11.3065
8.37614	11.3762
8.36264	11.418
8.34917	11.3584
8.33574	11.3604
8.32236	11.4409
8.30903	11.5819
8.29573	11.6415
8.28248	11.7263
8.26927	11.7934
8.2561	11.9123
8.24298	12.0132
8.2299	12.163
8.21685	12.2579
8.20385	12.2791
8.19089	12.2998
8.17797	12.3525
8.16509	12.2454
8.15225	12.0498
8.13946	11.8255
8.1267	11.5017
8.11398	11.3488
8.10131	11.3095
8.08867	11.0497
8.07606	10.8036
8.0635	10.636
8.05099	10.4991
8.0385	10.48
8.02606	10.4031
8.01366	10.1524
8.00129	9.86121
7.98896	9.77113
7.97667	9.74728
7.96442	9.61914
7.9522	9.53171
7.94002	9.42267
7.92788	9.37339
7.91578	9.30703
7.90371	9.15783
7.89168	9.04359
7.87969	8.93907
7.86773	8.91709
7.85581	8.89263
7.84392	8.82508
7.83207	8.83211
7.82026	8.87954
7.80849	8.89371
7.79674	8.83121
7.78503	8.80705
7.77337	8.84666
7.76173	8.86357
7.75012	8.81625
7.73856	8.75324
7.72703	8.76184
7.71553	8.71641
7.70406	8.64644
7.69263	8.67784
7.68123	8.69696
7.66987	8.69209
7.65855	8.72735
7.64725	8.73537
7.63598	8.69391
7.62475	8.68499
7.61356	8.65349
7.60239	8.60369
7.59126	8.57351
7.58017	8.63541
7.5691	8.7116
7.55806	8.66292
7.54707	8.67537
7.5361	8.71165
7.52516	8.70431
7.51425	8.65231
7.50338	8.60642
7.49253	8.60151
7.48172	8.62807
7.47094	8.64256
7.46019	8.62176
7.44947	8.62471
7.43879	8.66995
7.42813	8.66277
7.4175	8.58834
7.4069	8.53711
7.39634	8.60623
7.3858	8.68648
7.37529	8.73638
7.36482	8.75045
7.35437	8.6519
7.34396	8.62162
7.33357	8.64975
7.32321	8.58236
7.31288	8.52753
7.30258	8.61265
7.29231	8.66777
7.28207	8.71513
7.27185	8.71859
7.26167	8.65907
7.25152	8.60671
7.24139	8.67493
7.23129	8.74872
7.22122	8.7965
7.21117	8.83073
7.20116	8.80064
7.19117	8.71624
7.18121	8.63488
7.17128	8.74589
7.16137	8.81006
7.1515	8.77072
7.14164	8.83321
7.13182	8.84194
7.12203	8.73782
7.11225	8.71026
7.10251	8.71074
7.0928	8.68031
7.08311	8.76864
7.07344	8.81573
7.06381	8.80755
7.0542	8.81151
7.04461	8.83158
7.03506	8.70234
7.02552	8.75872
7.01601	8.80463
7.00653	8.78856
6.99708	8.75009
6.98765	8.78891
6.97824	8.75461
6.96886	8.81664
6.95951	8.88049
6.95018	8.77091
6.94087	8.71519
6.9316	8.76529
6.92234	8.73315
6.91311	8.72739
6.90391	8.79172
6.89473	8.7887
6.88557	8.78083
6.87644	8.86354
6.86733	9.06768
6.85824	9.09221
6.84918	8.90449
6.84015	8.79428
6.83114	8.83138
6.82215	8.8528
6.81319	8.70588
6.80424	8.67633
6.79532	8.78226
6.78643	8.77926
6.77756	8.7528
6.76871	8.72057
6.75989	8.60073
6.75109	8.59505
6.74231	8.61139
6.73355	8.63137
6.72482	8.6135
6.71611	8.61488
6.70742	8.56888
6.69875	8.55243
6.69011	8.70606
6.68149	8.80374
6.67289	8.71281
6.66431	8.65398
6.65576	8.62719
6.64722	8.7878
6.63871	9.02886
6.63022	8.90823
6.62175	8.66694
6.61331	8.60914
6.60488	8.57094
6.59648	8.60083
6.5881	8.65888
6.57974	8.74478
6.5714	8.81382
6.56308	8.66759
6.55478	8.64548
6.54651	8.67109
6.53825	8.68458
6.53001	8.72388
6.5218	8.77992
6.51361	8.79367
6.50544	8.87126
6.49729	9.14257
6.48915	9.2209
6.48104	9.04697
6.47295	8.94313
6.46488	8.85727
6.45683	8.89167
6.4488	8.90544
6.44079	8.89532
6.4328	8.98676
6.42482	9.0781
6.41687	9.32157
6.40894	9.3376
6.40103	9.12699
6.39314	9.05125
6.38526	8.94808
6.37741	8.95349
6.36957	9.00409
6.36176	8.87739
6.35396	8.87401
6.34618	9.03395
6.33843	8.86355
6.33069	8.66258
6.32297	8.67339
6.31527	8.66107
6.30758	8.59387
6.29992	8.49928
6.29227	8.44603
6.28465	8.37994
6.27704	8.39678
6.26945	8.39483
6.26188	8.40778
6.25432	8.42927
6.24679	8.3189
6.23927	8.25643
6.23177	8.19112
6.22429	8.19043
6.21683	8.2413
6.20938	8.25352
6.20195	8.19999
6.19454	8.26338
6.18715	8.38183
6.17978	8.32675
6.17242	8.27737
6.16508	8.31829
6.15776	8.41327
6.15045	8.48287
6.14317	8.53341
6.1359	8.45385
6.12864	8.46208
6.12141	8.69861
6.11419	8.92068
6.10699	8.75211
6.0998	8.68066
6.09263	8.67179
6.08549	8.72769
6.07835	8.91436
6.07123	8.97953
6.06413	8.86846
6.05705	9.02215
6.04998	9.27161
6.04293	9.01632
6.0359	8.73852
6.02888	8.7297
6.02187	8.81908
6.01489	8.88336
6.00792	8.81975
6.00096	8.78673
5.99403	8.93045
5.98711	8.92236
5.9802	8.84857
5.97331	8.87589
5.96644	8.89973
5.95958	8.78865
5.95274	8.6966
5.94591	8.79606
5.9391	9.01195
5.9323	8.95923
5.92552	8.8802
5.91876	8.92924
5.91201	8.98883
5.90528	9.00476
5.89856	9.16242
5.89186	9.22494
5.88517	9.30737
5.8785	9.27342
5.87184	9.09322
5.8652	9.16812
5.85857	9.20593
5.85196	9.17852
5.84536	9.20906
5.83878	9.29466
5.83221	9.40334
5.82566	9.51723
5.81912	9.47061
5.81259	9.33532
5.80608	9.29111
5.79959	9.30209
5.79311	9.3812
5.78665	9.43956
5.78019	9.39558
5.77376	9.52567
5.76734	9.74669
5.76093	9.60337
5.75453	9.44311
5.74815	9.48311
5.74179	9.50863
5.73543	9.53499
5.7291	9.56022
5.72277	9.5963
5.71646	9.65567
5.71017	9.64522
5.70389	9.50672
5.69762	9.49715
5.69136	9.58967
5.68513	9.54836
5.6789	9.45116
5.67268	9.36058
5.66648	9.21765
5.6603	9.26569
5.65413	9.36183
5.64797	9.40414
5.64182	9.38327
5.63569	9.24024
5.62957	9.14225
5.62347	9.17545
5.61737	9.19994
5.61129	9.09412
5.60522	9.06192
5.59917	9.05641
5.59313	9.02724
5.5871	9.03099
5.58109	9.1104
5.57509	9.15337
5.5691	9.10611
5.56312	9.06439
5.55716	9.10839
5.55121	9.14159
5.54528	9.12556
5.53935	9.12009
5.53344	9.15997
5.52754	9.22046
5.52166	9.30098
5.51578	9.26273
5.50992	9.21081
5.50407	9.27171
5.49823	9.31829
5.49241	9.35081
5.4866	9.33911
5.4808	9.33511
5.47501	9.34349
5.46923	9.38946
5.46347	9.42938
5.45772	9.43879
5.45198	9.39171
5.44625	9.35894
5.44054	9.31713
5.43484	9.30101
5.42914	9.30679
5.42347	9.3114
5.4178	9.21033
5.41214	9.12706
5.4065	9.11952
5.40087	9.11081
5.39525	9.03165
5.38964	8.9329
5.38404	8.90762
5.37846	8.7677
5.37288	8.62738
5.36732	8.62187
5.36177	8.56973
5.35623	8.52445
5.35071	8.57076
5.34519	8.53867
5.33968	8.52403
5.33419	8.54337
5.32871	8.54542
5.32324	8.49876
5.31778	8.54883
5.31233	8.6883
5.30689	8.78141
5.30147	8.74475
5.29605	8.74415
5.29065	8.76178
5.28525	8.74837
5.27987	8.83194
5.2745	8.93138
5.26914	8.89047
5.26379	8.85497
5.25845	8.92817
5.25312	9.03554
5.24781	9.11682
5.2425	9.12208
5.23721	9.19505
5.23192	9.27852
5.22665	9.37958
5.22138	9.43673
5.21613	9.39824
5.21089	9.42568
5.20566	9.43347
5.20044	9.44309
5.19522	9.47887
5.19002	9.4582
5.18483	9.49215
5.17965	9.48395
5.17448	9.38294
5.16933	9.39752
5.16418	9.44682
5.15904	9.41254
5.15391	9.38545
5.14879	9.48274
5.14368	9.53269
5.13859	9.50656
5.1335	9.45934
5.12842	9.45877
5.12335	9.52054
5.1183	9.50299
5.11325	9.44555
5.10821	9.44216
5.10318	9.46155
5.09817	9.48194
5.09316	9.47813
5.08816	9.46734
5.08317	9.44912
5.07819	9.29524
5.07322	9.19128
5.06826	9.26374
5.06331	9.3163
5.05837	9.32466
5.05344	9.30445
5.04852	9.32327
5.04361	9.35646
5.03871	9.26465
5.03382	9.22006
5.02894	9.30957
5.02406	9.39896
5.0192	9.40301
5.01435	9.3417
5.0095	9.27221
5.00467	9.24401
4.99984	9.2243
4.99502	9.3035
4.99021	9.40275
4.98542	9.45234
4.98063	9.42228
4.97585	9.35508
4.97108	9.39862
4.96632	9.55357
4.96156	9.63143
4.95682	9.58259
4.95209	9.61195
4.94736	9.6061
4.94264	9.63234
4.93794	9.6565
4.93324	9.67667
4.92855	9.68859
4.92387	9.73532
4.9192	9.76965
4.91453	9.71276
4.90988	9.71029
4.90524	9.81653
4.9006	9.87565
4.89597	9.92682
4.89135	9.97264
4.88674	10.0272
4.88214	10.0472
4.87755	10.0443
4.87296	10.0966
4.86839	10.1934
4.86382	10.1785
4.85926	10.1697
4.85471	10.179
4.85017	10.1375
4.84564	10.1921
4.84111	10.2375
4.8366	10.1991
4.83209	10.2017
4.82759	10.2365
4.8231	10.2178
4.81862	10.1428
4.81415	10.1506
4.80968	10.1929
4.80522	10.219
4.80077	10.2115
4.79633	10.2373
4.7919	10.2676
4.78747	10.245
4.78306	10.292
4.77865	10.32
4.77425	10.2631
4.76986	10.2241
4.76547	10.1614
4.7611	10.17
4.75673	10.1725
4.75237	10.1768
4.74802	10.2741
4.74367	10.2857
4.73934	10.2194
4.73501	10.1506
4.73069	10.1734
4.72638	10.2646
4.72207	10.3229
4.71777	10.3081
4.71348	10.3524
4.7092	10.3467
4.70493	10.3092
4.70066	10.3273
4.69641	10.3147
4.69216	10.2736
4.68791	10.2677
4.68368	10.2385
4.67945	10.1529
4.67523	10.1883
4.67102	10.3279
4.66682	10.3432
4.66262	10.251
4.65843	10.2498
4.65425	10.285
4.65007	10.3101
4.64591	10.3484
4.64175	10.3375
4.6376	10.316
4.63345	10.3501
4.62932	10.3514
4.62519	10.2693
4.62106	10.1963
4.61695	10.2158
4.61284	10.3211
4.60874	10.3249
4.60465	10.3225
4.60056	10.362
4.59648	10.351
4.59241	10.3104
4.58835	10.3288
4.58429	10.3392
4.58024	10.2743
4.5762	10.3056
4.57216	10.3496
4.56814	10.3306
4.56411	10.3577
4.5601	10.4102
4.55609	10.4073
4.55209	10.3404
4.5481	10.3215
4.54411	10.3668
4.54013	10.4093
4.53616	10.4224
4.5322	10.3421
4.52824	10.3238
4.52429	10.3681
4.52034	10.4603
4.51641	10.4983
4.51247	10.3219
4.50855	10.2633
4.50463	10.3374
4.50072	10.3636
4.49682	10.3669
4.49292	10.3749
4.48903	10.343
4.48515	10.2814
4.48127	10.2446
4.4774	10.2698
4.47354	10.3404
4.46968	10.3352
4.46584	10.3659
4.46199	10.3139
4.45815	10.2231
4.45432	10.2151
4.4505	10.2917
4.44668	10.3623
4.44287	10.3957
4.43907	10.3686
4.43527	10.4054
4.43148	10.393
4.4277	10.3039
4.42392	10.3462
4.42015	10.4886
4.41638	10.4751
4.41262	10.4009
4.40887	10.3475
4.40513	10.2987
4.40139	10.3215
4.39765	10.3197
4.39393	10.2722
4.39021	10.3223
4.38649	10.3896
4.38278	10.4486
4.37908	10.5289
4.37539	10.4932
4.3717	10.4036
4.36801	10.4602
4.36434	10.4562
4.36067	10.3708
4.357	10.46
4.35335	10.4782
4.34969	10.4432
4.34605	10.4675
4.34241	10.4592
4.33877	10.417
4.33514	10.508
4.33152	10.5816
4.32791	10.4948
4.3243	10.3895
4.32069	10.3935
4.3171	10.391
4.31351	10.3848
4.30992	10.3866
4.30634	10.4135
4.30277	10.4228
4.2992	10.4303
4.29564	10.4131
4.29208	10.3791
4.28853	10.3824
4.28499	10.3373
4.28145	10.3222
4.27792	10.3975
4.27439	10.407
4.27087	10.3626
4.26735	10.4273
4.26384	10.4333
4.26034	10.4216
4.25684	10.4636
4.25335	10.4589
4.24986	10.4456
4.24638	10.3558
4.24291	10.3584
4.23944	10.3639
4.23598	10.3576
4.23252	10.3891
4.22906	10.4551
4.22562	10.5028
4.22218	10.3944
4.21874	10.3251
4.21531	10.3949
4.21189	10.497
4.20847	10.5044
4.20506	10.4846
4.20165	10.516
4.19825	10.5658
4.19485	10.5974
4.19146	10.5526
4.18807	10.4902
4.18469	10.4765
4.18132	10.4987
4.17795	10.5025
4.17458	10.5055
4.17123	10.4867
4.16787	10.5359
4.16453	10.5271
4.16118	10.4651
4.15785	10.429
4.15451	10.4089
4.15119	10.4662
4.14787	10.5564
4.14455	10.5171
4.14124	10.4213
4.13794	10.4325
4.13464	10.4758
4.13134	10.5825
4.12805	10.5973
4.12477	10.5982
4.12149	10.6257
4.11822	10.5851
4.11495	10.6048
4.11168	10.5814
4.10843	10.5306
4.10517	10.5597
4.10192	10.565
4.09868	10.5446
4.09545	10.5998
4.09221	10.5826
4.08899	10.577
4.08576	10.6592
4.08255	10.678
4.07933	10.6815
4.07613	10.5932
4.07292	10.5306
4.06973	10.4994
4.06654	10.5328
4.06335	10.6544
4.06017	10.5954
4.05699	10.4997
4.05382	10.5993
4.05065	10.6834
4.04749	10.659
4.04433	10.6053
4.04118	10.6479
4.03803	10.6715
4.03489	10.6575
4.03175	10.6798
4.02862	10.6246
4.02549	10.6464
4.02237	10.6948
4.01925	10.668
4.01614	10.6109
4.01303	10.5933
4.00993	10.6483
4.00683	10.7208
4.00373	10.6939
4.00064	10.5626
3.99756	10.5439
3.99448	10.6232
3.9914	10.6771
3.98833	10.619
3.98527	10.5841
3.98221	10.6062
3.97915	10.635
3.9761	10.6407
3.97305	10.6015
3.97001	10.5475
3.96697	10.5142
3.96394	10.5866
3.96091	10.6313
3.95789	10.6656
3.95487	10.5981
3.95186	10.6593
3.94885	10.7362
3.94584	10.6615
3.94284	10.6286
3.93984	10.6948
3.93685	10.6763
3.93386	10.6707
3.93088	10.7396
3.9279	10.7477
3.92493	10.6555
3.92196	10.5158
3.919	10.566
3.91604	10.6301
3.91308	10.595
3.91013	10.6181
3.90718	10.6644
3.90424	10.7108
3.9013	10.675
3.89837	10.5845
3.89544	10.6276
3.89252	10.6698
3.8896	10.5864
3.88668	10.5325
3.88377	10.5813
3.88086	10.6714
3.87796	10.7342
3.87506	10.7183
3.87217	10.6474
3.86928	10.6104
3.86639	10.6267
3.86351	10.6549
3.86064	10.7234
3.85776	10.6805
3.8549	10.6475
3.85203	10.6754
3.84917	10.7427
3.84631	10.7467
3.84346	10.7462
3.84062	10.7467
3.83777	10.7123
3.83494	10.73
3.8321	10.6933
3.82927	10.6362
3.82644	10.6078
3.82362	10.7037
3.82081	10.8034
3.81799	10.7499
3.81518	10.6826
3.81238	10.6248
3.80958	10.5995
3.80678	10.7035
3.80399	10.6942
3.8012	10.6311
3.79841	10.6213
3.79563	10.6041
3.79286	10.5705
3.79008	10.5666
3.78731	10.6594
3.78455	10.6238
3.78179	10.6438
3.77903	10.6629
3.77628	10.5687
3.77353	10.4722
3.77079	10.5171
3.76805	10.5742
3.76531	10.5973
3.76258	10.6562
3.75985	10.69
3.75713	10.736
3.7544	10.7089
3.75169	10.6493
3.74898	10.5978
3.74627	10.5792
3.74356	10.5927
3.74086	10.6533
3.73816	10.6991
3.73547	10.6475
3.73278	10.6251
3.7301	10.6045
3.72741	10.5245
3.72474	10.5491
3.72206	10.6579
3.71939	10.6893
3.71673	10.7035
3.71406	10.6644
3.71141	10.6396
3.70875	10.581
3.7061	10.6338
3.70345	10.6337
3.70081	10.6276
3.69817	10.6926
3.69553	10.669
3.6929	10.6765
3.69027	10.6692
3.68765	10.5534
3.68503	10.5414
3.68241	10.6493
3.6798	10.6594
3.67719	10.5993
3.67458	10.5632
3.67198	10.5609
3.66938	10.5748
3.66678	10.705
3.66419	10.724
3.66161	10.6449
3.65902	10.4908
3.65644	10.4179
3.65387	10.4674
3.65129	10.6168
3.64872	10.6017
3.64616	10.552
3.64359	10.5408
3.64103	10.5459
3.63848	10.5711
3.63593	10.6528
3.63338	10.6598
3.63084	10.6052
3.6283	10.5278
3.62576	10.5081
3.62322	10.4843
3.62069	10.5624
3.61817	10.6443
3.61564	10.571
3.61312	10.5356
3.61061	10.5283
3.6081	10.5347
3.60559	10.565
3.60308	10.5423
3.60058	10.5674
3.59808	10.5754
3.59558	10.6069
3.59309	10.6146
3.59061	10.5145
3.58812	10.5019
3.58564	10.5201
3.58316	10.4395
3.58069	10.3824
3.57822	10.5117
3.57575	10.6153
3.57328	10.6067
3.57082	10.5226
3.56836	10.5028
3.56591	10.5014
3.56346	10.4288
3.56101	10.4151
3.55857	10.5402
3.55613	10.6162
3.55369	10.6444
3.55126	10.6413
3.54883	10.5873
3.5464	10.5072
3.54397	10.4384
3.54155	10.4702
3.53914	10.5107
3.53672	10.4524
3.53431	10.4925
3.5319	10.5918
3.5295	10.553
3.5271	10.4959
3.5247	10.4621
3.52231	10.4449
3.51991	10.435
3.51753	10.4684
3.51514	10.4555
3.51276	10.4078
3.51038	10.423
3.50801	10.5103
3.50563	10.5308
3.50327	10.5325
3.5009	10.5052
3.49854	10.4069
3.49618	10.3289
3.49382	10.3684
3.49147	10.4673
3.48912	10.4565
3.48677	10.4403
3.48443	10.4548
3.48209	10.4636
3.47975	10.4076
3.47742	10.4129
3.47509	10.4051
3.47276	10.3724
3.47044	10.442
3.46812	10.4295
3.4658	10.3358
3.46348	10.4244
3.46117	10.4364
3.45886	10.3919
3.45656	10.2575
3.45425	10.2068
3.45195	10.31
3.44966	10.4021
3.44736	10.3631
3.44507	10.3596
3.44279	10.4031
3.4405	10.4887
3.43822	10.5291
3.43594	10.4152
3.43367	10.2922
3.43139	10.2891
3.42912	10.3269
3.42686	10.3234
3.42459	10.3636
3.42233	10.3333
3.42007	10.3139
3.41782	10.3185
3.41557	10.3944
3.41332	10.3478
3.41108	10.2187
3.40883	10.2106
3.40659	10.176
3.40435	10.1771
3.40212	10.2158
3.39989	10.2729
3.39766	10.3493
3.39544	10.3506
3.39322	10.2352
3.391	10.1543
3.38878	10.2367
3.38657	10.2877
3.38436	10.288
3.38215	10.2655
3.37994	10.1853
3.37774	10.1307
3.37554	10.0582
3.37335	10.1077
3.37115	10.1712
3.36896	10.2086
3.36678	10.1493
3.36459	10.0411
3.36241	10.1152
3.36023	10.2009
3.35805	10.2418
3.35588	10.1914
3.35371	10.0326
3.35154	9.93448
3.34938	10.0091
3.34721	10.124
3.34505	10.1157
3.3429	10.0639
3.34074	10.0412
3.33859	9.99983
3.33644	9.97704
3.3343	9.99124
3.33215	10.0701
3.33001	10.1006
3.32788	10.0634
3.32574	9.95991
3.32361	9.9195
3.32148	9.9724
3.31936	9.98867
3.31723	10.0052
3.31511	10.0359
3.31299	10.0183
3.31088	9.94767
3.30876	9.9012
3.30665	9.85487
3.30455	9.89301
3.30244	9.91379
3.30034	9.9508
3.29824	10.0128
3.29614	10.0333
3.29405	9.99412
3.29196	9.93579
3.28987	9.98259
3.28778	9.95647
3.2857	9.83159
3.28362	9.91703
3.28154	10.0437
3.27946	10.0255
3.27739	9.84695
3.27532	9.76693
3.27325	9.85806
3.27119	9.86383
3.26913	9.81036
3.26707	9.79461
3.26501	9.7812
3.26295	9.78094
3.2609	9.76103
3.25885	9.78889
3.2568	9.71885
3.25476	9.70929
3.25272	9.7588
3.25068	9.81225
3.24864	9.8015
3.24661	9.76227
3.24458	9.79937
3.24255	9.81595
3.24052	9.72837
3.2385	9.68294
3.23648	9.74684
3.23446	9.70108
3.23244	9.65544
3.23043	9.70874
3.22841	9.7352
3.2264	9.68103
3.2244	9.68767
3.22239	9.66586
3.22039	9.65398
3.21839	9.75748
3.2164	9.79564
3.2144	9.72842
3.21241	9.70655
3.21042	9.73931
3.20844	9.74664
3.20645	9.68567
3.20447	9.58868
3.20249	9.58023
3.20051	9.58767
3.19854	9.64581
3.19657	9.60767
3.1946	9.53344
3.19263	9.59775
3.19067	9.47521
3.1887	9.40505
3.18674	9.45114
3.18479	9.43789
3.18283	9.57684
3.18088	9.53358
3.17893	9.40427
3.17698	9.47466
3.17504	9.59081
3.17309	9.57843
3.17115	9.60564
3.16921	9.56269
3.16728	9.45121
3.16534	9.39409
3.16341	9.37236
3.16148	9.42202
3.15956	9.40572
3.15763	9.43583
3.15571	9.53972
3.15379	9.46502
3.15187	9.37266
3.14996	9.39848
3.14805	9.33653
3.14614	9.29384
3.14423	9.34621
3.14232	9.46988
3.14042	9.46755
3.13852	9.42315
3.13662	9.41153
3.13472	9.32087
3.13283	9.32772
3.13094	9.34415
3.12905	9.34606
3.12716	9.22178
3.12528	9.18233
3.12339	9.26916
3.12151	9.2452
3.11964	9.23639
3.11776	9.21753
3.11589	9.06465
3.11401	9.11587
3.11214	9.18996
3.11028	9.18516
3.10841	9.15057
3.10655	9.09307
3.10469	9.20875
3.10283	9.35276
3.10098	9.3077
3.09912	9.16114
3.09727	9.1388
3.09542	9.21607
3.09358	9.14519
3.09173	9.09312
3.08989	9.1669
3.08805	9.09846
3.08621	9.1358
3.08437	9.22478
3.08254	9.16528
3.08071	9.18403
3.07888	9.15481
3.07705	9.0273
3.07523	8.96495
3.0734	9.05067
3.07158	9.14102
3.06977	9.11023
3.06795	9.01777
3.06613	9.01547
3.06432	9.11619
3.06251	9.11658
3.0607	9.06955
3.0589	9.11667
3.0571	9.16582
3.05529	9.073
3.05349	9.11882
3.0517	9.24936
3.0499	9.11717
3.04811	8.99924
3.04632	8.97367
3.04453	8.86998
3.04274	8.94284
3.04096	9.1446
3.03918	9.08925
3.0374	8.9777
3.03562	9.13106
3.03384	9.14477
3.03207	8.97229
3.03029	9.00572
3.02852	9.05169
3.02676	9.08214
3.02499	9.13731
3.02323	9.14428
3.02146	9.12056
3.0197	9.0787
3.01795	9.10382
3.01619	9.159
3.01444	9.09082
3.01269	9.01558
3.01094	9.05952
3.00919	9.08457
3.00744	8.94911
3.0057	8.89035
3.00396	8.9152
3.00222	9.00553
3.00048	9.05167
2.99875	9.00109
2.99701	9.12545
2.99528	9.18692
2.99355	9.00344
2.99183	8.99213
2.9901	8.97677
2.98838	8.95636
2.98666	9.02329
2.98494	9.01175
2.98322	9.02184
2.9815	9.07528
2.97979	8.93196
2.97808	8.80063
2.97637	8.98873
2.97466	8.99247
2.97295	8.89848
2.97125	8.86462
2.96955	8.74509
2.96785	8.7066
2.96615	8.79829
2.96446	8.93399
2.96276	8.86322
2.96107	8.80174
2.95938	8.88695
2.95769	8.94778
2.95601	8.8979
2.95432	8.88525
2.95264	8.89941
2.95096	8.79672
2.94928	8.85175
2.9476	8.96682
2.94593	9.01565
2.94425	9.01419
2.94258	9.00758
2.94092	8.97044
2.93925	8.93425
2.93758	8.89266
2.93592	8.88514
2.93426	8.94307
2.9326	9.08489
2.93094	9.2041
2.92928	9.18464
2.92763	9.11336
2.92598	9.12888
2.92433	9.09104
2.92268	8.92674
2.92103	8.88767
2.91939	8.89318
2.91775	9.05849
2.9161	9.23238
2.91447	9.27881
2.91283	9.09827
2.91119	8.97047
2.90956	9.09179
2.90793	9.13947
2.9063	9.05605
2.90467	9.02511
2.90304	9.0861
2.90142	9.22738
2.89979	9.32249
2.89817	9.24976
2.89656	9.09191
2.89494	9.11397
2.89332	9.12202
2.89171	9.10938
2.8901	9.1425
2.88849	9.24238
2.88688	9.18996
2.88527	9.13595
2.88367	9.20974
2.88206	9.24823
2.88046	9.24151
2.87886	9.28939
2.87727	9.24898
2.87567	9.15634
2.87408	9.168
2.87248	9.30894
2.87089	9.35372
2.8693	9.36179
2.86772	9.45101
2.86613	9.59588
2.86455	9.52495
2.86297	9.42664
2.86139	9.46191
2.85981	9.46858
2.85823	9.46918
2.85666	9.49804
2.85508	9.60771
2.85351	9.63188
2.85194	9.60615
2.85038	9.5285
2.84881	9.45795
2.84724	9.69563
2.84568	9.7781
2.84412	9.66014
2.84256	9.67447
2.841	9.69696
2.83945	9.6251
2.83789	9.55666
2.83634	9.55671
2.83479	9.61905
2.83324	9.82996
2.83169	9.89225
2.83015	9.73215
2.82861	9.79972
2.82706	9.95477
2.82552	9.9447
2.82398	9.94414
2.82245	9.8536
2.82091	9.78408
2.81938	9.77211
2.81784	9.80041
2.81631	9.8459
2.81479	9.82876
2.81326	9.97847
2.81173	10.1176
2.81021	9.9992
2.80869	9.92598
2.80716	9.99513
2.80565	9.98947
2.80413	9.96147
2.80261	9.9262
2.8011	9.90667
2.79959	10.0194
2.79808	10.1145
2.79657	10.1308
2.79506	10.1668
2.79355	10.2232
2.79205	10.2105
2.79055	10.1587
2.78904	10.2391
2.78754	10.3922
2.78605	10.4113
2.78455	10.3102
2.78306	10.3414
2.78156	10.5218
2.78007	10.5147
2.77858	10.2907
2.77709	10.088
2.77561	10.1023
2.77412	10.3135
2.77264	10.5757
2.77116	10.7152
2.76968	10.6646
2.7682	10.7444
2.76672	10.8524
2.76524	10.7836
2.76377	10.7491
2.7623	10.5201
2.76083	10.3545
2.75936	10.4095
2.75789	10.5683
2.75642	10.6538
2.75496	10.6209
2.7535	10.6429
2.75203	10.7259
2.75057	10.6343
2.74912	10.6645
2.74766	10.7089
2.7462	10.6982
2.74475	10.7764
2.7433	10.82
2.74185	10.9533
2.7404	11.1722
2.73895	11.1438
2.7375	11.0074
2.73606	10.9551
2.73462	10.8582
2.73318	10.7795
2.73174	10.8255
2.7303	10.8845
2.72886	10.8316
2.72742	10.9068
2.72599	10.9757
2.72456	10.959
2.72313	10.9021
2.7217	10.9499
2.72027	11.1951
2.71884	11.2613
2.71742	11.0662
2.71599	10.899
2.71457	10.9751
2.71315	11.0423
2.71173	11.1894
2.71032	11.3051
2.7089	11.2208
2.70748	11.1044
2.70607	11.0242
2.70466	11.0398
2.70325	11.0983
2.70184	11.1436
2.70043	11.1035
2.69903	10.9363
2.69762	10.9241
2.69622	11.1126
2.69482	11.3023
2.69342	11.3339
2.69202	11.2667
2.69062	11.1627
2.68923	11.0871
2.68783	11.1649
2.68644	11.1762
2.68505	11.0025
2.68366	10.93
2.68227	11.0398
2.68089	11.1014
2.6795	11.1548
2.67812	11.1431
2.67673	11.1485
2.67535	11.0491
2.67397	11.0512
2.6726	11.1788
2.67122	11.46
2.66984	11.3938
2.66847	11.1438
2.6671	11.37
2.66572	11.3834
2.66435	11.2237
2.66299	10.9911
2.66162	11.0022
2.66025	11.2011
2.65889	11.2035
2.65753	11.0069
2.65616	11.0178
2.65481	11.0864
2.65345	11.1923
2.65209	11.2012
2.65073	11.1889
2.64938	11.1208
2.64803	11.0116
2.64667	11.095
2.64532	11.1113
2.64397	10.9874
2.64263	10.9408
2.64128	10.9609
2.63994	10.9097
2.63859	10.9944
2.63725	11.0963
2.63591	11.1372
2.63457	11.0978
2.63323	11.0402
2.6319	11.2141
2.63056	11.3672
2.62923	11.2269
2.62789	11.1968
2.62656	11.2718
2.62523	11.0792
2.6239	10.9042
2.62258	10.9606
2.62125	11.1428
2.61993	11.1455
2.6186	11.0707
2.61728	11.205
2.61596	11.2203
2.61464	11.008
2.61332	11.108
2.61201	11.155
2.61069	11.1031
2.60938	10.9932
2.60807	10.9318
2.60675	11.1496
2.60544	11.3365
2.60414	11.24
2.60283	11.0637
2.60152	10.9799
2.60022	10.9941
2.59891	11.1006
2.59761	11.2437
2.59631	11.3254
2.59501	11.5028
2.59371	11.2928
2.59242	10.9878
2.59112	11.1096
2.58983	11.1039
2.58853	10.9418
2.58724	10.9636
2.58595	11.0055
2.58466	11.2124
2.58338	11.2856
2.58209	11.1375
2.5808	11.1234
2.57952	10.9926
2.57824	11.0352
2.57695	11.1619
2.57567	11.1465
2.5744	11.189
2.57312	11.192
2.57184	10.9528
2.57057	10.9146
2.56929	11.06
2.56802	11.0396
2.56675	10.9689
2.56548	11.0357
2.56421	11.2317
2.56294	11.2643
2.56168	11.3191
2.56041	11.184
2.55915	11.0907
2.55789	11.1295
2.55662	11.0371
2.55536	11.0187
2.5541	10.9845
2.55285	10.9224
2.55159	10.9459
2.55034	10.9971
2.54908	10.9844
2.54783	10.8941
2.54658	10.9451
2.54533	10.9662
2.54408	10.873
2.54283	10.8673
2.54159	10.9606
2.54034	11.0734
2.5391	11.0989
2.53785	11.0467
2.53661	11.0391
2.53537	11.0269
2.53413	10.9728
2.53289	10.9427
2.53166	10.8608
2.53042	10.9459
2.52919	11.0953
2.52795	11.0377
2.52672	10.8657
2.52549	10.9285
2.52426	11.0674
2.52303	11.0922
2.52181	11.1184
2.52058	10.9474
2.51936	10.9034
2.51813	11.0463
2.51691	10.905
2.51569	10.7762
2.51447	10.8535
2.51325	10.9011
2.51203	10.9189
2.51082	10.9279
2.5096	10.9536
2.50839	11.0062
2.50717	11.1436
2.50596	11.0485
2.50475	11.0092
2.50354	11.1317
2.50233	11.0095
2.50113	10.9389
2.49992	10.9939
2.49872	10.9568
2.49751	10.8041
2.49631	10.7719
2.49511	10.9052
2.49391	10.8868
2.49271	10.8974
2.49151	10.9362
2.49031	10.9172
2.48912	10.9162
2.48792	10.9329
2.48673	10.9907
2.48554	10.9391
2.48435	10.9037
2.48316	10.9652
2.48197	10.9664
2.48078	10.8446
2.4796	11.0125
2.47841	11.0666
2.47723	10.92
2.47604	10.7395
2.47486	10.7981
2.47368	10.9531
2.4725	10.9199
2.47132	10.6641
2.47014	10.6525
2.46897	10.8199
2.46779	10.8645
2.46662	10.87
2.46545	10.9877
2.46427	11.0566
2.4631	10.9451
2.46193	10.9168
2.46077	10.852
2.4596	10.7329
2.45843	10.7628
2.45727	10.793
2.4561	10.8225
2.45494	10.7902
2.45378	10.8831
2.45262	11.0363
2.45146	10.9647
2.4503	10.8139
2.44914	10.828
2.44799	10.9325
2.44683	10.8982
2.44568	10.8191
2.44452	10.8642
2.44337	10.8636
2.44222	10.8632
2.44107	10.9147
2.43992	10.9394
2.43877	11.0786
2.43763	11.0523
2.43648	10.8222
2.43534	10.7314
2.43419	10.8136
2.43305	10.9436
2.43191	10.8634
2.43077	10.7416
2.42963	10.787
2.42849	10.806
2.42736	10.8709
2.42622	10.8199
2.42509	10.7283
2.42395	10.8701
2.42282	10.8799
2.42169	10.8322
2.42056	10.8894
2.41943	11.0572
2.4183	11.032
2.41717	10.8047
2.41605	10.7288
2.41492	10.7898
2.4138	10.9225
2.41267	10.8367
2.41155	10.8161
2.41043	10.9476
2.40931	10.8769
2.40819	10.6857
2.40707	10.6566
2.40595	10.8274
2.40484	10.7232
2.40372	10.5528
2.40261	10.5937
2.4015	10.6951
2.40039	10.8415
2.39928	11.0237
2.39817	11.1046
2.39706	10.9162
2.39595	10.7028
2.39484	10.7004
2.39374	10.8809
2.39263	10.8803
2.39153	10.7685
2.39043	10.6442
2.38932	10.759
2.38822	10.8698
2.38712	10.8383
2.38603	10.6625
2.38493	10.6499
2.38383	10.6642
2.38274	10.6424
2.38164	10.87
2.38055	10.9761
2.37946	10.8651
2.37836	10.7573
2.37727	10.6522
2.37618	10.5557
2.3751	10.6028
2.37401	10.7543
2.37292	10.8186
2.37184	10.8118
2.37075	10.9031
2.36967	10.9966
2.36859	10.8919
2.3675	10.717
2.36642	10.6755
2.36534	10.7246
2.36427	10.7457
2.36319	10.8239
2.36211	11.0425
2.36104	11.1371
2.35996	11.0054
2.35889	10.8232
2.35781	10.7667
2.35674	10.94
2.35567	11.0159
2.3546	10.7983
2.35353	10.6166
2.35247	10.6543
2.3514	10.6427
2.35033	10.7498
2.34927	10.875
2.3482	10.8931
2.34714	10.9023
2.34608	10.8752
2.34502	10.7907
2.34396	10.6862
2.3429	10.8577
2.34184	11.0146
2.34078	10.9053
2.33973	10.8213
2.33867	10.7624
2.33762	10.7369
2.33656	10.7642
2.33551	10.7474
2.33446	10.8371
2.33341	10.9004
2.33236	10.8923
2.33131	10.8143
2.33026	10.7735
2.32922	10.5853
2.32817	10.5794
2.32712	10.6245
2.32608	10.7936
2.32504	10.9797
2.324	10.9967
2.32295	11.0585
2.32191	11.0255
2.32087	10.919
2.31984	10.9015
2.3188	10.8512
2.31776	10.7079
2.31673	10.6015
2.31569	10.6105
2.31466	10.6546
2.31362	10.6951
2.31259	10.7327
2.31156	10.8121
2.31053	10.931
2.3095	10.8552
2.30847	10.7858
2.30745	10.7341
2.30642	10.7991
2.3054	10.8315
2.30437	10.8856
2.30335	10.7781
2.30232	10.6775
2.3013	10.7711
2.30028	10.809
2.29926	10.6783
2.29824	10.676
2.29722	10.9048
2.29621	10.8743
2.29519	10.7249
2.29417	10.8779
2.29316	11.0378
2.29215	10.8642
2.29113	10.7021
2.29012	10.6519
2.28911	10.5472
2.2881	10.5695
2.28709	10.7248
2.28608	10.8437
2.28507	10.7954
2.28407	10.6682
2.28306	10.8342
2.28206	10.8782
2.28105	10.7275
2.28005	10.6988
2.27905	10.8252
2.27805	10.8437
2.27705	10.8088
2.27605	10.7653
2.27505	10.704
2.27405	10.7499
2.27305	10.8075
2.27206	10.6955
2.27106	10.5511
2.27007	10.7404
2.26907	11.086
2.26808	10.9502
2.26709	10.7438
2.2661	10.6505
2.26511	10.6641
2.26412	10.6143
2.26313	10.5754
2.26214	10.6768
2.26116	10.5459
2.26017	10.5222
2.25919	10.6184
2.2582	10.4586
2.25722	10.5519
2.25624	10.7162
2.25526	10.7138
2.25428	10.7132
2.2533	10.6168
2.25232	10.5481
2.25134	10.6334
2.25036	10.6634
2.24939	10.6712
2.24841	10.8348
2.24744	10.8289
2.24646	10.6996
2.24549	10.6752
2.24452	10.615
2.24355	10.6746
2.24257	10.6925
2.24161	10.6054
2.24064	10.5436
2.23967	10.6658
2.2387	10.7813
2.23774	10.8058
2.23677	10.7279
2.23581	10.7087
2.23484	10.7441
2.23388	10.7003
2.23292	10.5488
2.23196	10.6285
2.231	10.6978
2.23004	10.6038
2.22908	10.5316
2.22812	10.4884
2.22716	10.612
2.22621	10.6786
2.22525	10.6354
2.2243	10.7352
2.22334	10.7789
2.22239	10.8231
2.22144	10.539
2.22049	10.3963
2.21953	10.4578
2.21859	10.4907
2.21764	10.4213
2.21669	10.3668
2.21574	10.5869
2.21479	10.744
2.21385	10.5917
2.2129	10.6408
2.21196	10.6747
2.21102	10.6618
2.21007	10.693
2.20913	10.7726
2.20819	10.7965
2.20725	10.7313
2.20631	10.7484
2.20537	10.6993
2.20444	10.6578
2.2035	10.6297
2.20256	10.597
2.20163	10.5848
2.20069	10.4962
2.19976	10.6949
2.19883	11.0037
2.19789	10.8195
2.19696	10.6829
2.19603	10.7492
2.1951	10.6701
2.19417	10.5421
2.19325	10.5039
2.19232	10.4295
2.19139	10.5093
2.19047	10.5315
2.18954	10.5204
2.18862	10.5328
2.18769	10.5474
2.18677	10.6669
2.18585	10.6756
2.18493	10.5013
2.18401	10.4893
2.18309	10.6885
2.18217	10.7551
2.18125	10.646
2.18033	10.5397
2.17942	10.4769
2.1785	10.544
2.17759	10.8479
2.17667	10.9046
2.17576	10.7207
2.17485	10.5962
2.17393	10.428
2.17302	10.3133
2.17211	10.3876
2.1712	10.5145
2.17029	10.6795
2.16939	10.7582
2.16848	10.7676
2.16757	10.6595
2.16667	10.6389
2.16576	10.7015
2.16486	10.7143
2.16395	10.5046
2.16305	10.385
2.16215	10.484
2.16125	10.6523
2.16035	10.8678
2.15945	10.9424
2.15855	10.7448
2.15765	10.8864
2.15675	10.8845
2.15586	10.5734
2.15496	10.3913
2.15406	10.4132
2.15317	10.6081
2.15228	10.706
2.15138	10.6145
2.15049	10.7592
2.1496	10.8291
2.14871	10.8103
2.14782	10.6644
2.14693	10.3169
2.14604	10.204
2.14515	10.3852
2.14427	10.5964
2.14338	10.4243
2.14249	10.3842
2.14161	10.6191
2.14072	10.6207
2.13984	10.6143
2.13896	10.6389
2.13808	10.7297
2.13719	10.8026
2.13631	10.6349
2.13543	10.5626
2.13455	10.6994
2.13368	10.8536
2.1328	10.5999
2.13192	10.4443
2.13105	10.6071
2.13017	10.62
2.1293	10.6822
2.12842	10.6637
2.12755	10.5287
2.12668	10.3804
2.1258	10.4423
2.12493	10.6597
2.12406	10.6623
2.12319	10.554
2.12232	10.6229
2.12145	10.4013
2.12059	10.3022
2.11972	10.4831
2.11885	10.5895
2.11799	10.4794
2.11712	10.2679
2.11626	10.3854
2.1154	10.414
2.11453	10.4135
2.11367	10.6422
2.11281	10.7846
2.11195	10.5828
2.11109	10.555
2.11023	10.557
2.10937	10.4973
2.10851	10.5388
2.10766	10.493
2.1068	10.532
2.10594	10.67
2.10509	10.6048
2.10423	10.4243
2.10338	10.4183
2.10253	10.3244
2.10168	10.1801
2.10082	10.3119
2.09997	10.3577
2.09912	10.475
2.09827	10.7604
2.09742	10.7023
2.09658	10.4084
2.09573	10.4223
2.09488	10.5001
2.09404	10.4946
2.09319	10.5931
2.09235	10.3424
2.0915	10.3021
2.09066	10.4531
2.08982	10.3766
2.08897	10.5169
2.08813	10.6562
2.08729	10.7236
2.08645	10.6505
2.08561	10.5193
2.08477	10.395
2.08394	10.6601
2.0831	10.8645
2.08226	10.6211
2.08143	10.4731
2.08059	10.4613
2.07976	10.6479
2.07892	10.5285
2.07809	10.3886
2.07726	10.7554
2.07643	10.3414
2.07559	10.1053
2.07476	10.4016
2.07393	10.1531
2.0731	9.99654
2.07228	10.2998
2.07145	10.5742
2.07062	10.3239
2.06979	10.5332
2.06897	10.6679
2.06814	10.539
2.06732	10.4919
2.06649	10.435
2.06567	10.3575
2.06485	10.4109
2.06403	10.5753
2.0632	10.6568
2.06238	10.5047
2.06156	10.603
2.06074	10.767
2.05993	10.652
2.05911	10.2705
2.05829	10.1935
2.05747	10.3959
2.05666	10.5873
2.05584	10.3104
2.05503	10.5404
2.05421	10.6734
2.0534	10.5618
2.05259	10.4267
2.05177	10.3704
2.05096	10.3218
2.05015	10.4033
2.04934	10.5305
2.04853	10.4112
2.04772	10.4023
2.04691	10.4648
2.04611	10.3876
2.0453	10.4339
2.04449	10.4381
2.04369	10.4173
2.04288	10.6354
2.04208	10.7244
2.04127	10.8416
2.04047	10.9083
2.03967	10.8825
2.03886	10.7331
2.03806	10.6974
2.03726	10.4593
2.03646	10.3425
2.03566	10.2135
2.03486	10.2834
2.03407	10.474
2.03327	10.7146
2.03247	10.7148
2.03167	10.7679
2.03088	10.4945
2.03008	10.5593
2.02929	10.7767
2.0285	10.4397
2.0277	10.224
2.02691	10.5191
2.02612	10.5525
2.02533	10.1267
2.02453	10.118
2.02374	10.3517
2.02295	10.5742
2.02217	10.3686
2.02138	10.3228
2.02059	10.5
2.0198	10.319
2.01902	10.2836
2.01823	10.5139
2.01744	10.5717
2.01666	10.5853
2.01588	10.5995
2.01509	10.5274
2.01431	10.3497
2.01353	10.2394
2.01275	10.1506
2.01196	10.2712
2.01118	10.2624
2.0104	10.2205
2.00963	10.3225
2.00885	10.4924
2.00807	10.5733
2.00729	10.5267
2.00651	10.468
2.00574	10.5525
2.00496	10.648
2.00419	10.4346
2.00341	10.2191
2.00264	10.4424
2.00187	10.4924
2.00109	10.4386
2.00032	10.3703
