Name: Trona Na_3(CO_3)(HCO_3).2H_2O
Type: Mineral
Class: Carbonates
Subclass: 
Particle Size: 0-45um
Sample No.: C-4A
Owner: JPL
Wavelength range: IR
Origin: USA, Wyoming, Sweetwater County
Collected by Ward's
Description: 





Measurement: Hemispherical reflectance
First Column: X
Second Column: Y
X Units:  Wavelength (micrometers)
Y Units:  Reflectance (percent)
First X Value: 15.3853
Last X Value: 2.00032
Number of X Values: 2256
Additional information: c04aa.txt
 
15.3853	3.95286
15.3397	4.20474
15.2945	4.11626
15.2495	3.98366
15.2048	3.66087
15.1603	3.52768
15.1161	3.50428
15.0722	3.33715
15.0285	2.8848
14.9851	2.64727
14.9419	2.65922
14.8989	2.74944
14.8563	2.90456
14.8138	2.66656
14.7716	2.54684
14.7296	2.6746
14.6879	2.58634
14.6464	2.67325
14.6052	2.58955
14.5641	2.19533
14.5233	1.96982
14.4828	1.90568
14.4424	1.76725
14.4023	1.53947
14.3624	1.21112
14.3227	1.17938
14.2833	1.37707
14.244	1.55366
14.205	1.72268
14.1662	1.68198
14.1276	1.77808
14.0892	1.78083
14.051	1.7827
14.0131	1.65133
13.9753	1.64593
13.9377	1.82671
13.9004	1.73965
13.8632	1.86215
13.8262	1.95967
13.7895	1.93345
13.7529	1.91498
13.7165	1.96665
13.6803	1.93184
13.6443	2.06176
13.6085	2.20102
13.5729	2.12647
13.5374	2.20535
13.5022	2.29056
13.4671	2.27702
13.4322	2.30822
13.3975	2.33474
13.363	2.33395
13.3286	2.33768
13.2944	2.39709
13.2604	2.46381
13.2266	2.54427
13.193	2.59442
13.1595	2.64647
13.1262	2.54927
13.093	2.46503
13.06	2.59459
13.0272	2.71099
12.9946	2.68012
12.9621	2.42887
12.9298	2.48885
12.8976	2.77561
12.8656	2.79219
12.8337	2.82795
12.8021	2.9738
12.7705	3.05687
12.7391	3.03409
12.7079	2.83037
12.6769	2.74122
12.6459	2.87689
12.6152	2.91052
12.5845	2.82628
12.5541	2.77018
12.5238	2.7311
12.4936	2.8318
12.4635	2.9603
12.4337	3.00091
12.4039	3.04353
12.3743	3.01111
12.3448	2.96991
12.3155	2.94307
12.2863	2.87083
12.2573	2.82188
12.2284	2.87307
12.1996	2.89423
12.171	2.85083
12.1425	2.84783
12.1141	3.01767
12.0859	3.24396
12.0578	3.37358
12.0298	3.38113
12.0019	3.3766
11.9742	3.35914
11.9466	3.37471
11.9192	3.57977
11.8918	3.85574
11.8646	4.22647
11.8375	4.8973
11.8106	5.87045
11.7837	7.35855
11.757	8.66127
11.7304	9.2218
11.7039	8.93589
11.6776	7.95265
11.6513	6.70444
11.6252	5.5454
11.5992	4.72786
11.5733	4.30264
11.5475	3.87127
11.5219	3.40767
11.4963	3.13614
11.4709	2.96341
11.4455	2.92746
11.4203	2.94043
11.3952	2.89178
11.3702	2.83173
11.3454	2.73338
11.3206	2.62775
11.2959	2.70797
11.2714	2.8418
11.2469	2.73153
11.2226	2.55656
11.1983	2.48178
11.1742	2.58234
11.1502	2.80375
11.1263	2.77265
11.1024	2.60385
11.0787	2.53471
11.0551	2.51211
11.0316	2.56119
11.0081	2.58087
10.9848	2.62601
10.9616	2.65614
10.9385	2.63206
10.9154	2.56929
10.8925	2.53072
10.8697	2.64413
10.8469	2.60191
10.8243	2.61088
10.8017	2.56895
10.7793	2.46802
10.7569	2.60433
10.7346	2.69052
10.7125	2.6387
10.6904	2.59418
10.6684	2.62253
10.6465	2.65584
10.6247	2.70162
10.6029	2.77985
10.5813	2.70083
10.5597	2.58325
10.5383	2.53558
10.5169	2.65288
10.4956	2.78393
10.4744	2.77623
10.4533	2.70028
10.4323	2.70981
10.4113	2.71295
10.3904	2.68554
10.3697	2.70416
10.349	2.66299
10.3284	2.64539
10.3078	2.71681
10.2874	2.71852
10.267	2.74131
10.2467	2.63941
10.2265	2.63455
10.2064	2.76921
10.1863	2.80306
10.1663	2.79328
10.1464	2.75283
10.1266	2.77315
10.1069	2.81703
10.0872	2.81128
10.0676	2.77423
10.0481	2.81746
10.0287	2.87242
10.0093	2.86241
9.99005	2.86239
9.97084	2.84161
9.95169	2.78728
9.93263	2.82273
9.91364	2.83023
9.89472	2.84308
9.87587	2.8531
9.8571	2.83706
9.83839	2.71543
9.81976	2.67819
9.80119	2.61152
9.78271	2.73792
9.76428	2.8599
9.74592	2.75927
9.72764	2.77942
9.70943	2.82141
9.69128	2.81686
9.6732	2.75258
9.65518	2.60036
9.63724	2.63869
9.61935	2.80187
9.60155	2.77465
9.5838	2.46662
9.56611	2.22343
9.5485	2.18468
9.53094	2.24847
9.51345	2.36119
9.49604	2.63312
9.47867	2.81202
9.46137	2.78437
9.44414	2.80341
9.42697	2.92656
9.40986	3.02431
9.39281	3.00628
9.37583	2.94279
9.35891	3.02111
9.34204	3.05633
9.32524	3.05848
9.3085	2.8941
9.29182	2.82911
9.27519	2.78035
9.25863	2.77878
9.24213	2.87305
9.22568	2.94227
9.2093	2.87006
9.19297	2.81451
9.17669	2.85711
9.16048	2.83495
9.14433	2.84931
9.12823	3.02883
9.11218	3.12678
9.0962	3.09637
9.08027	2.87322
9.06439	2.70782
9.04858	2.72579
9.03281	2.71879
9.0171	2.74195
9.00145	2.86343
8.98585	2.90868
8.9703	2.94931
8.9548	2.95215
8.93937	2.79872
8.92398	2.58317
8.90865	2.6162
8.89337	2.77965
8.87814	2.84319
8.86296	2.81475
8.84784	2.77359
8.83277	2.75129
8.81774	2.78179
8.80277	2.79876
8.78786	2.81687
8.77298	2.82615
8.75816	2.83371
8.7434	2.88141
8.72868	2.69869
8.714	2.69676
8.69938	2.73505
8.68481	2.75059
8.67029	2.77266
8.65581	2.67056
8.64139	2.66505
8.62701	2.75893
8.61268	2.89178
8.5984	2.85918
8.58416	2.81429
8.56997	2.79568
8.55583	2.79951
8.54174	2.9795
8.52769	3.02247
8.51368	2.97992
8.49973	2.96595
8.48582	3.0258
8.47195	2.94592
8.45813	2.80291
8.44436	2.92972
8.43062	3.0902
8.41693	3.10178
8.4033	3.12647
8.3897	3.11283
8.37614	3.04071
8.36264	2.95866
8.34917	2.97166
8.33574	2.98193
8.32236	2.9753
8.30903	2.87557
8.29573	2.85148
8.28248	2.9485
8.26927	3.06997
8.2561	3.11058
8.24298	2.97069
8.2299	2.90588
8.21685	2.84415
8.20385	2.77307
8.19089	2.91047
8.17797	2.9171
8.16509	2.84008
8.15225	2.93073
8.13946	2.90487
8.1267	2.8971
8.11398	2.93198
8.10131	2.92212
8.08867	2.77247
8.07606	2.71249
8.0635	2.76339
8.05099	2.77075
8.0385	2.74697
8.02606	2.72945
8.01366	2.77911
8.00129	2.79801
7.98896	2.67024
7.97667	2.63952
7.96442	2.68734
7.9522	2.6657
7.94002	2.62737
7.92788	2.54229
7.91578	2.50401
7.90371	2.53519
7.89168	2.5478
7.87969	2.56178
7.86773	2.52102
7.85581	2.5239
7.84392	2.49083
7.83207	2.45513
7.82026	2.41186
7.80849	2.31532
7.79674	2.35036
7.78503	2.43656
7.77337	2.42948
7.76173	2.39174
7.75012	2.3979
7.73856	2.35384
7.72703	2.3134
7.71553	2.29815
7.70406	2.30005
7.69263	2.31739
7.68123	2.3442
7.66987	2.35291
7.65855	2.25171
7.64725	2.20244
7.63598	2.208
7.62475	2.24008
7.61356	2.22841
7.60239	2.22031
7.59126	2.29159
7.58017	2.31851
7.5691	2.22521
7.55806	2.12176
7.54707	2.12337
7.5361	2.15709
7.52516	2.16099
7.51425	2.22129
7.50338	2.19651
7.49253	2.20207
7.48172	2.28283
7.47094	2.35176
7.46019	2.30999
7.44947	2.23985
7.43879	2.21223
7.42813	2.15927
7.4175	2.11355
7.4069	2.10948
7.39634	2.05603
7.3858	2.09276
7.37529	2.07396
7.36482	2.10279
7.35437	2.1733
7.34396	2.15054
7.33357	2.09594
7.32321	2.09619
7.31288	2.07527
7.30258	2.08391
7.29231	2.13781
7.28207	2.092
7.27185	1.98943
7.26167	2.01655
7.25152	2.05773
7.24139	2.0898
7.23129	2.06885
7.22122	1.94727
7.21117	1.89736
7.20116	1.90678
7.19117	1.99259
7.18121	1.9659
7.17128	1.92161
7.16137	1.97392
7.1515	2.07142
7.14164	2.02728
7.13182	1.97767
7.12203	1.96688
7.11225	1.96582
7.10251	1.89932
7.0928	1.89377
7.08311	1.95085
7.07344	1.94993
7.06381	1.91487
7.0542	1.98166
7.04461	2.08289
7.03506	1.92768
7.02552	1.86279
7.01601	1.88706
7.00653	1.92183
6.99708	1.9913
6.98765	2.03722
6.97824	2.10872
6.96886	2.18946
6.95951	2.21767
6.95018	2.17294
6.94087	2.10081
6.9316	2.11319
6.92234	2.21292
6.91311	2.3158
6.90391	2.41149
6.89473	2.39462
6.88557	2.48299
6.87644	2.60666
6.86733	2.70827
6.85824	2.78977
6.84918	2.75652
6.84015	2.71284
6.83114	2.82225
6.82215	2.96667
6.81319	2.97267
6.80424	3.02537
6.79532	3.22808
6.78643	3.22663
6.77756	3.14526
6.76871	3.15165
6.75989	3.11263
6.75109	3.17102
6.74231	3.1205
6.73355	3.07198
6.72482	3.10257
6.71611	3.02895
6.70742	2.87527
6.69875	2.70407
6.69011	2.59225
6.68149	2.50209
6.67289	2.30862
6.66431	2.15871
6.65576	2.08358
6.64722	2.05595
6.63871	2.08298
6.63022	1.91255
6.62175	1.72465
6.61331	1.65993
6.60488	1.59585
6.59648	1.64637
6.5881	1.62584
6.57974	1.51597
6.5714	1.44923
6.56308	1.43804
6.55478	1.38877
6.54651	1.31415
6.53825	1.34797
6.53001	1.33317
6.5218	1.33518
6.51361	1.34423
6.50544	1.29277
6.49729	1.30528
6.48915	1.2809
6.48104	1.28611
6.47295	1.23396
6.46488	1.13964
6.45683	1.13548
6.4488	1.19524
6.44079	1.22747
6.4328	1.16428
6.42482	1.19016
6.41687	1.2655
6.40894	1.29137
6.40103	1.24899
6.39314	1.16782
6.38526	1.16757
6.37741	1.18824
6.36957	1.22843
6.36176	1.27382
6.35396	1.25203
6.34618	1.34036
6.33843	1.4303
6.33069	1.32217
6.32297	1.3082
6.31527	1.36117
6.30758	1.36409
6.29992	1.30778
6.29227	1.21227
6.28465	1.26632
6.27704	1.37713
6.26945	1.40484
6.26188	1.33338
6.25432	1.3452
6.24679	1.34273
6.23927	1.35037
6.23177	1.40921
6.22429	1.48219
6.21683	1.56752
6.20938	1.61318
6.20195	1.55323
6.19454	1.53472
6.18715	1.52855
6.17978	1.53005
6.17242	1.56219
6.16508	1.61455
6.15776	1.6314
6.15045	1.55204
6.14317	1.48535
6.1359	1.4993
6.12864	1.59518
6.12141	1.67162
6.11419	1.68958
6.10699	1.69581
6.0998	1.65331
6.09263	1.59969
6.08549	1.65695
6.07835	1.75056
6.07123	1.76142
6.06413	1.74104
6.05705	1.74429
6.04998	1.79553
6.04293	1.80662
6.0359	1.76955
6.02888	1.72715
6.02187	1.77064
6.01489	1.80888
6.00792	1.79891
6.00096	1.74439
5.99403	1.80469
5.98711	1.96586
5.9802	2.01733
5.97331	1.98584
5.96644	1.9524
5.95958	1.99413
5.95274	2.01778
5.94591	2.00762
5.9391	2.14818
5.9323	2.19184
5.92552	2.10434
5.91876	2.1446
5.91201	2.15566
5.90528	2.08298
5.89856	2.05969
5.89186	2.1098
5.88517	2.14443
5.8785	2.1317
5.87184	2.0784
5.8652	2.02066
5.85857	1.91819
5.85196	1.90796
5.84536	1.98977
5.83878	1.99213
5.83221	1.94959
5.82566	1.98141
5.81912	1.94316
5.81259	1.83537
5.80608	1.81507
5.79959	1.80313
5.79311	1.70874
5.78665	1.64077
5.78019	1.64037
5.77376	1.6302
5.76734	1.66154
5.76093	1.61839
5.75453	1.46007
5.74815	1.43009
5.74179	1.46373
5.73543	1.43705
5.7291	1.37748
5.72277	1.32117
5.71646	1.24528
5.71017	1.27124
5.70389	1.2598
5.69762	1.22955
5.69136	1.31266
5.68513	1.33612
5.6789	1.31434
5.67268	1.32322
5.66648	1.27558
5.6603	1.16468
5.65413	1.14826
5.64797	1.27109
5.64182	1.29498
5.63569	1.22207
5.62957	1.15992
5.62347	1.05091
5.61737	0.990119
5.61129	1.05358
5.60522	1.13907
5.59917	1.14046
5.59313	1.13336
5.5871	1.13279
5.58109	1.1288
5.57509	1.07995
5.5691	0.997605
5.56312	1.09523
5.55716	1.16187
5.55121	1.17726
5.54528	1.21478
5.53935	1.19357
5.53344	1.13403
5.52754	1.1335
5.52166	1.15725
5.51578	1.17353
5.50992	1.12384
5.50407	1.10524
5.49823	1.0666
5.49241	1.10609
5.4866	1.16443
5.4808	1.20889
5.47501	1.2052
5.46923	1.18614
5.46347	1.26052
5.45772	1.30778
5.45198	1.23526
5.44625	1.10828
5.44054	1.13039
5.43484	1.22395
5.42914	1.21346
5.42347	1.19844
5.4178	1.23216
5.41214	1.21183
5.4065	1.18402
5.40087	1.14699
5.39525	1.21757
5.38964	1.32929
5.38404	1.36599
5.37846	1.3455
5.37288	1.33529
5.36732	1.31201
5.36177	1.30874
5.35623	1.36992
5.35071	1.36466
5.34519	1.36662
5.33968	1.37288
5.33419	1.40714
5.32871	1.45076
5.32324	1.43225
5.31778	1.44057
5.31233	1.4164
5.30689	1.4057
5.30147	1.4059
5.29605	1.34381
5.29065	1.36923
5.28525	1.50663
5.27987	1.48467
5.2745	1.47626
5.26914	1.5133
5.26379	1.49414
5.25845	1.46765
5.25312	1.50791
5.24781	1.51215
5.2425	1.59531
5.23721	1.65007
5.23192	1.6354
5.22665	1.58015
5.22138	1.606
5.21613	1.62231
5.21089	1.6087
5.20566	1.64552
5.20044	1.66651
5.19522	1.71355
5.19002	1.72602
5.18483	1.73252
5.17965	1.68054
5.17448	1.61817
5.16933	1.70163
5.16418	1.80833
5.15904	1.82428
5.15391	1.79986
5.14879	1.80322
5.14368	1.82562
5.13859	1.89164
5.1335	1.96822
5.12842	1.99625
5.12335	1.99541
5.1183	1.97933
5.11325	1.94771
5.10821	1.91655
5.10318	1.88783
5.09817	1.88578
5.09316	1.89064
5.08816	1.96048
5.08317	1.98231
5.07819	1.99482
5.07322	1.95996
5.06826	1.94854
5.06331	2.03303
5.05837	2.01752
5.05344	1.96538
5.04852	1.97992
5.04361	2.04372
5.03871	2.01867
5.03382	2.03876
5.02894	2.09239
5.02406	2.15071
5.0192	2.15482
5.01435	2.12747
5.0095	2.16698
5.00467	2.22031
4.99984	2.14094
4.99502	2.12371
4.99021	2.19998
4.98542	2.1983
4.98063	2.22967
4.97585	2.24374
4.97108	2.21063
4.96632	2.23794
4.96156	2.29208
4.95682	2.23884
4.95209	2.15394
4.94736	2.18945
4.94264	2.28471
4.93794	2.31234
4.93324	2.35835
4.92855	2.38385
4.92387	2.36459
4.9192	2.41285
4.91453	2.37624
4.90988	2.40938
4.90524	2.52256
4.9006	2.51347
4.89597	2.41288
4.89135	2.39166
4.88674	2.45893
4.88214	2.48197
4.87755	2.46687
4.87296	2.47871
4.86839	2.47781
4.86382	2.44441
4.85926	2.45494
4.85471	2.4881
4.85017	2.60671
4.84564	2.70013
4.84111	2.69266
4.8366	2.69802
4.83209	2.70221
4.82759	2.69181
4.8231	2.7208
4.81862	2.72878
4.81415	2.69568
4.80968	2.69791
4.80522	2.81137
4.80077	2.83796
4.79633	2.73593
4.7919	2.70435
4.78747	2.78993
4.78306	2.87345
4.77865	2.83513
4.77425	2.7897
4.76986	2.85306
4.76547	2.89305
4.7611	2.88396
4.75673	2.85653
4.75237	2.82722
4.74802	2.81124
4.74367	2.83104
4.73934	2.77535
4.73501	2.79486
4.73069	2.87387
4.72638	2.94142
4.72207	2.98501
4.71777	3.02567
4.71348	3.03071
4.7092	3.06125
4.70493	3.20043
4.70066	3.27029
4.69641	3.21291
4.69216	3.16784
4.68791	3.20816
4.68368	3.27918
4.67945	3.30418
4.67523	3.34211
4.67102	3.29768
4.66682	3.19631
4.66262	3.24072
4.65843	3.31672
4.65425	3.35616
4.65007	3.37723
4.64591	3.39724
4.64175	3.36396
4.6376	3.38357
4.63345	3.39055
4.62932	3.4519
4.62519	3.46225
4.62106	3.39058
4.61695	3.25895
4.61284	3.33081
4.60874	3.51713
4.60465	3.51756
4.60056	3.401
4.59648	3.37496
4.59241	3.38905
4.58835	3.37458
4.58429	3.42765
4.58024	3.43352
4.5762	3.42309
4.57216	3.43529
4.56814	3.4333
4.56411	3.44712
4.5601	3.50473
4.55609	3.43858
4.55209	3.37469
4.5481	3.48775
4.54411	3.54279
4.54013	3.43665
4.53616	3.39803
4.5322	3.45637
4.52824	3.41187
4.52429	3.32201
4.52034	3.30869
4.51641	3.28464
4.51247	3.24328
4.50855	3.26905
4.50463	3.29283
4.50072	3.24267
4.49682	3.27724
4.49292	3.28375
4.48903	3.23519
4.48515	3.16474
4.48127	3.2289
4.4774	3.30909
4.47354	3.3356
4.46968	3.2985
4.46584	3.18222
4.46199	3.18017
4.45815	3.20093
4.45432	3.15434
4.4505	3.04038
4.44668	3.01581
4.44287	3.08218
4.43907	3.13264
4.43527	3.11555
4.43148	3.01483
4.4277	3.03308
4.42392	3.05568
4.42015	3.01015
4.41638	2.96914
4.41262	2.93188
4.40887	2.95366
4.40513	2.97313
4.40139	2.99187
4.39765	3.0348
4.39393	3.09796
4.39021	3.07109
4.38649	3.07797
4.38278	3.09806
4.37908	3.09901
4.37539	3.10967
4.3717	3.11153
4.36801	3.11229
4.36434	3.09673
4.36067	3.09388
4.357	3.16846
4.35335	3.2584
4.34969	3.24627
4.34605	3.18248
4.34241	3.23846
4.33877	3.32905
4.33514	3.26266
4.33152	3.22038
4.32791	3.25625
4.3243	3.2831
4.32069	3.22591
4.3171	3.21864
4.31351	3.2486
4.30992	3.27613
4.30634	3.28787
4.30277	3.32635
4.2992	3.41238
4.29564	3.46902
4.29208	3.42014
4.28853	3.40837
4.28499	3.47225
4.28145	3.48966
4.27792	3.53263
4.27439	3.55945
4.27087	3.55107
4.26735	3.53974
4.26384	3.52938
4.26034	3.55575
4.25684	3.52825
4.25335	3.50055
4.24986	3.54538
4.24638	3.60172
4.24291	3.59873
4.23944	3.54974
4.23598	3.52311
4.23252	3.5906
4.22906	3.68675
4.22562	3.74071
4.22218	3.77397
4.21874	3.71771
4.21531	3.65586
4.21189	3.66273
4.20847	3.71767
4.20506	3.80312
4.20165	3.78095
4.19825	3.65228
4.19485	3.67113
4.19146	3.72491
4.18807	3.78253
4.18469	3.86822
4.18132	3.9345
4.17795	3.82074
4.17458	3.77091
4.17123	3.85343
4.16787	3.8315
4.16453	3.74598
4.16118	3.82881
4.15785	3.90522
4.15451	3.96026
4.15119	3.91654
4.14787	3.83431
4.14455	3.94457
4.14124	3.99001
4.13794	3.83162
4.13464	3.77283
4.13134	3.76302
4.12805	3.7366
4.12477	3.75479
4.12149	3.81905
4.11822	3.77402
4.11495	3.75504
4.11168	3.74381
4.10843	3.71019
4.10517	3.69696
4.10192	3.68418
4.09868	3.63765
4.09545	3.59908
4.09221	3.59007
4.08899	3.61312
4.08576	3.6348
4.08255	3.62059
4.07933	3.60555
4.07613	3.69759
4.07292	3.75799
4.06973	3.82015
4.06654	3.92626
4.06335	3.90656
4.06017	3.91898
4.05699	3.86249
4.05382	3.79762
4.05065	3.75826
4.04749	3.77615
4.04433	3.85357
4.04118	3.88398
4.03803	3.92108
4.03489	3.9819
4.03175	4.04441
4.02862	4.07335
4.02549	4.00041
4.02237	3.94524
4.01925	3.94748
4.01614	3.98216
4.01303	4.05085
4.00993	4.0287
4.00683	3.91255
4.00373	3.87689
4.00064	3.95331
3.99756	4.01244
3.99448	4.02006
3.9914	4.00309
3.98833	4.02332
3.98527	4.06724
3.98221	4.03616
3.97915	3.95196
3.9761	3.92841
3.97305	3.93504
3.97001	3.96144
3.96697	4.03695
3.96394	4.07344
3.96091	4.02583
3.95789	3.9276
3.95487	3.91799
3.95186	3.92768
3.94885	3.94515
3.94584	4.02277
3.94284	3.98015
3.93984	3.91057
3.93685	3.94062
3.93386	4.0433
3.93088	4.09145
3.9279	4.0718
3.92493	4.02199
3.92196	4.04739
3.919	4.08041
3.91604	4.04865
3.91308	4.09833
3.91013	4.13723
3.90718	4.11347
3.90424	4.11269
3.9013	4.22515
3.89837	4.2826
3.89544	4.28538
3.89252	4.27322
3.8896	4.24116
3.88668	4.19579
3.88377	4.23589
3.88086	4.27914
3.87796	4.32131
3.87506	4.3369
3.87217	4.32011
3.86928	4.22061
3.86639	4.25173
3.86351	4.34988
3.86064	4.38652
3.85776	4.46346
3.8549	4.40897
3.85203	4.2708
3.84917	4.35741
3.84631	4.50022
3.84346	4.44866
3.84062	4.40693
3.83777	4.49685
3.83494	4.59567
3.8321	4.5605
3.82927	4.511
3.82644	4.47982
3.82362	4.3868
3.82081	4.37906
3.81799	4.45313
3.81518	4.59691
3.81238	4.64126
3.80958	4.61898
3.80678	4.57285
3.80399	4.46198
3.8012	4.47291
3.79841	4.54013
3.79563	4.53668
3.79286	4.56204
3.79008	4.587
3.78731	4.62064
3.78455	4.6122
3.78179	4.58219
3.77903	4.62409
3.77628	4.60099
3.77353	4.52676
3.77079	4.57057
3.76805	4.52323
3.76531	4.50031
3.76258	4.50936
3.75985	4.4417
3.75713	4.4868
3.7544	4.61215
3.75169	4.62783
3.74898	4.54827
3.74627	4.54256
3.74356	4.58549
3.74086	4.5068
3.73816	4.45066
3.73547	4.4318
3.73278	4.44209
3.7301	4.5132
3.72741	4.53672
3.72474	4.52382
3.72206	4.45812
3.71939	4.34229
3.71673	4.36162
3.71406	4.386
3.71141	4.37734
3.70875	4.38191
3.7061	4.39696
3.70345	4.392
3.70081	4.36669
3.69817	4.33477
3.69553	4.25312
3.6929	4.18758
3.69027	4.22876
3.68765	4.23894
3.68503	4.21758
3.68241	4.25494
3.6798	4.28533
3.67719	4.22099
3.67458	4.17043
3.67198	4.16942
3.66938	4.12641
3.66678	4.15702
3.66419	4.13557
3.66161	4.03873
3.65902	4.01616
3.65644	4.00168
3.65387	3.94806
3.65129	3.99959
3.64872	3.97546
3.64616	3.92631
3.64359	3.86579
3.64103	3.8869
3.63848	3.93946
3.63593	3.90436
3.63338	3.87903
3.63084	3.90124
3.6283	3.88668
3.62576	3.74709
3.62322	3.70379
3.62069	3.85734
3.61817	3.81975
3.61564	3.67343
3.61312	3.67502
3.61061	3.70132
3.6081	3.66435
3.60559	3.68278
3.60308	3.59901
3.60058	3.56582
3.59808	3.66005
3.59558	3.6601
3.59309	3.51734
3.59061	3.41028
3.58812	3.47654
3.58564	3.49733
3.58316	3.46013
3.58069	3.4714
3.57822	3.4719
3.57575	3.44267
3.57328	3.33796
3.57082	3.30467
3.56836	3.32451
3.56591	3.35163
3.56346	3.35308
3.56101	3.33821
3.55857	3.25652
3.55613	3.20193
3.55369	3.20933
3.55126	3.26049
3.54883	3.2827
3.5464	3.15044
3.54397	3.12301
3.54155	3.16341
3.53914	3.15007
3.53672	3.16514
3.53431	3.16866
3.5319	3.10996
3.5295	3.03171
3.5271	2.96152
3.5247	2.91685
3.52231	2.9497
3.51991	2.99736
3.51753	3.03089
3.51514	2.98084
3.51276	2.8573
3.51038	2.81486
3.50801	2.83475
3.50563	2.82816
3.50327	2.8094
3.5009	2.78969
3.49854	2.8527
3.49618	2.82641
3.49382	2.76486
3.49147	2.79168
3.48912	2.85128
3.48677	2.81351
3.48443	2.63892
3.48209	2.55558
3.47975	2.61767
3.47742	2.73171
3.47509	2.73072
3.47276	2.70045
3.47044	2.67064
3.46812	2.61564
3.4658	2.50742
3.46348	2.53871
3.46117	2.60713
3.45886	2.62857
3.45656	2.63947
3.45425	2.62924
3.45195	2.52345
3.44966	2.44936
3.44736	2.47316
3.44507	2.4885
3.44279	2.50248
3.4405	2.46102
3.43822	2.50303
3.43594	2.54145
3.43367	2.50111
3.43139	2.5117
3.42912	2.5278
3.42686	2.48759
3.42459	2.51751
3.42233	2.50599
3.42007	2.40981
3.41782	2.2719
3.41557	2.18478
3.41332	2.14329
3.41108	2.23396
3.40883	2.36421
3.40659	2.34328
3.40435	2.28267
3.40212	2.26723
3.39989	2.26956
3.39766	2.39384
3.39544	2.41575
3.39322	2.28791
3.391	2.21813
3.38878	2.1826
3.38657	2.22932
3.38436	2.19486
3.38215	2.15767
3.37994	2.23473
3.37774	2.26519
3.37554	2.18459
3.37335	2.05076
3.37115	2.11167
3.36896	2.04894
3.36678	1.98657
3.36459	1.98239
3.36241	1.95816
3.36023	2.01712
3.35805	2.08169
3.35588	2.11834
3.35371	2.13834
3.35154	2.09471
3.34938	2.09416
3.34721	2.03971
3.34505	1.9562
3.3429	1.96765
3.34074	2.03383
3.33859	2.06301
3.33644	1.97902
3.3343	1.99058
3.33215	2.05218
3.33001	2.03596
3.32788	1.97059
3.32574	1.87995
3.32361	1.89366
3.32148	1.84062
3.31936	1.77759
3.31723	1.87134
3.31511	1.86356
3.31299	1.83561
3.31088	1.83147
3.30876	1.79211
3.30665	1.78744
3.30455	1.81786
3.30244	1.83797
3.30034	1.81723
3.29824	1.8279
3.29614	1.78966
3.29405	1.76056
3.29196	1.76781
3.28987	1.7556
3.28778	1.77561
3.2857	1.694
3.28362	1.68561
3.28154	1.77156
3.27946	1.76105
3.27739	1.72704
3.27532	1.70669
3.27325	1.72152
3.27119	1.68902
3.26913	1.77252
3.26707	1.75194
3.26501	1.63005
3.26295	1.66563
3.2609	1.78867
3.25885	1.69739
3.2568	1.54186
3.25476	1.53507
3.25272	1.57006
3.25068	1.55782
3.24864	1.49404
3.24661	1.58194
3.24458	1.639
3.24255	1.61666
3.24052	1.73315
3.2385	1.75729
3.23648	1.65006
3.23446	1.62555
3.23244	1.60864
3.23043	1.61027
3.22841	1.62058
3.2264	1.66285
3.2244	1.60155
3.22239	1.47682
3.22039	1.56679
3.21839	1.64
3.2164	1.61432
3.2144	1.54034
3.21241	1.47236
3.21042	1.46691
3.20844	1.56743
3.20645	1.66573
3.20447	1.62409
3.20249	1.58643
3.20051	1.56584
3.19854	1.55352
3.19657	1.50297
3.1946	1.50882
3.19263	1.56618
3.19067	1.63018
3.1887	1.56858
3.18674	1.57725
3.18479	1.61123
3.18283	1.57502
3.18088	1.44564
3.17893	1.45511
3.17698	1.57296
3.17504	1.60233
3.17309	1.62641
3.17115	1.54519
3.16921	1.58975
3.16728	1.67691
3.16534	1.69959
3.16341	1.56909
3.16148	1.48004
3.15956	1.54022
3.15763	1.65011
3.15571	1.65867
3.15379	1.59545
3.15187	1.55515
3.14996	1.52047
3.14805	1.60082
3.14614	1.66262
3.14423	1.57511
3.14232	1.54152
3.14042	1.53855
3.13852	1.5235
3.13662	1.57829
3.13472	1.57948
3.13283	1.53118
3.13094	1.49392
3.12905	1.52661
3.12716	1.58444
3.12528	1.62681
3.12339	1.66448
3.12151	1.61624
3.11964	1.54353
3.11776	1.55516
3.11589	1.59084
3.11401	1.59451
3.11214	1.56038
3.11028	1.66801
3.10841	1.71028
3.10655	1.53573
3.10469	1.49364
3.10283	1.63379
3.10098	1.69338
3.09912	1.62067
3.09727	1.6562
3.09542	1.66643
3.09358	1.58129
3.09173	1.45743
3.08989	1.42116
3.08805	1.55693
3.08621	1.55405
3.08437	1.48379
3.08254	1.57938
3.08071	1.64422
3.07888	1.63301
3.07705	1.67423
3.07523	1.68496
3.0734	1.63228
3.07158	1.60425
3.06977	1.59864
3.06795	1.51946
3.06613	1.59089
3.06432	1.59276
3.06251	1.55124
3.0607	1.65277
3.0589	1.75246
3.0571	1.6604
3.05529	1.58069
3.05349	1.579
3.0517	1.63671
3.0499	1.77557
3.04811	1.75001
3.04632	1.59868
3.04453	1.5479
3.04274	1.56339
3.04096	1.57483
3.03918	1.78971
3.0374	1.72146
3.03562	1.57325
3.03384	1.6431
3.03207	1.807
3.03029	1.79917
3.02852	1.6661
3.02676	1.74343
3.02499	1.77563
3.02323	1.7744
3.02146	1.86641
3.0197	1.72767
3.01795	1.59309
3.01619	1.68656
3.01444	1.70613
3.01269	1.74541
3.01094	1.76464
3.00919	1.79366
3.00744	1.80743
3.0057	1.77864
3.00396	1.79831
3.00222	1.85389
3.00048	1.95247
2.99875	2.00592
2.99701	1.92754
2.99528	1.83702
2.99355	1.75218
2.99183	1.72332
2.9901	1.78213
2.98838	1.86383
2.98666	1.7608
2.98494	1.78155
2.98322	1.73119
2.9815	1.6294
2.97979	1.68373
2.97808	1.80556
2.97637	1.69466
2.97466	1.62092
2.97295	1.7882
2.97125	1.74259
2.96955	1.65045
2.96785	1.78488
2.96615	1.96663
2.96446	1.99334
2.96276	1.95183
2.96107	1.94027
2.95938	1.83477
2.95769	1.80955
2.95601	1.88862
2.95432	1.9054
2.95264	1.86474
2.95096	1.88255
2.94928	1.8164
2.9476	1.78106
2.94593	1.87414
2.94425	1.91526
2.94258	1.836
2.94092	1.84953
2.93925	1.97421
2.93758	2.06467
2.93592	2.01787
2.93426	1.88496
2.9326	1.82269
2.93094	1.91521
2.92928	1.94459
2.92763	1.89079
2.92598	1.85191
2.92433	1.88295
2.92268	1.9722
2.92103	1.96109
2.91939	1.91129
2.91775	1.86704
2.9161	1.86328
2.91447	1.97401
2.91283	1.96113
2.91119	1.85394
2.90956	1.85047
2.90793	1.88799
2.9063	1.95713
2.90467	2.0268
2.90304	2.08489
2.90142	2.04954
2.89979	2.00805
2.89817	2.08261
2.89656	2.14161
2.89494	2.15674
2.89332	2.23968
2.89171	2.36191
2.8901	2.36084
2.88849	2.47562
2.88688	2.44354
2.88527	2.35047
2.88367	2.28169
2.88206	2.2458
2.88046	2.30147
2.87886	2.32027
2.87727	2.27467
2.87567	2.17073
2.87408	2.15892
2.87248	2.2883
2.87089	2.45554
2.8693	2.46971
2.86772	2.30397
2.86613	2.2517
2.86455	2.22574
2.86297	2.18091
2.86139	2.16363
2.85981	2.2256
2.85823	2.25616
2.85666	2.31017
2.85508	2.34565
2.85351	2.43639
2.85194	2.41551
2.85038	2.27999
2.84881	2.23289
2.84724	2.30181
2.84568	2.35845
2.84412	2.3642
2.84256	2.32936
2.841	2.25715
2.83945	2.32084
2.83789	2.31575
2.83634	2.33346
2.83479	2.29101
2.83324	2.45864
2.83169	2.65576
2.83015	2.5409
2.82861	2.42705
2.82706	2.45205
2.82552	2.44639
2.82398	2.5079
2.82245	2.62153
2.82091	2.71474
2.81938	2.80206
2.81784	2.65934
2.81631	2.63578
2.81479	2.80428
2.81326	3.0168
2.81173	3.09533
2.81021	3.0297
2.80869	3.04787
2.80716	3.21203
2.80565	3.31859
2.80413	3.29476
2.80261	3.37881
2.8011	3.51808
2.79959	3.44396
2.79808	3.42757
2.79657	3.49663
2.79506	3.65096
2.79355	3.82105
2.79205	3.88129
2.79055	3.92735
2.78904	4.21178
2.78754	4.49446
2.78605	4.48089
2.78455	4.47533
2.78306	4.64625
2.78156	4.84745
2.78007	4.89902
2.77858	4.97085
2.77709	5.1892
2.77561	5.30732
2.77412	5.47122
2.77264	5.75466
2.77116	5.95403
2.76968	5.98233
2.7682	6.0681
2.76672	6.24008
2.76524	6.42393
2.76377	6.62258
2.7623	6.73124
2.76083	6.82052
2.75936	6.99366
2.75789	7.26918
2.75642	7.6385
2.75496	8.00346
2.7535	8.03049
2.75203	8.23369
2.75057	8.3603
2.74912	8.45389
2.74766	8.76292
2.7462	9.07433
2.74475	9.36442
2.7433	9.69045
2.74185	10.0408
2.7404	10.2615
2.73895	10.4719
2.7375	10.6284
2.73606	10.9854
2.73462	11.3157
2.73318	11.4091
2.73174	11.6491
2.7303	12.0866
2.72886	12.4374
2.72742	12.7937
2.72599	13.2661
2.72456	13.7158
2.72313	14.0225
2.7217	14.4959
2.72027	14.9076
2.71884	14.7825
2.71742	14.9799
2.71599	15.2573
2.71457	15.5472
2.71315	15.9534
2.71173	16.5622
2.71032	17.1533
2.7089	17.4351
2.70748	17.4605
2.70607	17.5376
2.70466	17.7804
2.70325	18.0852
2.70184	18.5009
2.70043	18.7133
2.69903	18.8646
2.69762	19.1137
2.69622	19.4415
2.69482	19.7974
2.69342	19.9514
2.69202	19.8201
2.69062	19.9141
2.68923	20.105
2.68783	20.2328
2.68644	20.5207
2.68505	20.7738
2.68366	20.9878
2.68227	20.9402
2.68089	21.079
2.6795	21.5953
2.67812	21.8843
2.67673	22.1088
2.67535	22.1074
2.67397	21.9967
2.6726	22.0217
2.67122	22.7804
2.66984	23.1708
2.66847	22.9288
2.6671	23.4152
2.66572	23.5886
2.66435	23.4284
2.66299	23.1836
2.66162	23.2782
2.66025	23.4079
2.65889	23.4312
2.65753	23.357
2.65616	23.5512
2.65481	23.6898
2.65345	23.9673
2.65209	24.1162
2.65073	23.8336
2.64938	23.7992
2.64803	24.0665
2.64667	24.3115
2.64532	24.3565
2.64397	24.3052
2.64263	24.4299
2.64128	24.5503
2.63994	24.6435
2.63859	24.7253
2.63725	24.8984
2.63591	25.063
2.63457	25.3201
2.63323	25.3046
2.6319	25.5783
2.63056	26.2251
2.62923	25.8836
2.62789	25.8813
2.62656	26.2254
2.62523	25.9628
2.6239	25.9826
2.62258	26.0755
2.62125	26.5552
2.61993	26.7235
2.6186	26.5795
2.61728	27.1679
2.61596	27.1492
2.61464	26.7898
2.61332	26.8233
2.61201	26.7962
2.61069	26.905
2.60938	27.2118
2.60807	27.4186
2.60675	27.6819
2.60544	28.0046
2.60414	27.849
2.60283	27.7877
2.60152	27.7377
2.60022	27.4776
2.59891	27.4202
2.59761	27.9079
2.59631	28.819
2.59501	29.654
2.59371	29.0699
2.59242	28.3304
2.59112	28.3003
2.58983	28.496
2.58853	28.778
2.58724	29.056
2.58595	28.9007
2.58466	29.1019
2.58338	29.069
2.58209	28.8957
2.5808	28.9629
2.57952	28.712
2.57824	29.0789
2.57695	29.5178
2.57567	29.3642
2.5744	29.5146
2.57312	29.7619
2.57184	29.5183
2.57057	29.7732
2.56929	29.8797
2.56802	29.6222
2.56675	29.6082
2.56548	29.8539
2.56421	30.1643
2.56294	30.2604
2.56168	30.3793
2.56041	30.2936
2.55915	30.0805
2.55789	30.1112
2.55662	30.1708
2.55536	30.3021
2.5541	30.443
2.55285	30.5343
2.55159	30.514
2.55034	30.5932
2.54908	30.7009
2.54783	30.8125
2.54658	30.7412
2.54533	30.782
2.54408	30.9001
2.54283	30.9193
2.54159	30.9116
2.54034	30.8407
2.5391	30.8854
2.53785	31.0906
2.53661	31.2967
2.53537	31.3705
2.53413	31.404
2.53289	31.5147
2.53166	31.5587
2.53042	31.5257
2.52919	31.6214
2.52795	31.7758
2.52672	31.7802
2.52549	31.7395
2.52426	31.8153
2.52303	31.9042
2.52181	31.944
2.52058	31.9633
2.51936	31.9841
2.51813	32.0782
2.51691	32.1755
2.51569	32.2077
2.51447	32.1159
2.51325	32.1403
2.51203	32.3082
2.51082	32.3379
2.5096	32.4281
2.50839	32.4435
2.50717	32.4422
2.50596	32.5463
2.50475	32.6564
2.50354	32.7257
2.50233	32.7497
2.50113	32.6834
2.49992	32.6278
2.49872	32.6761
2.49751	32.7065
2.49631	32.7685
2.49511	33.0059
2.49391	33.0868
2.49271	33.0388
2.49151	33.0686
2.49031	33.0559
2.48912	33.08
2.48792	33.0781
2.48673	32.9664
2.48554	32.9758
2.48435	33.0581
2.48316	33.0048
2.48197	33.0197
2.48078	33.1793
2.4796	33.225
2.47841	33.2167
2.47723	33.2137
2.47604	33.2848
2.47486	33.2726
2.47368	33.2862
2.4725	33.4433
2.47132	33.5186
2.47014	33.419
2.46897	33.2702
2.46779	33.272
2.46662	33.3589
2.46545	33.4073
2.46427	33.3583
2.4631	33.2619
2.46193	33.4551
2.46077	33.497
2.4596	33.4039
2.45843	33.4478
2.45727	33.4956
2.4561	33.5228
2.45494	33.555
2.45378	33.6079
2.45262	33.5932
2.45146	33.5775
2.4503	33.5957
2.44914	33.6083
2.44799	33.5774
2.44683	33.5465
2.44568	33.5008
2.44452	33.6506
2.44337	33.7352
2.44222	33.7392
2.44107	33.7216
2.43992	33.7607
2.43877	33.8191
2.43763	33.7837
2.43648	33.8499
2.43534	33.856
2.43419	33.8444
2.43305	33.893
2.43191	33.8569
2.43077	33.8321
2.42963	33.9372
2.42849	34.0034
2.42736	34.0657
2.42622	34.2171
2.42509	34.0671
2.42395	33.8605
2.42282	33.7499
2.42169	33.7305
2.42056	33.7933
2.41943	33.8315
2.4183	33.8588
2.41717	33.8747
2.41605	33.8914
2.41492	34.0001
2.4138	34.0577
2.41267	34.0736
2.41155	34.0916
2.41043	34.0703
2.40931	33.9777
2.40819	34.0371
2.40707	34.1478
2.40595	34.1332
2.40484	34.0527
2.40372	34.0741
2.40261	34.1907
2.4015	34.1778
2.40039	34.1118
2.39928	34.123
2.39817	34.1102
2.39706	34.0608
2.39595	34.1681
2.39484	34.2524
2.39374	34.3163
2.39263	34.2807
2.39153	34.3378
2.39043	34.3622
2.38932	34.4713
2.38822	34.6004
2.38712	34.7632
2.38603	34.8276
2.38493	34.8267
2.38383	35.0021
2.38274	35.0917
2.38164	35.2168
2.38055	35.4133
2.37946	35.5646
2.37836	35.5481
2.37727	35.6573
2.37618	35.772
2.3751	35.921
2.37401	36.1062
2.37292	36.2828
2.37184	36.3699
2.37075	36.2769
2.36967	36.2966
2.36859	36.4872
2.3675	36.7694
2.36642	36.8376
2.36534	36.8972
2.36427	36.9301
2.36319	37.0015
2.36211	37.24
2.36104	37.4433
2.35996	37.4669
2.35889	37.3194
2.35781	37.4511
2.35674	37.7479
2.35567	37.7796
2.3546	37.7816
2.35353	37.9003
2.35247	37.9873
2.3514	38.038
2.35033	38.1104
2.34927	38.1146
2.3482	38.1442
2.34714	38.2244
2.34608	38.4233
2.34502	38.5654
2.34396	38.6045
2.3429	38.7446
2.34184	38.842
2.34078	38.8305
2.33973	38.872
2.33867	38.8858
2.33762	38.9451
2.33656	39.0122
2.33551	39.0013
2.33446	39.2289
2.33341	39.4022
2.33236	39.4715
2.33131	39.4571
2.33026	39.4423
2.32922	39.6194
2.32817	39.6811
2.32712	39.6106
2.32608	39.6356
2.32504	39.6646
2.324	39.731
2.32295	39.8372
2.32191	39.8358
2.32087	39.9392
2.31984	40.1285
2.3188	40.1618
2.31776	40.1642
2.31673	40.3146
2.31569	40.417
2.31466	40.3172
2.31362	40.2883
2.31259	40.2876
2.31156	40.3771
2.31053	40.5522
2.3095	40.6783
2.30847	40.8576
2.30745	40.9711
2.30642	41.0157
2.3054	41.0436
2.30437	41.1501
2.30335	41.2329
2.30232	41.1866
2.3013	41.1054
2.30028	41.1273
2.29926	41.2053
2.29824	41.32
2.29722	41.4131
2.29621	41.4919
2.29519	41.5768
2.29417	41.6602
2.29316	41.65
2.29215	41.6477
2.29113	41.7146
2.29012	41.7626
2.28911	41.7265
2.2881	41.7499
2.28709	41.857
2.28608	41.9054
2.28507	41.9865
2.28407	42.1719
2.28306	42.2759
2.28206	42.3293
2.28105	42.3212
2.28005	42.3621
2.27905	42.2822
2.27805	42.3285
2.27705	42.5229
2.27605	42.6594
2.27505	42.6145
2.27405	42.5792
2.27305	42.6518
2.27206	42.7702
2.27106	42.6371
2.27007	42.5493
2.26907	42.5485
2.26808	42.5651
2.26709	42.6697
2.2661	42.7386
2.26511	42.6709
2.26412	42.785
2.26313	42.8951
2.26214	42.8915
2.26116	42.9836
2.26017	43.1044
2.25919	43.2201
2.2582	43.096
2.25722	43.0204
2.25624	43.0792
2.25526	43.1085
2.25428	43.1437
2.2533	43.2722
2.25232	43.3796
2.25134	43.2555
2.25036	43.1788
2.24939	43.1141
2.24841	43.0764
2.24744	43.2302
2.24646	43.3013
2.24549	43.2144
2.24452	43.1674
2.24355	43.1644
2.24257	43.1871
2.24161	43.103
2.24064	43.1063
2.23967	43.1112
2.2387	43.1447
2.23774	43.2003
2.23677	43.0793
2.23581	42.8856
2.23484	42.7409
2.23388	42.6223
2.23292	42.5861
2.23196	42.5507
2.231	42.5084
2.23004	42.4186
2.22908	42.3662
2.22812	42.3987
2.22716	42.4328
2.22621	42.328
2.22525	42.2865
2.2243	42.1094
2.22334	42.0466
2.22239	42.056
2.22144	42.0454
2.22049	42.1706
2.21953	42.2168
2.21859	42.2382
2.21764	42.4515
2.21669	42.3724
2.21574	42.317
2.21479	42.4675
2.21385	42.5141
2.2129	42.5811
2.21196	42.6526
2.21102	42.6381
2.21007	42.6576
2.20913	42.6783
2.20819	42.6292
2.20725	42.6658
2.20631	42.8142
2.20537	42.9013
2.20444	42.9076
2.2035	42.8915
2.20256	42.9469
2.20163	42.9621
2.20069	42.9339
2.19976	42.9306
2.19883	42.9991
2.19789	43.0316
2.19696	43.081
2.19603	42.9651
2.1951	43.0027
2.19417	43.1529
2.19325	43.08
2.19232	43.0098
2.19139	43.063
2.19047	43.1688
2.18954	43.2604
2.18862	43.2853
2.18769	43.1633
2.18677	43.1418
2.18585	43.2394
2.18493	43.2386
2.18401	43.1988
2.18309	43.2387
2.18217	43.182
2.18125	43.2737
2.18033	43.4628
2.17942	43.4843
2.1785	43.3104
2.17759	43.1568
2.17667	43.3133
2.17576	43.3857
2.17485	43.4044
2.17393	43.5432
2.17302	43.5792
2.17211	43.4733
2.1712	43.3733
2.17029	43.4281
2.16939	43.4637
2.16848	43.4869
2.16757	43.4895
2.16667	43.3226
2.16576	43.373
2.16486	43.4758
2.16395	43.402
2.16305	43.3079
2.16215	43.2088
2.16125	43.3302
2.16035	43.5926
2.15945	43.4718
2.15855	43.3117
2.15765	43.4008
2.15675	43.5258
2.15586	43.4552
2.15496	43.3093
2.15406	43.0837
2.15317	43.0966
2.15228	43.157
2.15138	43.2053
2.15049	43.2223
2.1496	43.2488
2.14871	43.2129
2.14782	43.1706
2.14693	43.2045
2.14604	43.1517
2.14515	43.0645
2.14427	42.9764
2.14338	42.8937
2.14249	42.9611
2.14161	43.0684
2.14072	42.9478
2.13984	42.7928
2.13896	42.8913
2.13808	42.9996
2.13719	43.1173
2.13631	43.119
2.13543	42.9191
2.13455	42.8337
2.13368	42.7979
2.1328	42.7879
2.13192	42.7373
2.13105	42.4846
2.13017	42.4257
2.1293	42.6384
2.12842	42.7827
2.12755	42.7495
2.12668	42.5583
2.1258	42.4133
2.12493	42.5012
2.12406	42.5557
2.12319	42.5557
2.12232	42.5972
2.12145	42.5403
2.12059	42.4362
2.11972	42.3867
2.11885	42.2938
2.11799	42.3055
2.11712	42.3285
2.11626	42.249
2.1154	42.2128
2.11453	42.1383
2.11367	41.8701
2.11281	41.9077
2.11195	41.9381
2.11109	41.8017
2.11023	41.7204
2.10937	41.6608
2.10851	41.8801
2.10766	41.9941
2.1068	41.8972
2.10594	41.8257
2.10509	41.6922
2.10423	41.4373
2.10338	41.4769
2.10253	41.3255
2.10168	41.1459
2.10082	41.1411
2.09997	41.1769
2.09912	41.2628
2.09827	41.2307
2.09742	40.8947
2.09658	40.7762
2.09573	40.8129
2.09488	40.8366
2.09404	40.8755
2.09319	40.8698
2.09235	40.6864
2.0915	40.4451
2.09066	40.3306
2.08982	40.567
2.08897	40.6396
2.08813	40.3856
2.08729	40.3267
2.08645	40.3557
2.08561	40.151
2.08477	40.0273
2.08394	39.9214
2.0831	40.0275
2.08226	40.2039
2.08143	39.9838
2.08059	39.8327
2.07976	39.7198
2.07892	39.5374
2.07809	39.4828
2.07726	39.3986
2.07643	39.6609
2.07559	39.4825
2.07476	39.2108
2.07393	39.1898
2.0731	38.9765
2.07228	39.1315
2.07145	39.1715
2.07062	39.088
2.06979	39.3659
2.06897	39.3183
2.06814	38.909
2.06732	38.6327
2.06649	38.4217
2.06567	38.4385
2.06485	38.669
2.06403	38.5886
2.0632	38.5894
2.06238	38.2542
2.06156	38.0833
2.06074	38.3328
2.05993	38.3556
2.05911	38.2763
2.05829	38.1967
2.05747	38.0723
2.05666	38.2069
2.05584	38.4172
2.05503	38.2215
2.05421	38.0267
2.0534	37.896
2.05259	37.8247
2.05177	38.0969
2.05096	38.1123
2.05015	37.6364
2.04934	37.4356
2.04853	37.8186
2.04772	37.9168
2.04691	37.7122
2.04611	37.6515
2.0453	37.7379
2.04449	37.7532
2.04369	37.5445
2.04288	37.5511
2.04208	37.7554
2.04127	37.5515
2.04047	37.4878
2.03967	37.5918
2.03886	37.7741
2.03806	37.9798
2.03726	38.0209
2.03646	38.0594
2.03566	37.805
2.03486	37.7323
2.03407	37.9513
2.03327	38
2.03247	37.9906
2.03167	38.2688
2.03088	38.2744
2.03008	38.1574
2.02929	38.3628
2.0285	38.601
2.0277	38.6884
2.02691	38.6601
2.02612	38.6213
2.02533	38.9129
2.02453	39.2494
2.02374	39.3206
2.02295	39.1917
2.02217	39.1933
2.02138	39.2878
2.02059	39.4799
2.0198	39.6918
2.01902	39.7102
2.01823	39.7992
2.01744	39.9693
2.01666	40.1304
2.01588	40.2251
2.01509	40.2809
2.01431	40.1793
2.01353	40.1272
2.01275	40.275
2.01196	40.576
2.01118	40.7181
2.0104	40.8391
2.00963	40.8214
2.00885	40.7675
2.00807	41.0109
2.00729	40.9545
2.00651	41.0226
2.00574	41.0452
2.00496	41.0265
2.00419	40.9544
2.00341	41.0445
2.00264	41.3413
2.00187	41.5156
2.00109	41.4807
2.00032	41.3673
