Name: Cerussite PbCO_3
Type: Mineral
Class: Carbonates
Subclass: 
Particle Size: 125-500um
Sample No.: C-10A
Owner: JPL
Wavelength range: VNIR-SWIR
Origin: USA, Arizona, Flux Mine.
Collected by:  JPL
Description: 





Measurement: Hemispherical reflectance
First Column: X
Second Column: Y
X Units: Wavelength (micrometers)
Y Units: Reflectance (percent)
First X Value: 2.500
Last X Value: 0.400
Number of X Values: 2101
Additional information: c10aa.txt

2.500  52.441149
2.499  52.141697
2.498  51.804510
2.497  51.826101
2.496  51.216435
2.495  51.478816
2.494  50.787776
2.493  51.004954
2.492  50.724224
2.491  50.633687
2.490  50.290135
2.489  50.393184
2.488  50.018906
2.487  50.031492
2.486  49.691550
2.485  49.619583
2.484  49.393509
2.483  49.389116
2.482  49.137641
2.481  49.197325
2.480  48.922336
2.479  49.056740
2.478  48.689510
2.477  48.565739
2.476  48.364264
2.475  48.502432
2.474  48.215217
2.473  48.146747
2.472  48.075789
2.471  48.081116
2.470  47.924716
2.469  47.958119
2.468  47.869801
2.467  47.800985
2.466  47.873333
2.465  47.679412
2.464  47.778055
2.463  47.841734
2.462  47.739083
2.461  47.822877
2.460  47.645791
2.459  47.708666
2.458  47.691415
2.457  47.958429
2.456  47.903099
2.455  48.047056
2.454  47.990650
2.453  48.205350
2.452  48.250270
2.451  48.457480
2.450  48.503301
2.449  48.659748
2.448  48.753535
2.447  48.933128
2.446  49.068322
2.445  49.215376
2.444  49.313187
2.443  49.428872
2.442  49.469771
2.441  49.585482
2.440  49.739791
2.439  49.940728
2.438  49.984847
2.437  50.045558
2.436  50.203125
2.435  50.171042
2.434  50.160945
2.433  50.276355
2.432  50.344323
2.431  50.409134
2.430  50.475154
2.429  50.558970
2.428  50.486249
2.427  50.598737
2.426  50.651338
2.425  50.790053
2.424  50.876988
2.423  50.927675
2.422  50.971352
2.421  51.087839
2.420  51.197185
2.419  51.383371
2.418  51.486956
2.417  51.685854
2.416  51.797216
2.415  52.076571
2.414  52.153584
2.413  52.299590
2.412  52.481689
2.411  52.662816
2.410  52.872565
2.409  53.081429
2.408  53.194999
2.407  53.416267
2.406  53.608827
2.405  53.842738
2.404  53.972996
2.403  54.167266
2.402  54.310981
2.401  54.467106
2.400  54.703341
2.399  54.916872
2.398  54.991256
2.397  55.195615
2.396  55.424939
2.395  55.670483
2.394  55.784569
2.393  55.985230
2.392  56.072605
2.391  56.256875
2.390  56.466030
2.389  56.656574
2.388  56.799970
2.387  56.966819
2.386  57.123624
2.385  57.348378
2.384  57.494113
2.383  57.686059
2.382  57.796236
2.381  57.988474
2.380  58.120656
2.379  58.303304
2.378  58.529857
2.377  58.702004
2.376  58.851658
2.375  59.091055
2.374  59.287447
2.373  59.492500
2.372  59.671203
2.371  59.814162
2.370  59.990000
2.369  60.193587
2.368  60.344098
2.367  60.568701
2.366  60.750303
2.365  60.870626
2.364  61.021242
2.363  61.169934
2.362  61.364256
2.361  61.603047
2.360  61.789036
2.359  61.959208
2.358  62.109748
2.357  62.303829
2.356  62.462040
2.355  62.588568
2.354  62.742375
2.353  62.910646
2.352  63.124782
2.351  63.349928
2.350  63.549060
2.349  63.689541
2.348  63.888774
2.347  64.069618
2.346  64.222227
2.345  64.338719
2.344  64.535590
2.343  64.724818
2.342  64.903321
2.341  65.078893
2.340  65.223370
2.339  65.420606
2.338  65.620723
2.337  65.765293
2.336  65.951447
2.335  66.089703
2.334  66.216791
2.333  66.420402
2.332  66.591819
2.331  66.727972
2.330  66.895149
2.329  67.080953
2.328  67.228904
2.327  67.368603
2.326  67.560422
2.325  67.709881
2.324  67.832437
2.323  67.949551
2.322  68.105962
2.321  68.293877
2.320  68.451355
2.319  68.552487
2.318  68.733033
2.317  68.836788
2.316  68.973967
2.315  69.125886
2.314  69.276329
2.313  69.430571
2.312  69.609308
2.311  69.714430
2.310  69.854053
2.309  69.946866
2.308  70.076016
2.307  70.227955
2.306  70.324779
2.305  70.457272
2.304  70.564785
2.303  70.653943
2.302  70.812414
2.301  70.899957
2.300  70.975127
2.299  71.172364
2.298  71.293660
2.297  71.299450
2.296  71.402813
2.295  71.462997
2.294  71.580487
2.293  71.715356
2.292  71.768421
2.291  71.882450
2.290  71.915368
2.289  72.051216
2.288  72.144220
2.287  72.195624
2.286  72.234462
2.285  72.293037
2.284  72.408397
2.283  72.417547
2.282  72.558844
2.281  72.564996
2.280  72.658547
2.279  72.715821
2.278  72.796251
2.277  72.768268
2.276  72.886713
2.275  72.858451
2.274  72.895304
2.273  72.936423
2.272  72.994375
2.271  72.981046
2.270  73.023588
2.269  73.015878
2.268  73.085416
2.267  73.052576
2.266  73.015670
2.265  73.044134
2.264  73.033752
2.263  72.939489
2.262  72.994019
2.261  72.923974
2.260  72.996244
2.259  72.921792
2.258  72.937512
2.257  72.920906
2.256  72.891070
2.255  72.952594
2.254  72.912225
2.253  73.009376
2.252  72.978752
2.251  73.058135
2.250  73.040391
2.249  73.084940
2.248  73.192427
2.247  73.200894
2.246  73.245901
2.245  73.297262
2.244  73.426843
2.243  73.423164
2.242  73.557921
2.241  73.514808
2.240  73.624823
2.239  73.654600
2.238  73.750861
2.237  73.829643
2.236  73.922068
2.235  73.876899
2.234  73.868338
2.233  73.997187
2.232  74.108896
2.231  74.136177
2.230  74.318490
2.229  74.322388
2.228  74.550937
2.227  74.613267
2.226  74.709849
2.225  74.805772
2.224  75.094334
2.223  75.093772
2.222  75.331784
2.221  75.452764
2.220  75.512501
2.219  75.644667
2.218  75.855514
2.217  75.899774
2.216  76.080179
2.215  76.103221
2.214  76.301705
2.213  76.341593
2.212  76.524937
2.211  76.496401
2.210  76.545457
2.209  76.639686
2.208  76.720035
2.207  76.800540
2.206  76.914931
2.205  76.946735
2.204  76.998796
2.203  76.997194
2.202  77.167167
2.201  77.220409
2.200  77.225070
2.199  77.321960
2.198  77.337958
2.197  77.397077
2.196  77.378606
2.195  77.415561
2.194  77.464980
2.193  77.595079
2.192  77.725286
2.191  77.685313
2.190  77.724571
2.189  77.767478
2.188  77.787514
2.187  77.843938
2.186  77.923074
2.185  77.957592
2.184  78.071741
2.183  78.028014
2.182  78.099057
2.181  78.132997
2.180  78.194001
2.179  78.235325
2.178  78.260970
2.177  78.386855
2.176  78.368707
2.175  78.467382
2.174  78.451588
2.173  78.443318
2.172  78.574597
2.171  78.515531
2.170  78.626335
2.169  78.661677
2.168  78.767602
2.167  78.761427
2.166  78.777491
2.165  78.835639
2.164  78.777836
2.163  78.840426
2.162  78.946462
2.161  78.913998
2.160  78.961182
2.159  78.937908
2.158  78.984368
2.157  78.970729
2.156  78.986748
2.155  78.970504
2.154  78.971046
2.153  79.037488
2.152  79.008975
2.151  78.953966
2.150  78.994038
2.149  79.014117
2.148  79.008952
2.147  78.973805
2.146  78.934177
2.145  78.931491
2.144  78.900484
2.143  78.845691
2.142  78.825402
2.141  78.782202
2.140  78.777205
2.139  78.730964
2.138  78.700507
2.137  78.641305
2.136  78.591819
2.135  78.506261
2.134  78.454536
2.133  78.394093
2.132  78.351833
2.131  78.314406
2.130  78.251501
2.129  78.168316
2.128  78.115653
2.127  77.989864
2.126  77.881196
2.125  77.814551
2.124  77.792740
2.123  77.705414
2.122  77.581027
2.121  77.532235
2.120  77.383468
2.119  77.365381
2.118  77.214839
2.117  77.092537
2.116  77.024745
2.115  76.900814
2.114  76.762623
2.113  76.686175
2.112  76.597179
2.111  76.528516
2.110  76.377136
2.109  76.295385
2.108  76.235800
2.107  76.072440
2.106  75.925177
2.105  75.838190
2.104  75.691310
2.103  75.566734
2.102  75.464377
2.101  75.232124
2.100  75.133615
2.099  75.081369
2.098  74.941516
2.097  74.824817
2.096  74.725353
2.095  74.530081
2.094  74.401501
2.093  74.260566
2.092  74.114438
2.091  73.926213
2.090  73.788524
2.089  73.686381
2.088  73.598803
2.087  73.464224
2.086  73.335843
2.085  73.277144
2.084  73.282666
2.083  73.301160
2.082  73.294203
2.081  73.295842
2.080  73.390998
2.079  73.448738
2.078  73.492812
2.077  73.600167
2.076  73.724148
2.075  73.792309
2.074  73.840076
2.073  73.904423
2.072  73.926677
2.071  73.991059
2.070  74.064969
2.069  74.066535
2.068  74.108471
2.067  74.137861
2.066  74.134499
2.065  74.167981
2.064  74.274104
2.063  74.313008
2.062  74.285839
2.061  74.340417
2.060  74.359873
2.059  74.348778
2.058  74.419619
2.057  74.458769
2.056  74.467595
2.055  74.520257
2.054  74.529843
2.053  74.558514
2.052  74.579497
2.051  74.627233
2.050  74.636279
2.049  74.641415
2.048  74.625590
2.047  74.669686
2.046  74.707893
2.045  74.692564
2.044  74.691610
2.043  74.719631
2.042  74.766151
2.041  74.725134
2.040  74.670614
2.039  74.678869
2.038  74.697197
2.037  74.724482
2.036  74.713887
2.035  74.708826
2.034  74.663724
2.033  74.728486
2.032  74.732766
2.031  74.686789
2.030  74.622587
2.029  74.608831
2.028  74.591070
2.027  74.554114
2.026  74.497961
2.025  74.518521
2.024  74.480472
2.023  74.478571
2.022  74.441097
2.021  74.416893
2.020  74.335531
2.019  74.290913
2.018  74.257028
2.017  74.217124
2.016  74.141174
2.015  74.058692
2.014  74.057616
2.013  74.066845
2.012  73.933524
2.011  73.833520
2.010  73.727525
2.009  73.726639
2.008  73.599520
2.007  73.548295
2.006  73.499271
2.005  73.349688
2.004  73.272833
2.003  73.248206
2.002  73.149012
2.001  73.083344
2.000  72.928283
1.999  72.891367
1.998  72.806942
1.997  72.692092
1.996  72.546404
1.995  72.424141
1.994  72.381670
1.993  72.229946
1.992  72.048619
1.991  71.992373
1.990  71.888782
1.989  71.738183
1.988  71.567333
1.987  71.550291
1.986  71.390317
1.985  71.305391
1.984  71.210644
1.983  71.053272
1.982  70.952076
1.981  70.865620
1.980  70.715568
1.979  70.695748
1.978  70.595445
1.977  70.559127
1.976  70.497895
1.975  70.323423
1.974  70.205751
1.973  70.222331
1.972  70.084560
1.971  70.059848
1.970  69.891495
1.969  69.814436
1.968  69.791725
1.967  69.685990
1.966  69.561178
1.965  69.583780
1.964  69.526314
1.963  69.506890
1.962  69.375667
1.961  69.386712
1.960  69.306748
1.959  69.386075
1.958  69.182639
1.957  69.185171
1.956  69.228561
1.955  69.186218
1.954  69.173437
1.953  69.137990
1.952  69.064084
1.951  69.109369
1.950  68.985219
1.949  68.943072
1.948  68.896246
1.947  68.929708
1.946  68.863361
1.945  68.824210
1.944  68.810225
1.943  68.767745
1.942  68.682072
1.941  68.797576
1.940  68.711688
1.939  68.806124
1.938  68.693421
1.937  68.717798
1.936  68.660479
1.935  68.732837
1.934  68.740017
1.933  68.742819
1.932  68.726934
1.931  68.754141
1.930  68.878541
1.929  68.959136
1.928  68.959505
1.927  69.048012
1.926  68.986416
1.925  69.170573
1.924  69.267384
1.923  69.286006
1.922  69.267991
1.921  69.372072
1.920  69.507520
1.919  69.596066
1.918  69.611496
1.917  69.699658
1.916  69.761844
1.915  69.996695
1.914  70.066340
1.913  70.214748
1.912  70.289852
1.911  70.448538
1.910  70.535317
1.909  70.704173
1.908  70.845523
1.907  70.969052
1.906  71.151339
1.905  71.395479
1.904  71.592397
1.903  71.828690
1.902  72.065984
1.901  72.209190
1.900  72.487281
1.899  72.812853
1.898  73.032757
1.897  73.360976
1.896  73.578775
1.895  73.879231
1.894  74.153466
1.893  74.518886
1.892  74.764485
1.891  75.144153
1.890  75.430000
1.889  75.726065
1.888  75.955247
1.887  76.275623
1.886  76.527005
1.885  76.758754
1.884  77.068178
1.883  77.296645
1.882  77.478390
1.881  77.760039
1.880  77.906656
1.879  78.142989
1.878  78.279248
1.877  78.483431
1.876  78.628578
1.875  78.824044
1.874  78.946020
1.873  79.115561
1.872  79.198019
1.871  79.352525
1.870  79.461853
1.869  79.592089
1.868  79.656305
1.867  79.749006
1.866  79.864469
1.865  79.866840
1.864  79.968534
1.863  80.017410
1.862  80.094017
1.861  80.176235
1.860  80.178575
1.859  80.200880
1.858  80.293795
1.857  80.280264
1.856  80.261757
1.855  80.405473
1.854  80.435167
1.853  80.409705
1.852  80.418231
1.851  80.548433
1.850  80.571253
1.849  80.563459
1.848  80.538811
1.847  80.546814
1.846  80.493575
1.845  80.549771
1.844  80.592000
1.843  80.532624
1.842  80.569369
1.841  80.597483
1.840  80.642809
1.839  80.593931
1.838  80.542172
1.837  80.579024
1.836  80.553002
1.835  80.573627
1.834  80.618617
1.833  80.601341
1.832  80.517994
1.831  80.559093
1.830  80.602543
1.829  80.513627
1.828  80.486879
1.827  80.522259
1.826  80.579812
1.825  80.549557
1.824  80.564983
1.823  80.563739
1.822  80.521618
1.821  80.527837
1.820  80.563616
1.819  80.590772
1.818  80.630841
1.817  80.615755
1.816  80.623568
1.815  80.643080
1.814  80.623898
1.813  80.581888
1.812  80.566888
1.811  80.618788
1.810  80.661158
1.809  80.650953
1.808  80.613250
1.807  80.587752
1.806  80.580975
1.805  80.686525
1.804  80.702328
1.803  80.635600
1.802  80.626638
1.801  80.632520
1.800  80.689843
1.799  80.738396
1.798  80.708023
1.797  80.654641
1.796  80.680486
1.795  80.710536
1.794  80.694612
1.793  80.744238
1.792  80.733688
1.791  80.689218
1.790  80.699777
1.789  80.790615
1.788  80.806981
1.787  80.703964
1.786  80.716549
1.785  80.752200
1.784  80.739707
1.783  80.750832
1.782  80.800193
1.781  80.808704
1.780  80.817178
1.779  80.836891
1.778  80.830085
1.777  80.832566
1.776  80.838568
1.775  80.868135
1.774  80.920654
1.773  80.943348
1.772  80.925263
1.771  80.919979
1.770  80.989132
1.769  81.015032
1.768  81.038799
1.767  81.086697
1.766  81.045490
1.765  81.035948
1.764  81.067568
1.763  81.117585
1.762  81.074968
1.761  81.039330
1.760  81.063755
1.759  81.078087
1.758  81.063506
1.757  81.052991
1.756  81.127808
1.755  81.155682
1.754  81.139210
1.753  81.192307
1.752  81.230001
1.751  81.270857
1.750  81.205206
1.749  81.224373
1.748  81.289230
1.747  81.278097
1.746  81.297918
1.745  81.299473
1.744  81.327594
1.743  81.361231
1.742  81.404628
1.741  81.410978
1.740  81.341541
1.739  81.369783
1.738  81.396271
1.737  81.442178
1.736  81.508687
1.735  81.456763
1.734  81.393003
1.733  81.418451
1.732  81.499589
1.731  81.535663
1.730  81.479182
1.729  81.485072
1.728  81.479576
1.727  81.428860
1.726  81.473358
1.725  81.445038
1.724  81.490430
1.723  81.494938
1.722  81.508908
1.721  81.496608
1.720  81.562511
1.719  81.523459
1.718  81.500863
1.717  81.480604
1.716  81.521265
1.715  81.488621
1.714  81.520239
1.713  81.488796
1.712  81.548854
1.711  81.583280
1.710  81.591366
1.709  81.524768
1.708  81.567396
1.707  81.542196
1.706  81.536645
1.705  81.537796
1.704  81.616849
1.703  81.585963
1.702  81.622504
1.701  81.549145
1.700  81.501494
1.699  81.571102
1.698  81.618481
1.697  81.560898
1.696  81.626788
1.695  81.554336
1.694  81.597248
1.693  81.571038
1.692  81.608146
1.691  81.556062
1.690  81.590610
1.689  81.584341
1.688  81.707677
1.687  81.564348
1.686  81.553331
1.685  81.544115
1.684  81.546383
1.683  81.590230
1.682  81.588071
1.681  81.598589
1.680  81.578461
1.679  81.526948
1.678  81.584883
1.677  81.534044
1.676  81.589441
1.675  81.608331
1.674  81.638719
1.673  81.616459
1.672  81.626707
1.671  81.564012
1.670  81.557467
1.669  81.553249
1.668  81.534142
1.667  81.566482
1.666  81.613390
1.665  81.580295
1.664  81.645807
1.663  81.581036
1.662  81.571842
1.661  81.558851
1.660  81.646191
1.659  81.549674
1.658  81.523487
1.657  81.562497
1.656  81.486402
1.655  81.509256
1.654  81.520858
1.653  81.571800
1.652  81.553885
1.651  81.559662
1.650  81.410671
1.649  81.423985
1.648  81.466871
1.647  81.498050
1.646  81.485992
1.645  81.397882
1.644  81.433196
1.643  81.504121
1.642  81.456834
1.641  81.445442
1.640  81.560192
1.639  81.443046
1.638  81.403443
1.637  81.407682
1.636  81.472165
1.635  81.493433
1.634  81.549556
1.633  81.431469
1.632  81.513324
1.631  81.459622
1.630  81.408108
1.629  81.464546
1.628  81.476328
1.627  81.436444
1.626  81.477764
1.625  81.430192
1.624  81.479662
1.623  81.442406
1.622  81.484439
1.621  81.370194
1.620  81.397200
1.619  81.317617
1.618  81.411247
1.617  81.449359
1.616  81.498085
1.615  81.478401
1.614  81.510885
1.613  81.447616
1.612  81.446321
1.611  81.429434
1.610  81.505736
1.609  81.474576
1.608  81.411456
1.607  81.477232
1.606  81.477109
1.605  81.359505
1.604  81.419010
1.603  81.486631
1.602  81.392262
1.601  81.415102
1.600  81.459340
1.599  81.451117
1.598  81.467277
1.597  81.464770
1.596  81.459568
1.595  81.396185
1.594  81.341724
1.593  81.348761
1.592  81.339323
1.591  81.344768
1.590  81.329034
1.589  81.345537
1.588  81.392478
1.587  81.341170
1.586  81.287707
1.585  81.298153
1.584  81.208542
1.583  81.239412
1.582  81.315176
1.581  81.302496
1.580  81.233624
1.579  81.230368
1.578  81.260093
1.577  81.221715
1.576  81.212564
1.575  81.197686
1.574  81.233286
1.573  81.169935
1.572  81.167566
1.571  81.148204
1.570  81.163269
1.569  81.102931
1.568  81.138945
1.567  81.133942
1.566  81.084892
1.565  81.074590
1.564  81.077343
1.563  81.070007
1.562  81.113093
1.561  81.113781
1.560  81.038237
1.559  80.924587
1.558  80.989398
1.557  80.999832
1.556  80.975035
1.555  80.944516
1.554  80.953226
1.553  80.917107
1.552  80.975482
1.551  80.914749
1.550  80.847778
1.549  80.825501
1.548  80.793023
1.547  80.789467
1.546  80.771607
1.545  80.775534
1.544  80.775718
1.543  80.708535
1.542  80.758335
1.541  80.680593
1.540  80.669727
1.539  80.665018
1.538  80.677478
1.537  80.665577
1.536  80.628139
1.535  80.594574
1.534  80.595762
1.533  80.613182
1.532  80.564221
1.531  80.497476
1.530  80.460214
1.529  80.405827
1.528  80.412520
1.527  80.407173
1.526  80.398395
1.525  80.302806
1.524  80.276972
1.523  80.244873
1.522  80.263857
1.521  80.320197
1.520  80.313897
1.519  80.246649
1.518  80.234968
1.517  80.224540
1.516  80.134064
1.515  80.121318
1.514  80.120961
1.513  80.069719
1.512  80.046084
1.511  80.021262
1.510  80.033464
1.509  80.021762
1.508  79.975009
1.507  79.962708
1.506  79.953313
1.505  79.910301
1.504  79.881309
1.503  79.829333
1.502  79.749850
1.501  79.753927
1.500  79.769863
1.499  79.716121
1.498  79.703454
1.497  79.660681
1.496  79.618893
1.495  79.640401
1.494  79.593690
1.493  79.570068
1.492  79.578646
1.491  79.530871
1.490  79.466692
1.489  79.468823
1.488  79.455140
1.487  79.385016
1.486  79.375048
1.485  79.364462
1.484  79.315965
1.483  79.310711
1.482  79.265771
1.481  79.222895
1.480  79.211614
1.479  79.207127
1.478  79.123465
1.477  79.111017
1.476  79.140699
1.475  79.086211
1.474  79.025190
1.473  79.033188
1.472  79.034442
1.471  78.997057
1.470  78.935669
1.469  78.951565
1.468  78.916411
1.467  78.955788
1.466  78.885172
1.465  78.800335
1.464  78.803282
1.463  78.778529
1.462  78.792019
1.461  78.770970
1.460  78.771156
1.459  78.791641
1.458  78.759096
1.457  78.747623
1.456  78.749248
1.455  78.796804
1.454  78.662266
1.453  78.741203
1.452  78.772959
1.451  78.789255
1.450  78.752665
1.449  78.737905
1.448  78.740781
1.447  78.734882
1.446  78.754717
1.445  78.770474
1.444  78.797631
1.443  78.823618
1.442  78.866282
1.441  78.840891
1.440  78.766559
1.439  78.826818
1.438  78.828782
1.437  78.853161
1.436  78.904403
1.435  78.909405
1.434  78.889696
1.433  78.908565
1.432  78.877375
1.431  78.946072
1.430  78.958412
1.429  79.027038
1.428  79.001163
1.427  79.020216
1.426  79.104021
1.425  79.173994
1.424  79.072373
1.423  79.154756
1.422  79.185298
1.421  79.230958
1.420  79.261642
1.419  79.295692
1.418  79.372437
1.417  79.360176
1.416  79.410939
1.415  79.492425
1.414  79.472301
1.413  79.543528
1.412  79.554924
1.411  79.664981
1.410  79.687755
1.409  79.674830
1.408  79.757533
1.407  79.890257
1.406  79.926846
1.405  79.992045
1.404  79.934899
1.403  80.169386
1.402  80.189826
1.401  80.229474
1.400  80.277311
1.399  80.387823
1.398  80.459904
1.397  80.526249
1.396  80.601421
1.395  80.747323
1.394  80.817730
1.393  80.891177
1.392  80.940963
1.391  81.072516
1.390  81.064649
1.389  81.085801
1.388  81.081908
1.387  81.290053
1.386  81.247838
1.385  81.359092
1.384  81.420197
1.383  81.399116
1.382  81.418220
1.381  81.405386
1.380  81.435601
1.379  81.495610
1.378  81.426164
1.377  81.558303
1.376  81.555932
1.375  81.545795
1.374  81.518058
1.373  81.561194
1.372  81.597404
1.371  81.551116
1.370  81.611272
1.369  81.679159
1.368  81.635630
1.367  81.677627
1.366  81.699975
1.365  81.656039
1.364  81.649556
1.363  81.685070
1.362  81.529069
1.361  81.674115
1.360  81.629542
1.359  81.712838
1.358  81.568983
1.357  81.658731
1.356  81.640627
1.355  81.667319
1.354  81.627581
1.353  81.599800
1.352  81.734828
1.351  81.662426
1.350  81.601984
1.349  81.738955
1.348  81.653436
1.347  81.652238
1.346  81.657847
1.345  81.638146
1.344  81.691622
1.343  81.669507
1.342  81.637050
1.341  81.690202
1.340  81.605854
1.339  81.667249
1.338  81.711946
1.337  81.651926
1.336  81.637896
1.335  81.730081
1.334  81.715421
1.333  81.740003
1.332  81.642058
1.331  81.623877
1.330  81.639538
1.329  81.715564
1.328  81.692083
1.327  81.651844
1.326  81.698032
1.325  81.723372
1.324  81.717300
1.323  81.732796
1.322  81.673249
1.321  81.686080
1.320  81.723006
1.319  81.712249
1.318  81.688427
1.317  81.776439
1.316  81.679160
1.315  81.708866
1.314  81.720778
1.313  81.764224
1.312  81.748584
1.311  81.773546
1.310  81.723503
1.309  81.734104
1.308  81.703707
1.307  81.687594
1.306  81.723516
1.305  81.718392
1.304  81.670144
1.303  81.757342
1.302  81.708514
1.301  81.720883
1.300  81.759636
1.299  81.733524
1.298  81.707339
1.297  81.703390
1.296  81.731156
1.295  81.776823
1.294  81.747890
1.293  81.729127
1.292  81.731306
1.291  81.713864
1.290  81.695375
1.289  81.727030
1.288  81.754307
1.287  81.673530
1.286  81.699216
1.285  81.727252
1.284  81.733398
1.283  81.702807
1.282  81.699906
1.281  81.780558
1.280  81.736101
1.279  81.695243
1.278  81.723742
1.277  81.703795
1.276  81.688389
1.275  81.721441
1.274  81.686229
1.273  81.658185
1.272  81.658992
1.271  81.641517
1.270  81.673414
1.269  81.719576
1.268  81.707919
1.267  81.682379
1.266  81.706800
1.265  81.675507
1.264  81.664100
1.263  81.669532
1.262  81.667728
1.261  81.663937
1.260  81.639927
1.259  81.621609
1.258  81.654665
1.257  81.645987
1.256  81.567244
1.255  81.625246
1.254  81.644267
1.253  81.613488
1.252  81.567895
1.251  81.564477
1.250  81.584524
1.249  81.595790
1.248  81.595260
1.247  81.675090
1.246  81.633234
1.245  81.567563
1.244  81.599941
1.243  81.565521
1.242  81.554752
1.241  81.565733
1.240  81.576232
1.239  81.637390
1.238  81.601393
1.237  81.572239
1.236  81.606339
1.235  81.613209
1.234  81.591998
1.233  81.583741
1.232  81.594212
1.231  81.562811
1.230  81.548617
1.229  81.600015
1.228  81.584270
1.227  81.578103
1.226  81.579483
1.225  81.543478
1.224  81.566914
1.223  81.553504
1.222  81.527119
1.221  81.514386
1.220  81.534620
1.219  81.557028
1.218  81.533879
1.217  81.536284
1.216  81.554459
1.215  81.524495
1.214  81.508197
1.213  81.512681
1.212  81.498672
1.211  81.526882
1.210  81.524761
1.209  81.461332
1.208  81.416476
1.207  81.468182
1.206  81.496629
1.205  81.467204
1.204  81.467769
1.203  81.512012
1.202  81.514110
1.201  81.486489
1.200  81.471489
1.199  81.496392
1.198  81.489481
1.197  81.437878
1.196  81.442852
1.195  81.501894
1.194  81.490638
1.193  81.448203
1.192  81.466299
1.191  81.461044
1.190  81.496744
1.189  81.503561
1.188  81.428926
1.187  81.420745
1.186  81.502118
1.185  81.487052
1.184  81.516634
1.183  81.447742
1.182  81.442444
1.181  81.552154
1.180  81.572620
1.179  81.492691
1.178  81.447777
1.177  81.497784
1.176  81.525452
1.175  81.545814
1.174  81.523350
1.173  81.494069
1.172  81.480394
1.171  81.405459
1.170  81.423395
1.169  81.450573
1.168  81.413507
1.167  81.409173
1.166  81.472660
1.165  81.438677
1.164  81.419948
1.163  81.408549
1.162  81.417056
1.161  81.429288
1.160  81.460412
1.159  81.459108
1.158  81.468200
1.157  81.393873
1.156  81.435400
1.155  81.418169
1.154  81.370694
1.153  81.417734
1.152  81.411923
1.151  81.426247
1.150  81.473883
1.149  81.396573
1.148  81.426561
1.147  81.488762
1.146  81.433758
1.145  81.494804
1.144  81.506466
1.143  81.535665
1.142  81.472448
1.141  81.463431
1.140  81.549334
1.139  81.498227
1.138  81.549015
1.137  81.507258
1.136  81.504440
1.135  81.464968
1.134  81.500864
1.133  81.467999
1.132  81.468198
1.131  81.501863
1.130  81.548997
1.129  81.547717
1.128  81.485279
1.127  81.445309
1.126  81.485958
1.125  81.512731
1.124  81.549056
1.123  81.469748
1.122  81.459834
1.121  81.486356
1.120  81.480578
1.119  81.522441
1.118  81.446111
1.117  81.437992
1.116  81.409795
1.115  81.495263
1.114  81.503211
1.113  81.427806
1.112  81.566670
1.111  81.517617
1.110  81.487039
1.109  81.447936
1.108  81.498314
1.107  81.407439
1.106  81.419182
1.105  81.399322
1.104  81.427144
1.103  81.487907
1.102  81.435510
1.101  81.463543
1.100  81.536171
1.099  81.424887
1.098  81.458100
1.097  81.430910
1.096  81.460725
1.095  81.460511
1.094  81.432169
1.093  81.433199
1.092  81.422815
1.091  81.452970
1.090  81.515301
1.089  81.487049
1.088  81.394426
1.087  81.354065
1.086  81.480536
1.085  81.390113
1.084  81.435921
1.083  81.398575
1.082  81.366400
1.081  81.377855
1.080  81.338873
1.079  81.390554
1.078  81.425630
1.077  81.351878
1.076  81.321665
1.075  81.363369
1.074  81.428978
1.073  81.405190
1.072  81.376775
1.071  81.355993
1.070  81.345082
1.069  81.376527
1.068  81.298252
1.067  81.411613
1.066  81.348035
1.065  81.354002
1.064  81.389220
1.063  81.370086
1.062  81.427768
1.061  81.315890
1.060  81.383557
1.059  81.334143
1.058  81.390839
1.057  81.342535
1.056  81.321211
1.055  81.401198
1.054  81.344783
1.053  81.371562
1.052  81.272187
1.051  81.307324
1.050  81.464638
1.049  81.391502
1.048  81.318491
1.047  81.388789
1.046  81.403054
1.045  81.288596
1.044  81.366483
1.043  81.314654
1.042  81.318149
1.041  81.249218
1.040  81.281137
1.039  81.267909
1.038  81.281082
1.037  81.324601
1.036  81.303947
1.035  81.330256
1.034  81.325090
1.033  81.235924
1.032  81.222641
1.031  81.236830
1.030  81.283262
1.029  81.324626
1.028  81.281909
1.027  81.218908
1.026  81.335060
1.025  81.239424
1.024  81.225669
1.023  81.285282
1.022  81.291573
1.021  81.181810
1.020  81.260933
1.019  81.271418
1.018  81.255975
1.017  81.197494
1.016  81.265245
1.015  81.289157
1.014  81.240530
1.013  81.244545
1.012  81.256827
1.011  81.223965
1.010  81.216506
1.009  81.204410
1.008  81.204707
1.007  81.265379
1.006  81.273772
1.005  81.248670
1.004  81.216042
1.003  81.163472
1.002  81.191482
1.001  81.160338
1.000  81.194525
0.999  81.181575
0.998  81.282287
0.997  81.201821
0.996  81.152824
0.995  81.188953
0.994  81.199910
0.993  81.162276
0.992  81.227484
0.991  81.196912
0.990  81.175489
0.989  81.120084
0.988  81.160420
0.987  81.174397
0.986  81.213470
0.985  81.192552
0.984  81.205873
0.983  81.165242
0.982  81.163077
0.981  81.195963
0.980  81.207318
0.979  81.177531
0.978  81.190351
0.977  81.195933
0.976  81.123640
0.975  81.029841
0.974  81.037172
0.973  81.054629
0.972  81.126504
0.971  81.109050
0.970  81.131712
0.969  81.156650
0.968  81.154096
0.967  81.065794
0.966  81.093875
0.965  81.172401
0.964  81.128135
0.963  81.104640
0.962  81.129694
0.961  81.104285
0.960  81.095435
0.959  81.131494
0.958  81.119578
0.957  81.072262
0.956  81.028560
0.955  81.064070
0.954  81.115349
0.953  81.078431
0.952  81.063669
0.951  81.019608
0.950  81.044508
0.949  81.028629
0.948  81.095707
0.947  81.087001
0.946  81.028548
0.945  81.108327
0.944  81.101204
0.943  81.084668
0.942  81.104847
0.941  81.079704
0.940  81.075894
0.939  81.107643
0.938  81.090576
0.937  81.061704
0.936  81.068551
0.935  81.098211
0.934  81.095873
0.933  81.044812
0.932  81.023953
0.931  81.044863
0.930  81.060738
0.929  81.054145
0.928  81.042903
0.927  81.041291
0.926  81.042333
0.925  81.049435
0.924  81.051556
0.923  81.032104
0.922  81.057191
0.921  81.074130
0.920  80.959943
0.919  80.972025
0.918  81.040026
0.917  81.001495
0.916  80.988943
0.915  81.032263
0.914  81.071678
0.913  81.031703
0.912  80.966841
0.911  81.035912
0.910  81.017611
0.909  81.036952
0.908  81.059665
0.907  80.964626
0.906  80.968930
0.905  81.027660
0.904  81.017553
0.903  81.018218
0.902  81.009292
0.901  80.978502
0.900  80.948573
0.899  80.972866
0.898  80.999709
0.897  80.986514
0.896  80.966519
0.895  80.969378
0.894  80.972416
0.893  80.954080
0.892  80.963015
0.891  81.015968
0.890  80.975710
0.889  80.963798
0.888  80.942946
0.887  80.983352
0.886  80.907599
0.885  80.944610
0.884  80.936447
0.883  80.951333
0.882  80.938433
0.881  80.915087
0.880  80.875433
0.879  80.929443
0.878  80.933363
0.877  80.840527
0.876  80.859086
0.875  80.877494
0.874  80.883083
0.873  80.879719
0.872  80.895058
0.871  80.833103
0.870  80.891088
0.869  80.861378
0.868  80.893182
0.867  80.867999
0.866  80.878664
0.865  80.827683
0.864  80.839175
0.863  80.829133
0.862  80.789408
0.861  80.853653
0.860  80.689158
0.859  80.694811
0.858  80.702959
0.857  80.712793
0.856  80.625895
0.855  80.754263
0.854  80.707745
0.853  80.716644
0.852  80.740052
0.851  80.736800
0.850  80.639322
0.849  80.689780
0.848  80.698732
0.847  80.765218
0.846  80.749793
0.845  80.777809
0.844  80.698576
0.843  80.724062
0.842  80.724690
0.841  80.705203
0.840  80.747925
0.839  80.733192
0.838  80.748654
0.837  80.768597
0.836  80.730520
0.835  80.754323
0.834  80.758105
0.833  80.800517
0.832  80.736434
0.831  80.717305
0.830  80.765911
0.829  80.758128
0.828  80.734062
0.827  80.742973
0.826  80.770469
0.825  80.729800
0.824  80.659460
0.823  80.774480
0.822  80.714796
0.821  80.726059
0.820  80.778105
0.819  80.699327
0.818  80.687528
0.817  80.733741
0.816  80.698023
0.815  80.714226
0.814  80.687684
0.813  80.738056
0.812  80.684611
0.811  80.657244
0.810  80.698785
0.809  80.632562
0.808  80.591680
0.807  80.603671
0.806  80.626897
0.805  80.536384
0.804  80.618237
0.803  80.603372
0.802  80.547806
0.801  80.535015
0.800  80.505657
0.799  80.471971
0.798  80.439329
0.797  80.469807
0.796  80.472476
0.795  80.411774
0.794  80.506505
0.793  80.456635
0.792  80.453769
0.791  80.516126
0.790  80.508706
0.789  80.487866
0.788  80.457046
0.787  80.535844
0.786  80.547427
0.785  80.562899
0.784  80.590763
0.783  80.520509
0.782  80.562073
0.781  80.586934
0.780  80.547826
0.779  80.535055
0.778  80.549439
0.777  80.541811
0.776  80.544171
0.775  80.527048
0.774  80.551388
0.773  80.525236
0.772  80.546880
0.771  80.520592
0.770  80.509839
0.769  80.511542
0.768  80.528925
0.767  80.490508
0.766  80.485834
0.765  80.489186
0.764  80.464032
0.763  80.487775
0.762  80.495542
0.761  80.481984
0.760  80.448633
0.759  80.504177
0.758  80.474437
0.757  80.432594
0.756  80.406318
0.755  80.417866
0.754  80.383832
0.753  80.374338
0.752  80.368983
0.751  80.349494
0.750  80.361601
0.749  80.390996
0.748  80.354488
0.747  80.339468
0.746  80.330887
0.745  80.316221
0.744  80.301866
0.743  80.342914
0.742  80.303549
0.741  80.316378
0.740  80.282105
0.739  80.258368
0.738  80.239823
0.737  80.197190
0.736  80.143657
0.735  80.128480
0.734  80.106561
0.733  80.134993
0.732  80.175978
0.731  80.208922
0.730  80.237216
0.729  80.242895
0.728  80.252380
0.727  80.297502
0.726  80.278293
0.725  80.275986
0.724  80.308388
0.723  80.256688
0.722  80.247413
0.721  80.294176
0.720  80.307636
0.719  80.288230
0.718  80.284424
0.717  80.286683
0.716  80.263993
0.715  80.230596
0.714  80.243672
0.713  80.229776
0.712  80.222075
0.711  80.241241
0.710  80.226008
0.709  80.218734
0.708  80.213336
0.707  80.221962
0.706  80.221960
0.705  80.232249
0.704  80.192214
0.703  80.187098
0.702  80.189849
0.701  80.194167
0.700  80.179701
0.699  80.164145
0.698  80.175389
0.697  80.171977
0.696  80.159228
0.695  80.159692
0.694  80.148362
0.693  80.144787
0.692  80.171269
0.691  80.157115
0.690  80.138602
0.689  80.119478
0.688  80.125700
0.687  80.105906
0.686  80.110081
0.685  80.094726
0.684  80.110338
0.683  80.094668
0.682  80.095000
0.681  80.106775
0.680  80.081636
0.679  80.082796
0.678  80.073958
0.677  80.060260
0.676  80.072320
0.675  80.068440
0.674  80.056347
0.673  80.041244
0.672  80.040267
0.671  80.043870
0.670  80.039044
0.669  80.035556
0.668  80.037989
0.667  80.048334
0.666  80.035117
0.665  80.029568
0.664  80.020776
0.663  80.037806
0.662  80.032315
0.661  80.013794
0.660  80.008726
0.659  80.012962
0.658  80.006657
0.657  80.007544
0.656  80.003281
0.655  80.014554
0.654  80.014846
0.653  80.006123
0.652  79.989648
0.651  79.971936
0.650  79.969800
0.649  79.968542
0.648  79.966886
0.647  79.972063
0.646  79.949202
0.645  79.943658
0.644  79.936420
0.643  79.915975
0.642  79.923245
0.641  79.924798
0.640  79.930958
0.639  79.929485
0.638  79.912496
0.637  79.903784
0.636  79.908444
0.635  79.905969
0.634  79.891429
0.633  79.888912
0.632  79.873350
0.631  79.863322
0.630  79.854915
0.629  79.857188
0.628  79.857149
0.627  79.839007
0.626  79.829074
0.625  79.821125
0.624  79.805518
0.623  79.797539
0.622  79.803342
0.621  79.793879
0.620  79.773288
0.619  79.764826
0.618  79.751318
0.617  79.744710
0.616  79.733509
0.615  79.726427
0.614  79.712061
0.613  79.686532
0.612  79.679339
0.611  79.666031
0.610  79.662809
0.609  79.646010
0.608  79.612126
0.607  79.603784
0.606  79.590376
0.605  79.555302
0.604  79.535192
0.603  79.525725
0.602  79.516500
0.601  79.488202
0.600  79.452570
0.599  79.465270
0.598  79.462135
0.597  79.453200
0.596  79.444180
0.595  79.429377
0.594  79.391243
0.593  79.381514
0.592  79.335860
0.591  79.266099
0.590  79.165374
0.589  79.051338
0.588  78.958057
0.587  78.892668
0.586  78.823269
0.585  78.758245
0.584  78.686130
0.583  78.570305
0.582  78.485803
0.581  78.441126
0.580  78.440682
0.579  78.506081
0.578  78.589684
0.577  78.662861
0.576  78.711419
0.575  78.716688
0.574  78.733481
0.573  78.776700
0.572  78.797711
0.571  78.812318
0.570  78.804029
0.569  78.783095
0.568  78.781871
0.567  78.800082
0.566  78.830154
0.565  78.851820
0.564  78.883471
0.563  78.916421
0.562  78.912874
0.561  78.896570
0.560  78.870486
0.559  78.840419
0.558  78.821764
0.557  78.815759
0.556  78.801305
0.555  78.760507
0.554  78.753592
0.553  78.730359
0.552  78.710980
0.551  78.689208
0.550  78.669942
0.549  78.649670
0.548  78.631607
0.547  78.603355
0.546  78.588137
0.545  78.565645
0.544  78.521039
0.543  78.497257
0.542  78.478744
0.541  78.454936
0.540  78.412717
0.539  78.381643
0.538  78.344477
0.537  78.325434
0.536  78.300852
0.535  78.273151
0.534  78.234966
0.533  78.213834
0.532  78.180016
0.531  78.120493
0.530  78.086750
0.529  78.059544
0.528  78.004079
0.527  77.968710
0.526  77.903927
0.525  77.865009
0.524  77.839914
0.523  77.797556
0.522  77.774670
0.521  77.752052
0.520  77.733437
0.519  77.697857
0.518  77.687946
0.517  77.648970
0.516  77.628532
0.515  77.573868
0.514  77.539484
0.513  77.489064
0.512  77.443798
0.511  77.418779
0.510  77.383717
0.509  77.343913
0.508  77.301761
0.507  77.269702
0.506  77.240810
0.505  77.217946
0.504  77.189957
0.503  77.150689
0.502  77.087741
0.501  77.072388
0.500  77.029839
0.499  77.011079
0.498  76.968102
0.497  76.926421
0.496  76.895062
0.495  76.860659
0.494  76.834581
0.493  76.792203
0.492  76.780535
0.491  76.720986
0.490  76.664992
0.489  76.624659
0.488  76.616449
0.487  76.548162
0.486  76.491501
0.485  76.472956
0.484  76.441612
0.483  76.380346
0.482  76.343362
0.481  76.344831
0.480  76.338781
0.479  76.326204
0.478  76.315092
0.477  76.275812
0.476  76.248531
0.475  76.250213
0.474  76.180046
0.473  76.176572
0.472  76.132422
0.471  76.104305
0.470  76.081674
0.469  76.030046
0.468  76.007457
0.467  75.988949
0.466  75.976882
0.465  75.933803
0.464  75.911292
0.463  75.883059
0.462  75.845841
0.461  75.810739
0.460  75.773001
0.459  75.744108
0.458  75.707843
0.457  75.667992
0.456  75.620914
0.455  75.601699
0.454  75.545199
0.453  75.521663
0.452  75.476875
0.451  75.425254
0.450  75.374171
0.449  75.337053
0.448  75.265036
0.447  75.240271
0.446  75.171735
0.445  75.112204
0.444  75.057934
0.443  75.018414
0.442  74.953192
0.441  74.888867
0.440  74.851297
0.439  74.794301
0.438  74.750919
0.437  74.698577
0.436  74.644833
0.435  74.567892
0.434  74.503628
0.433  74.453035
0.432  74.378896
0.431  74.321223
0.430  74.250441
0.429  74.178141
0.428  74.107928
0.427  74.068670
0.426  74.008107
0.425  73.938763
0.424  73.886086
0.423  73.809344
0.422  73.739441
0.421  73.685153
0.420  73.625713
0.419  73.581304
0.418  73.490180
0.417  73.430661
0.416  73.362510
0.415  73.304351
0.414  73.236465
0.413  73.168984
0.412  73.100644
0.411  73.020623
0.410  72.982309
0.409  72.913271
0.408  72.838004
0.407  72.737495
0.406  72.665636
0.405  72.566402
0.404  72.531542
0.403  72.446236
0.402  72.362534
0.401  72.289888
0.400  72.215378
