Name: Limestone Conglomerate-Breccia
Type: Rock
Class: Sedimentary
Subclass:  Conglomerate 
Particle Size: Solid surface
Sample No.: Ward50.txt
Owner: JPL
Wavelength range:  VNIR SWIR IR 
Origin: Ward's Collection of American Rocks.  Sample locality - Loudoun County, Virginia.
Collected by:  Ward's Natural Science
Description: This is a reddish brown conglomerate-breccia composed o
angular to rounded fragments of limestone of various shades of gray and
buff with a chocolate colored calcareous cement.  The degree of roundness
of the pebbles varies witht he specimen.
Geologic age - Triassic (Newark).

Measurement: Hemispherical reflectance
First Column: X
Second Column: Y
X Units: Wavelength (micrometers)
Y Units: Reflectance (percent)
First X Value: 2.500
Last X Value: 0.400
Number of X Values: 2101
Additional information: None

2.500  15.350672
2.499  15.382331
2.498  15.386864
2.497  15.878744
2.496  15.175785
2.495  15.819684
2.494  15.554298
2.493  15.827456
2.492  15.806712
2.491  15.898103
2.490  15.864338
2.489  16.146350
2.488  16.002206
2.487  16.241682
2.486  16.163706
2.485  16.328015
2.484  16.348493
2.483  16.535650
2.482  16.618540
2.481  16.743092
2.480  16.673086
2.479  16.924094
2.478  16.862999
2.477  17.188956
2.476  17.118320
2.475  17.282254
2.474  17.323147
2.473  17.544388
2.472  17.533917
2.471  17.668212
2.470  17.707361
2.469  17.820518
2.468  17.827523
2.467  17.923220
2.466  17.996012
2.465  18.153319
2.464  18.141598
2.463  18.339339
2.462  18.310026
2.461  18.559547
2.460  18.540254
2.459  18.684226
2.458  18.619567
2.457  18.802977
2.456  18.823264
2.455  19.108663
2.454  18.990306
2.453  19.100093
2.452  19.245720
2.451  19.363548
2.450  19.392273
2.449  19.587812
2.448  19.628546
2.447  19.842228
2.446  19.838835
2.445  20.052521
2.444  20.006471
2.443  20.230809
2.442  20.231411
2.441  20.385374
2.440  20.474384
2.439  20.725864
2.438  20.755456
2.437  20.986343
2.436  20.950611
2.435  21.075590
2.434  21.166650
2.433  21.387048
2.432  21.571184
2.431  21.677790
2.430  21.687378
2.429  21.760817
2.428  21.988416
2.427  22.060385
2.426  22.202985
2.425  22.365698
2.424  22.288143
2.423  22.530736
2.422  22.628574
2.421  22.695977
2.420  22.784464
2.419  22.937168
2.418  22.944784
2.417  23.065865
2.416  23.178550
2.415  23.299732
2.414  23.330736
2.413  23.444038
2.412  23.390689
2.411  23.517173
2.410  23.503101
2.409  23.647523
2.408  23.655411
2.407  23.726195
2.406  23.793574
2.405  23.896161
2.404  23.822245
2.403  23.936590
2.402  23.970772
2.401  24.031906
2.400  23.961744
2.399  23.996709
2.398  24.068198
2.397  24.130211
2.396  24.109562
2.395  24.169801
2.394  24.110040
2.393  24.214342
2.392  24.218473
2.391  24.242147
2.390  24.255024
2.389  24.346521
2.388  24.325415
2.387  24.350619
2.386  24.346317
2.385  24.408537
2.384  24.420303
2.383  24.420715
2.382  24.427842
2.381  24.454136
2.380  24.418421
2.379  24.379799
2.378  24.346553
2.377  24.406015
2.376  24.402435
2.375  24.334804
2.374  24.291101
2.373  24.312808
2.372  24.238259
2.371  24.162167
2.370  24.153119
2.369  24.112387
2.368  24.017279
2.367  23.990999
2.366  23.923442
2.365  23.855954
2.364  23.720882
2.363  23.582070
2.362  23.488017
2.361  23.345306
2.360  23.198698
2.359  23.102214
2.358  23.006703
2.357  22.868924
2.356  22.708502
2.355  22.533338
2.354  22.358020
2.353  22.219553
2.352  22.062527
2.351  21.862626
2.350  21.691620
2.349  21.513486
2.348  21.370034
2.347  21.215519
2.346  21.005130
2.345  20.815647
2.344  20.710060
2.343  20.519167
2.342  20.378054
2.341  20.317316
2.340  20.164321
2.339  20.011706
2.338  19.927037
2.337  19.819362
2.336  19.751895
2.335  19.622784
2.334  19.562530
2.333  19.539703
2.332  19.540313
2.331  19.408929
2.330  19.423911
2.329  19.357094
2.328  19.353961
2.327  19.338892
2.326  19.373660
2.325  19.333123
2.324  19.353939
2.323  19.403221
2.322  19.414244
2.321  19.474558
2.320  19.555993
2.319  19.559650
2.318  19.623869
2.317  19.663951
2.316  19.693317
2.315  19.774680
2.314  19.836744
2.313  19.873393
2.312  19.967374
2.311  20.062939
2.310  20.109300
2.309  20.164769
2.308  20.258019
2.307  20.280054
2.306  20.386729
2.305  20.351883
2.304  20.489998
2.303  20.546771
2.302  20.613151
2.301  20.727151
2.300  20.870440
2.299  20.859487
2.298  20.935988
2.297  20.973800
2.296  21.091841
2.295  21.104804
2.294  21.189353
2.293  21.203673
2.292  21.342699
2.291  21.397476
2.290  21.532554
2.289  21.521961
2.288  21.676633
2.287  21.669132
2.286  21.806924
2.285  21.809859
2.284  21.966742
2.283  22.009187
2.282  22.055663
2.281  22.100473
2.280  22.213019
2.279  22.237671
2.278  22.300227
2.277  22.328901
2.276  22.415886
2.275  22.484198
2.274  22.571948
2.273  22.612008
2.272  22.743172
2.271  22.751526
2.270  22.782582
2.269  22.850745
2.268  22.952416
2.267  22.875680
2.266  23.007010
2.265  23.005817
2.264  23.160006
2.263  23.177008
2.262  23.321820
2.261  23.340730
2.260  23.413757
2.259  23.368494
2.258  23.506694
2.257  23.588175
2.256  23.706509
2.255  23.664382
2.254  23.864719
2.253  23.775914
2.252  23.933873
2.251  23.946863
2.250  24.071932
2.249  24.110074
2.248  24.272560
2.247  24.196087
2.246  24.342210
2.245  24.414316
2.244  24.481360
2.243  24.494921
2.242  24.613359
2.241  24.644907
2.240  24.784581
2.239  24.754939
2.238  24.872430
2.237  24.922357
2.236  25.007231
2.235  24.967977
2.234  25.148144
2.233  25.063413
2.232  25.223811
2.231  25.175134
2.230  25.389602
2.229  25.245720
2.228  25.410622
2.227  25.365268
2.226  25.459830
2.225  25.404390
2.224  25.546242
2.223  25.429605
2.222  25.553655
2.221  25.530946
2.220  25.570016
2.219  25.598073
2.218  25.614463
2.217  25.593570
2.216  25.723517
2.215  25.655306
2.214  25.739120
2.213  25.671506
2.212  25.840518
2.211  25.647502
2.210  25.886180
2.209  25.731388
2.208  25.878319
2.207  25.836920
2.206  25.918334
2.205  25.948562
2.204  26.029371
2.203  26.007532
2.202  26.093072
2.201  26.051525
2.200  26.200549
2.199  26.107006
2.198  26.249296
2.197  26.180111
2.196  26.332636
2.195  26.262507
2.194  26.381572
2.193  26.382932
2.192  26.418729
2.191  26.517141
2.190  26.573562
2.189  26.522772
2.188  26.724406
2.187  26.631385
2.186  26.737899
2.185  26.774608
2.184  26.885456
2.183  26.833819
2.182  26.940157
2.181  26.894357
2.180  26.969674
2.179  26.996444
2.178  27.093506
2.177  27.103175
2.176  27.237338
2.175  27.204144
2.174  27.257035
2.173  27.249613
2.172  27.395354
2.171  27.381013
2.170  27.507482
2.169  27.391507
2.168  27.576359
2.167  27.449366
2.166  27.566810
2.165  27.540634
2.164  27.634925
2.163  27.613955
2.162  27.643037
2.161  27.606859
2.160  27.718039
2.159  27.631115
2.158  27.751799
2.157  27.709637
2.156  27.779991
2.155  27.680474
2.154  27.744064
2.153  27.752636
2.152  27.772115
2.151  27.801649
2.150  27.780228
2.149  27.790627
2.148  27.774253
2.147  27.790730
2.146  27.863240
2.145  27.808737
2.144  27.922717
2.143  27.796042
2.142  27.841611
2.141  27.833825
2.140  27.861899
2.139  27.812480
2.138  27.876297
2.137  27.826388
2.136  27.873132
2.135  27.844776
2.134  27.879458
2.133  27.861030
2.132  27.920655
2.131  27.837101
2.130  27.909207
2.129  27.862584
2.128  27.867699
2.127  27.804349
2.126  27.885784
2.125  27.795117
2.124  27.856271
2.123  27.806714
2.122  27.890273
2.121  27.812514
2.120  27.870630
2.119  27.790943
2.118  27.768067
2.117  27.735822
2.116  27.729055
2.115  27.727860
2.114  27.761629
2.113  27.777095
2.112  27.788315
2.111  27.710774
2.110  27.799471
2.109  27.775291
2.108  27.731077
2.107  27.719918
2.106  27.710647
2.105  27.626184
2.104  27.710065
2.103  27.667248
2.102  27.641816
2.101  27.640088
2.100  27.669258
2.099  27.652324
2.098  27.673734
2.097  27.677117
2.096  27.737439
2.095  27.684119
2.094  27.672100
2.093  27.711001
2.092  27.737672
2.091  27.726747
2.090  27.763177
2.089  27.752375
2.088  27.757930
2.087  27.731394
2.086  27.726939
2.085  27.771888
2.084  27.801589
2.083  27.729072
2.082  27.732726
2.081  27.763228
2.080  27.810820
2.079  27.783597
2.078  27.762547
2.077  27.765585
2.076  27.753339
2.075  27.805132
2.074  27.810137
2.073  27.792927
2.072  27.846712
2.071  27.800715
2.070  27.814389
2.069  27.798159
2.068  27.734736
2.067  27.765118
2.066  27.808347
2.065  27.815510
2.064  27.784034
2.063  27.775409
2.062  27.750162
2.061  27.791804
2.060  27.820020
2.059  27.803737
2.058  27.781187
2.057  27.766174
2.056  27.683557
2.055  27.708723
2.054  27.746967
2.053  27.721515
2.052  27.738308
2.051  27.751228
2.050  27.729674
2.049  27.704115
2.048  27.674561
2.047  27.693004
2.046  27.718274
2.045  27.728501
2.044  27.693539
2.043  27.661820
2.042  27.637781
2.041  27.629941
2.040  27.558269
2.039  27.648761
2.038  27.630420
2.037  27.581445
2.036  27.554841
2.035  27.603283
2.034  27.519421
2.033  27.556632
2.032  27.501329
2.031  27.563566
2.030  27.511979
2.029  27.492026
2.028  27.405656
2.027  27.422180
2.026  27.429266
2.025  27.427893
2.024  27.313398
2.023  27.290267
2.022  27.311065
2.021  27.339771
2.020  27.327916
2.019  27.310126
2.018  27.235645
2.017  27.244369
2.016  27.200524
2.015  27.170662
2.014  27.111299
2.013  27.103901
2.012  27.020660
2.011  27.074285
2.010  26.953068
2.009  27.004497
2.008  26.972642
2.007  26.952370
2.006  26.921676
2.005  26.849182
2.004  26.782761
2.003  26.789127
2.002  26.722969
2.001  26.720193
2.000  26.621419
1.999  26.660967
1.998  26.571555
1.997  26.582032
1.996  26.479063
1.995  26.531590
1.994  26.428709
1.993  26.506204
1.992  26.435281
1.991  26.481646
1.990  26.341559
1.989  26.371641
1.988  26.322240
1.987  26.336795
1.986  26.328637
1.985  26.394224
1.984  26.288401
1.983  26.305306
1.982  26.246710
1.981  26.274422
1.980  26.184393
1.979  26.318350
1.978  26.202423
1.977  26.302274
1.976  26.137392
1.975  26.200190
1.974  26.218846
1.973  26.159319
1.972  26.144855
1.971  26.220975
1.970  26.175784
1.969  26.251795
1.968  26.085410
1.967  26.133554
1.966  26.134452
1.965  26.179288
1.964  26.087881
1.963  26.193229
1.962  26.115986
1.961  26.166953
1.960  26.157168
1.959  26.169706
1.958  26.068889
1.957  26.126762
1.956  26.108581
1.955  26.145284
1.954  26.111203
1.953  26.048710
1.952  26.019896
1.951  26.113525
1.950  26.150375
1.949  26.073052
1.948  26.082667
1.947  26.104335
1.946  26.091155
1.945  26.057582
1.944  26.030217
1.943  26.137102
1.942  26.041523
1.941  26.164983
1.940  25.998545
1.939  26.114734
1.938  25.965594
1.937  26.146276
1.936  25.930544
1.935  26.133944
1.934  26.024993
1.933  26.036507
1.932  26.005600
1.931  26.113602
1.930  26.105910
1.929  26.090405
1.928  25.963332
1.927  26.132070
1.926  25.858660
1.925  26.119749
1.924  25.950371
1.923  26.120022
1.922  25.921863
1.921  25.978591
1.920  26.004285
1.919  25.980850
1.918  25.962506
1.917  26.094565
1.916  26.004150
1.915  26.013241
1.914  26.040311
1.913  26.113470
1.912  26.097626
1.911  26.142673
1.910  26.052253
1.909  26.197034
1.908  26.116884
1.907  26.270476
1.906  26.321611
1.905  26.480822
1.904  26.424335
1.903  26.516716
1.902  26.497749
1.901  26.715438
1.900  26.660104
1.899  26.872331
1.898  26.749506
1.897  26.966502
1.896  27.034309
1.895  27.199903
1.894  27.218425
1.893  27.403892
1.892  27.319784
1.891  27.432546
1.890  27.462758
1.889  27.616566
1.888  27.445929
1.887  27.692695
1.886  27.756169
1.885  27.775260
1.884  27.743645
1.883  27.861483
1.882  27.827870
1.881  27.904342
1.880  27.857817
1.879  27.964129
1.878  27.939630
1.877  28.058917
1.876  27.970102
1.875  28.077320
1.874  28.027795
1.873  28.036353
1.872  27.993518
1.871  28.036404
1.870  27.941695
1.869  27.991748
1.868  27.965564
1.867  27.980104
1.866  27.962830
1.865  28.025610
1.864  28.024257
1.863  28.109721
1.862  28.078364
1.861  28.085158
1.860  28.102956
1.859  28.133703
1.858  28.078442
1.857  28.187182
1.856  28.100162
1.855  28.196325
1.854  28.193722
1.853  28.301675
1.852  28.237265
1.851  28.241839
1.850  28.251433
1.849  28.322812
1.848  28.290513
1.847  28.381001
1.846  28.309058
1.845  28.398426
1.844  28.383475
1.843  28.421643
1.842  28.402037
1.841  28.452495
1.840  28.447822
1.839  28.432695
1.838  28.427813
1.837  28.437884
1.836  28.417496
1.835  28.468696
1.834  28.480222
1.833  28.536284
1.832  28.509693
1.831  28.546069
1.830  28.501427
1.829  28.578928
1.828  28.567000
1.827  28.567205
1.826  28.549266
1.825  28.561835
1.824  28.564643
1.823  28.635990
1.822  28.594764
1.821  28.587080
1.820  28.545851
1.819  28.623699
1.818  28.617715
1.817  28.642422
1.816  28.631214
1.815  28.633708
1.814  28.615417
1.813  28.617327
1.812  28.669382
1.811  28.686918
1.810  28.670277
1.809  28.675151
1.808  28.727562
1.807  28.743521
1.806  28.664101
1.805  28.705940
1.804  28.740610
1.803  28.769483
1.802  28.738228
1.801  28.771737
1.800  28.740684
1.799  28.727611
1.798  28.734074
1.797  28.739299
1.796  28.756554
1.795  28.740118
1.794  28.718806
1.793  28.722413
1.792  28.759062
1.791  28.765200
1.790  28.720422
1.789  28.770917
1.788  28.794457
1.787  28.800839
1.786  28.817031
1.785  28.791734
1.784  28.787308
1.783  28.790410
1.782  28.795384
1.781  28.773373
1.780  28.766633
1.779  28.824796
1.778  28.844784
1.777  28.825761
1.776  28.850861
1.775  28.791051
1.774  28.773154
1.773  28.793374
1.772  28.815002
1.771  28.825885
1.770  28.829910
1.769  28.800096
1.768  28.822036
1.767  28.783538
1.766  28.795704
1.765  28.818293
1.764  28.796496
1.763  28.760250
1.762  28.796696
1.761  28.778705
1.760  28.766201
1.759  28.767069
1.758  28.775589
1.757  28.732985
1.756  28.759906
1.755  28.740157
1.754  28.796126
1.753  28.741894
1.752  28.749175
1.751  28.770813
1.750  28.834260
1.749  28.778015
1.748  28.832671
1.747  28.809393
1.746  28.787108
1.745  28.768024
1.744  28.813063
1.743  28.777751
1.742  28.851274
1.741  28.823834
1.740  28.854302
1.739  28.869782
1.738  28.860769
1.737  28.751768
1.736  28.838192
1.735  28.831935
1.734  28.877628
1.733  28.787096
1.732  28.806506
1.731  28.804908
1.730  28.803002
1.729  28.790776
1.728  28.809034
1.727  28.792049
1.726  28.850187
1.725  28.820274
1.724  28.850200
1.723  28.803781
1.722  28.852405
1.721  28.834638
1.720  28.903799
1.719  28.809625
1.718  28.889493
1.717  28.884447
1.716  28.902522
1.715  28.853682
1.714  28.914592
1.713  28.836077
1.712  28.900646
1.711  28.909945
1.710  28.937517
1.709  28.835617
1.708  28.886325
1.707  28.840906
1.706  28.956273
1.705  28.826793
1.704  28.959441
1.703  28.878490
1.702  28.929022
1.701  28.845528
1.700  28.836345
1.699  28.840395
1.698  28.926515
1.697  28.817728
1.696  28.881766
1.695  28.822484
1.694  28.944885
1.693  28.818167
1.692  28.905591
1.691  28.829975
1.690  28.919166
1.689  28.903927
1.688  28.952180
1.687  28.891176
1.686  28.911084
1.685  28.837523
1.684  28.874615
1.683  28.918980
1.682  28.906171
1.681  28.903688
1.680  28.912322
1.679  28.916643
1.678  28.945703
1.677  28.871117
1.676  28.986544
1.675  28.819729
1.674  28.939221
1.673  28.865029
1.672  28.957621
1.671  28.821834
1.670  28.904329
1.669  29.032373
1.668  28.759557
1.667  28.910028
1.666  28.958362
1.665  28.845508
1.664  28.983487
1.663  28.857490
1.662  28.963360
1.661  28.825707
1.660  29.015470
1.659  28.865528
1.658  28.953160
1.657  28.856949
1.656  28.990875
1.655  28.915057
1.654  28.988964
1.653  28.838745
1.652  28.984523
1.651  28.847996
1.650  28.981232
1.649  28.828588
1.648  28.945846
1.647  28.877370
1.646  28.993380
1.645  28.898582
1.644  28.947745
1.643  28.874473
1.642  28.973858
1.641  28.749734
1.640  29.097174
1.639  28.852228
1.638  29.060325
1.637  28.863003
1.636  28.990576
1.635  28.825976
1.634  28.925040
1.633  28.903363
1.632  28.934033
1.631  28.852934
1.630  28.943432
1.629  28.852939
1.628  29.053779
1.627  28.920306
1.626  28.954250
1.625  28.919666
1.624  29.051149
1.623  28.916092
1.622  29.035221
1.621  28.935815
1.620  29.012361
1.619  28.925510
1.618  28.979092
1.617  28.918201
1.616  28.934553
1.615  28.909982
1.614  29.026555
1.613  28.898384
1.612  28.968208
1.611  28.967181
1.610  29.018235
1.609  28.965873
1.608  29.028738
1.607  28.920935
1.606  29.058474
1.605  28.963087
1.604  29.081175
1.603  28.916539
1.602  28.944246
1.601  28.903334
1.600  29.014901
1.599  28.949143
1.598  28.984756
1.597  28.907175
1.596  28.987456
1.595  28.950706
1.594  29.012491
1.593  28.942857
1.592  29.009547
1.591  28.968261
1.590  28.993761
1.589  28.949218
1.588  28.990535
1.587  28.985098
1.586  29.054811
1.585  28.941122
1.584  28.989208
1.583  28.929261
1.582  28.956943
1.581  28.940717
1.580  28.952262
1.579  28.969274
1.578  29.026579
1.577  28.928234
1.576  28.957560
1.575  28.903528
1.574  28.956236
1.573  28.946944
1.572  29.023643
1.571  28.997091
1.570  28.911256
1.569  28.938685
1.568  29.003772
1.567  28.968268
1.566  29.037933
1.565  28.893169
1.564  28.997188
1.563  28.987644
1.562  29.073336
1.561  28.965519
1.560  28.973785
1.559  28.918048
1.558  29.033569
1.557  29.023295
1.556  29.056200
1.555  28.960095
1.554  29.004927
1.553  28.927726
1.552  29.033140
1.551  28.995669
1.550  28.996134
1.549  28.996445
1.548  29.016880
1.547  28.969614
1.546  29.022756
1.545  28.970089
1.544  28.987323
1.543  28.987525
1.542  29.040666
1.541  29.049263
1.540  28.997439
1.539  28.976886
1.538  29.010987
1.537  28.971860
1.536  29.044316
1.535  28.999653
1.534  29.026267
1.533  28.962929
1.532  29.014885
1.531  29.016426
1.530  29.026130
1.529  29.001911
1.528  28.988969
1.527  28.973234
1.526  28.977105
1.525  28.946458
1.524  28.983756
1.523  29.020123
1.522  29.021136
1.521  28.963504
1.520  28.993675
1.519  28.973769
1.518  28.961490
1.517  28.949255
1.516  29.016706
1.515  29.002154
1.514  28.957856
1.513  28.958942
1.512  28.986029
1.511  29.025299
1.510  29.002224
1.509  28.967353
1.508  29.021685
1.507  28.983865
1.506  28.994896
1.505  28.964280
1.504  28.914630
1.503  28.981440
1.502  28.966273
1.501  28.953376
1.500  28.948768
1.499  28.905620
1.498  28.954423
1.497  28.966903
1.496  28.927587
1.495  28.937927
1.494  28.942430
1.493  28.938147
1.492  28.947431
1.491  28.972856
1.490  28.951742
1.489  28.928905
1.488  28.908305
1.487  28.967658
1.486  28.949481
1.485  28.935579
1.484  28.952451
1.483  28.925134
1.482  28.853819
1.481  28.872085
1.480  28.853174
1.479  28.811872
1.478  28.835467
1.477  28.883490
1.476  28.870395
1.475  28.910386
1.474  28.889094
1.473  28.902156
1.472  28.849796
1.471  28.852831
1.470  28.803372
1.469  28.817367
1.468  28.874164
1.467  28.882435
1.466  28.784026
1.465  28.831504
1.464  28.803292
1.463  28.842525
1.462  28.799619
1.461  28.853623
1.460  28.855834
1.459  28.817460
1.458  28.773818
1.457  28.819163
1.456  28.805400
1.455  28.851179
1.454  28.832224
1.453  28.818772
1.452  28.762288
1.451  28.805822
1.450  28.838274
1.449  28.896398
1.448  28.782119
1.447  28.822644
1.446  28.782004
1.445  28.814903
1.444  28.805052
1.443  28.916143
1.442  28.833974
1.441  28.847160
1.440  28.761845
1.439  28.782100
1.438  28.758019
1.437  28.809963
1.436  28.806005
1.435  28.809824
1.434  28.766040
1.433  28.776931
1.432  28.722939
1.431  28.763975
1.430  28.713400
1.429  28.700621
1.428  28.636412
1.427  28.691344
1.426  28.684750
1.425  28.735069
1.424  28.587997
1.423  28.625227
1.422  28.567597
1.421  28.695126
1.420  28.537077
1.419  28.544091
1.418  28.503988
1.417  28.535977
1.416  28.504356
1.415  28.469327
1.414  28.445142
1.413  28.469122
1.412  28.423522
1.411  28.543137
1.410  28.515910
1.409  28.534160
1.408  28.473550
1.407  28.599712
1.406  28.558481
1.405  28.606736
1.404  28.541124
1.403  28.746773
1.402  28.660380
1.401  28.778781
1.400  28.679653
1.399  28.828694
1.398  28.845351
1.397  29.050752
1.396  29.012667
1.395  29.023639
1.394  29.040038
1.393  29.103968
1.392  29.198664
1.391  29.284237
1.390  29.277596
1.389  29.407084
1.388  29.357092
1.387  29.450357
1.386  29.466085
1.385  29.557485
1.384  29.564638
1.383  29.588271
1.382  29.445771
1.381  29.553408
1.380  29.524651
1.379  29.655237
1.378  29.628626
1.377  29.734229
1.376  29.681316
1.375  29.736762
1.374  29.677936
1.373  29.861663
1.372  29.748320
1.371  29.761491
1.370  29.718026
1.369  29.795750
1.368  29.763647
1.367  29.780568
1.366  29.740426
1.365  29.792563
1.364  29.735372
1.363  29.927416
1.362  29.652711
1.361  29.795838
1.360  29.730100
1.359  29.914924
1.358  29.816720
1.357  29.905458
1.356  29.873666
1.355  29.763336
1.354  29.777283
1.353  29.888999
1.352  29.795796
1.351  29.919949
1.350  29.808025
1.349  29.876746
1.348  29.795024
1.347  29.935855
1.346  29.846569
1.345  29.840818
1.344  29.844346
1.343  29.946411
1.342  29.907891
1.341  30.014933
1.340  29.902921
1.339  30.117929
1.338  29.958636
1.337  30.057709
1.336  30.014173
1.335  30.013913
1.334  29.944459
1.333  30.037896
1.332  29.947294
1.331  30.052251
1.330  30.040772
1.329  30.047726
1.328  29.961831
1.327  30.083889
1.326  29.952111
1.325  30.032106
1.324  29.909943
1.323  30.050199
1.322  30.092198
1.321  30.148616
1.320  30.106672
1.319  30.036940
1.318  30.033304
1.317  30.131900
1.316  30.044752
1.315  30.031858
1.314  29.987807
1.313  30.106746
1.312  29.979636
1.311  30.143813
1.310  30.001603
1.309  30.005510
1.308  30.052108
1.307  30.127755
1.306  30.092103
1.305  30.099871
1.304  30.119416
1.303  30.114226
1.302  30.069147
1.301  30.169963
1.300  30.096508
1.299  30.132024
1.298  30.128525
1.297  30.195389
1.296  30.140760
1.295  30.217709
1.294  30.223857
1.293  30.201017
1.292  30.138838
1.291  30.195696
1.290  30.140975
1.289  30.271950
1.288  30.228423
1.287  30.233100
1.286  30.197189
1.285  30.254687
1.284  30.214039
1.283  30.250345
1.282  30.206738
1.281  30.304148
1.280  30.254563
1.279  30.339954
1.278  30.284776
1.277  30.276828
1.276  30.251837
1.275  30.301051
1.274  30.259548
1.273  30.316290
1.272  30.257205
1.271  30.316541
1.270  30.344118
1.269  30.361755
1.268  30.277502
1.267  30.338800
1.266  30.328244
1.265  30.357554
1.264  30.377759
1.263  30.373721
1.262  30.349989
1.261  30.413980
1.260  30.414061
1.259  30.421867
1.258  30.405826
1.257  30.438101
1.256  30.423748
1.255  30.448301
1.254  30.410763
1.253  30.451807
1.252  30.466054
1.251  30.447768
1.250  30.377847
1.249  30.438269
1.248  30.469660
1.247  30.490397
1.246  30.470789
1.245  30.526188
1.244  30.512315
1.243  30.497735
1.242  30.477161
1.241  30.551158
1.240  30.510296
1.239  30.530879
1.238  30.527017
1.237  30.519678
1.236  30.549952
1.235  30.555446
1.234  30.554591
1.233  30.548302
1.232  30.575770
1.231  30.578602
1.230  30.556265
1.229  30.576813
1.228  30.550223
1.227  30.612276
1.226  30.627159
1.225  30.631540
1.224  30.676212
1.223  30.649699
1.222  30.613953
1.221  30.651671
1.220  30.635291
1.219  30.644535
1.218  30.686110
1.217  30.684840
1.216  30.678419
1.215  30.672941
1.214  30.676141
1.213  30.681291
1.212  30.715680
1.211  30.744976
1.210  30.723633
1.209  30.729605
1.208  30.751613
1.207  30.750617
1.206  30.732182
1.205  30.789909
1.204  30.799898
1.203  30.705009
1.202  30.723408
1.201  30.774980
1.200  30.852442
1.199  30.820428
1.198  30.811333
1.197  30.816414
1.196  30.844817
1.195  30.821300
1.194  30.830588
1.193  30.822813
1.192  30.840488
1.191  30.795902
1.190  30.856393
1.189  30.931594
1.188  30.811560
1.187  30.838356
1.186  30.885116
1.185  30.840411
1.184  30.912281
1.183  30.884935
1.182  30.898714
1.181  30.933525
1.180  30.930408
1.179  30.919179
1.178  30.902783
1.177  30.911565
1.176  30.906466
1.175  30.940399
1.174  30.960103
1.173  30.954007
1.172  30.994502
1.171  30.943924
1.170  31.014632
1.169  31.025624
1.168  31.025323
1.167  31.008714
1.166  31.069182
1.165  31.023276
1.164  31.054363
1.163  31.026343
1.162  31.069014
1.161  31.005384
1.160  31.052966
1.159  30.990562
1.158  31.029517
1.157  31.034107
1.156  31.123216
1.155  31.087616
1.154  31.124049
1.153  31.128675
1.152  31.098176
1.151  31.107351
1.150  31.164096
1.149  31.067521
1.148  31.169634
1.147  31.196511
1.146  31.182079
1.145  31.148058
1.144  31.202097
1.143  31.179226
1.142  31.218361
1.141  31.217645
1.140  31.231773
1.139  31.227288
1.138  31.257112
1.137  31.157359
1.136  31.163182
1.135  31.171552
1.134  31.248836
1.133  31.203695
1.132  31.255119
1.131  31.238725
1.130  31.289095
1.129  31.252355
1.128  31.311090
1.127  31.270472
1.126  31.296440
1.125  31.243462
1.124  31.346850
1.123  31.292500
1.122  31.375743
1.121  31.280408
1.120  31.337205
1.119  31.361200
1.118  31.390937
1.117  31.336709
1.116  31.366598
1.115  31.345240
1.114  31.357027
1.113  31.352272
1.112  31.381025
1.111  31.342793
1.110  31.441855
1.109  31.413769
1.108  31.446643
1.107  31.376390
1.106  31.463060
1.105  31.338076
1.104  31.479856
1.103  31.367334
1.102  31.481202
1.101  31.416919
1.100  31.408746
1.099  31.390706
1.098  31.439602
1.097  31.380342
1.096  31.513708
1.095  31.415041
1.094  31.609823
1.093  31.364216
1.092  31.430504
1.091  31.499120
1.090  31.576207
1.089  31.466805
1.088  31.519007
1.087  31.472487
1.086  31.563085
1.085  31.478550
1.084  31.569105
1.083  31.508255
1.082  31.599654
1.081  31.507539
1.080  31.570388
1.079  31.464127
1.078  31.561217
1.077  31.510833
1.076  31.627829
1.075  31.489076
1.074  31.619691
1.073  31.521988
1.072  31.674412
1.071  31.670668
1.070  31.505566
1.069  31.635528
1.068  31.595826
1.067  31.627849
1.066  31.637640
1.065  31.584893
1.064  31.681141
1.063  31.634162
1.062  31.687925
1.061  31.589086
1.060  31.710684
1.059  31.605279
1.058  31.722912
1.057  31.579514
1.056  31.649128
1.055  31.497569
1.054  31.665467
1.053  31.624895
1.052  31.744348
1.051  31.594835
1.050  31.761596
1.049  31.601061
1.048  31.735369
1.047  31.688018
1.046  31.752285
1.045  31.665904
1.044  31.662545
1.043  31.664593
1.042  31.764178
1.041  31.710926
1.040  31.778111
1.039  31.643290
1.038  31.653574
1.037  31.644116
1.036  31.743479
1.035  31.723410
1.034  31.791999
1.033  31.680938
1.032  31.706281
1.031  31.681181
1.030  31.725056
1.029  31.665953
1.028  31.762211
1.027  31.688146
1.026  31.796640
1.025  31.645798
1.024  31.730812
1.023  31.653519
1.022  31.723553
1.021  31.688766
1.020  31.773509
1.019  31.663356
1.018  31.725752
1.017  31.670420
1.016  31.751258
1.015  31.661473
1.014  31.765764
1.013  31.668428
1.012  31.625205
1.011  31.615597
1.010  31.636380
1.009  31.644946
1.008  31.752565
1.007  31.723590
1.006  31.638562
1.005  31.607040
1.004  31.624592
1.003  31.634620
1.002  31.620579
1.001  31.638166
1.000  31.633895
0.999  31.548902
0.998  31.575394
0.997  31.536978
0.996  31.651733
0.995  31.548672
0.994  31.599962
0.993  31.601721
0.992  31.568636
0.991  31.515619
0.990  31.589341
0.989  31.559610
0.988  31.577337
0.987  31.436774
0.986  31.478723
0.985  31.458178
0.984  31.445841
0.983  31.432804
0.982  31.484984
0.981  31.447540
0.980  31.461459
0.979  31.349146
0.978  31.406817
0.977  31.375018
0.976  31.377749
0.975  31.342826
0.974  31.366202
0.973  31.330120
0.972  31.301787
0.971  31.307632
0.970  31.341174
0.969  31.272451
0.968  31.250491
0.967  31.208662
0.966  31.271446
0.965  31.208770
0.964  31.134723
0.963  31.126416
0.962  31.167314
0.961  31.083288
0.960  31.101459
0.959  31.096665
0.958  31.066310
0.957  31.023047
0.956  31.089385
0.955  31.030550
0.954  30.997550
0.953  30.970585
0.952  30.950418
0.951  30.952406
0.950  30.987536
0.949  30.977439
0.948  30.917078
0.947  30.870432
0.946  30.907307
0.945  30.811236
0.944  30.821383
0.943  30.830699
0.942  30.825384
0.941  30.786942
0.940  30.735908
0.939  30.710308
0.938  30.700169
0.937  30.665615
0.936  30.646535
0.935  30.660388
0.934  30.663285
0.933  30.587239
0.932  30.568606
0.931  30.610937
0.930  30.589743
0.929  30.587693
0.928  30.554734
0.927  30.463380
0.926  30.434947
0.925  30.443678
0.924  30.414203
0.923  30.425684
0.922  30.427586
0.921  30.370196
0.920  30.377754
0.919  30.368996
0.918  30.349142
0.917  30.363546
0.916  30.323491
0.915  30.272126
0.914  30.294263
0.913  30.290964
0.912  30.215900
0.911  30.253122
0.910  30.203840
0.909  30.155884
0.908  30.216142
0.907  30.210219
0.906  30.144095
0.905  30.113951
0.904  30.105872
0.903  30.141177
0.902  30.092958
0.901  30.078674
0.900  30.035196
0.899  30.077544
0.898  29.961128
0.897  30.008395
0.896  30.006915
0.895  29.988599
0.894  29.954596
0.893  29.979765
0.892  29.967099
0.891  29.996861
0.890  29.957695
0.889  29.915601
0.888  29.897382
0.887  29.882954
0.886  29.843504
0.885  29.875949
0.884  29.863662
0.883  29.872355
0.882  29.856717
0.881  29.865457
0.880  29.784781
0.879  29.814973
0.878  29.788127
0.877  29.850853
0.876  29.747852
0.875  29.818980
0.874  29.767621
0.873  29.786783
0.872  29.776027
0.871  29.792424
0.870  29.720362
0.869  29.806759
0.868  29.771417
0.867  29.828400
0.866  29.740300
0.865  29.801220
0.864  29.781601
0.863  29.853284
0.862  29.776128
0.861  29.888083
0.860  29.467770
0.859  29.224840
0.858  29.376139
0.857  29.288807
0.856  29.211742
0.855  29.371608
0.854  29.338561
0.853  29.257649
0.852  29.384906
0.851  29.425536
0.850  29.321352
0.849  29.374854
0.848  29.385056
0.847  29.297646
0.846  29.379558
0.845  29.425248
0.844  29.360998
0.843  29.407546
0.842  29.454235
0.841  29.383874
0.840  29.444046
0.839  29.472125
0.838  29.379556
0.837  29.436736
0.836  29.506193
0.835  29.445843
0.834  29.492443
0.833  29.522192
0.832  29.437157
0.831  29.470053
0.830  29.530741
0.829  29.481095
0.828  29.519775
0.827  29.562937
0.826  29.474834
0.825  29.523453
0.824  29.551357
0.823  29.515502
0.822  29.552971
0.821  29.604162
0.820  29.541586
0.819  29.548922
0.818  29.612896
0.817  29.554580
0.816  29.576914
0.815  29.657999
0.814  29.582681
0.813  29.620746
0.812  29.668630
0.811  29.601475
0.810  29.648603
0.809  29.698309
0.808  29.662859
0.807  29.628127
0.806  29.704286
0.805  29.686504
0.804  29.674016
0.803  29.707016
0.802  29.698860
0.801  29.675627
0.800  29.737815
0.799  29.722072
0.798  29.697116
0.797  29.767466
0.796  29.725272
0.795  29.708035
0.794  29.738840
0.793  29.761829
0.792  29.701271
0.791  29.775548
0.790  29.791272
0.789  29.730903
0.788  29.775162
0.787  29.812245
0.786  29.767019
0.785  29.773118
0.784  29.796458
0.783  29.763595
0.782  29.761880
0.781  29.803185
0.780  29.785421
0.779  29.779634
0.778  29.804812
0.777  29.791085
0.776  29.760715
0.775  29.763209
0.774  29.770273
0.773  29.731563
0.772  29.733260
0.771  29.769385
0.770  29.738409
0.769  29.743237
0.768  29.739077
0.767  29.703690
0.766  29.711038
0.765  29.725150
0.764  29.693879
0.763  29.680373
0.762  29.694213
0.761  29.697694
0.760  29.654066
0.759  29.649205
0.758  29.658260
0.757  29.611137
0.756  29.615805
0.755  29.613159
0.754  29.562692
0.753  29.573997
0.752  29.567888
0.751  29.525778
0.750  29.513072
0.749  29.520449
0.748  29.492707
0.747  29.459041
0.746  29.444168
0.745  29.439264
0.744  29.387443
0.743  29.385865
0.742  29.376162
0.741  29.321676
0.740  29.315329
0.739  29.300120
0.738  29.256160
0.737  29.232850
0.736  29.220065
0.735  29.188183
0.734  29.140118
0.733  29.114613
0.732  29.093426
0.731  29.061506
0.730  29.033823
0.729  29.018272
0.728  28.963797
0.727  28.944343
0.726  28.921753
0.725  28.865957
0.724  28.845091
0.723  28.814261
0.722  28.770834
0.721  28.743157
0.720  28.724170
0.719  28.671711
0.718  28.629047
0.717  28.587892
0.716  28.573103
0.715  28.525241
0.714  28.483786
0.713  28.450947
0.712  28.396839
0.711  28.361429
0.710  28.334345
0.709  28.295101
0.708  28.258722
0.707  28.213515
0.706  28.151587
0.705  28.125505
0.704  28.094572
0.703  28.042460
0.702  28.009893
0.701  27.979384
0.700  27.926357
0.699  27.901409
0.698  27.864416
0.697  27.810336
0.696  27.782579
0.695  27.741353
0.694  27.696685
0.693  27.661163
0.692  27.614428
0.691  27.567104
0.690  27.530799
0.689  27.497402
0.688  27.449525
0.687  27.423893
0.686  27.379345
0.685  27.340815
0.684  27.310543
0.683  27.266361
0.682  27.222070
0.681  27.188311
0.680  27.155228
0.679  27.107018
0.678  27.070799
0.677  27.039014
0.676  26.989821
0.675  26.949167
0.674  26.918734
0.673  26.879499
0.672  26.847296
0.671  26.808508
0.670  26.761363
0.669  26.728303
0.668  26.698913
0.667  26.662233
0.666  26.627064
0.665  26.592245
0.664  26.551187
0.663  26.522064
0.662  26.497955
0.661  26.455559
0.660  26.417712
0.659  26.383077
0.658  26.341530
0.657  26.307453
0.656  26.280878
0.655  26.248400
0.654  26.219964
0.653  26.187352
0.652  26.143835
0.651  26.107528
0.650  26.077798
0.649  26.044240
0.648  26.011890
0.647  25.982871
0.646  25.948056
0.645  25.916875
0.644  25.886188
0.643  25.850507
0.642  25.820952
0.641  25.794808
0.640  25.758691
0.639  25.721877
0.638  25.693541
0.637  25.659145
0.636  25.626235
0.635  25.592979
0.634  25.555293
0.633  25.524901
0.632  25.495675
0.631  25.460087
0.630  25.418846
0.629  25.384879
0.628  25.351974
0.627  25.316407
0.626  25.283419
0.625  25.245596
0.624  25.208530
0.623  25.173290
0.622  25.141123
0.621  25.098627
0.620  25.053514
0.619  25.015177
0.618  24.967865
0.617  24.916502
0.616  24.871411
0.615  24.827779
0.614  24.779272
0.613  24.731054
0.612  24.683053
0.611  24.632525
0.610  24.581064
0.609  24.521929
0.608  24.462212
0.607  24.402324
0.606  24.341014
0.605  24.276138
0.604  24.207775
0.603  24.136759
0.602  24.062205
0.601  23.987692
0.600  23.914064
0.599  23.836269
0.598  23.758106
0.597  23.675278
0.596  23.587286
0.595  23.497181
0.594  23.405937
0.593  23.304279
0.592  23.198776
0.591  23.091113
0.590  22.982400
0.589  22.868193
0.588  22.749402
0.587  22.629586
0.586  22.504469
0.585  22.381451
0.584  22.252617
0.583  22.109146
0.582  21.984014
0.581  21.845889
0.580  21.705032
0.579  21.560369
0.578  21.421181
0.577  21.275932
0.576  21.132367
0.575  20.988787
0.574  20.830650
0.573  20.686488
0.572  20.532893
0.571  20.380504
0.570  20.234189
0.569  20.088678
0.568  19.939224
0.567  19.795705
0.566  19.647781
0.565  19.504189
0.564  19.363576
0.563  19.227095
0.562  19.090349
0.561  18.936445
0.560  18.799273
0.559  18.674328
0.558  18.550654
0.557  18.429090
0.556  18.310194
0.555  18.197144
0.554  18.084113
0.553  17.974973
0.552  17.873514
0.551  17.773858
0.550  17.679426
0.549  17.588970
0.548  17.501355
0.547  17.449183
0.546  17.376506
0.545  17.301191
0.544  17.228107
0.543  17.157482
0.542  17.090632
0.541  17.026311
0.540  16.960457
0.539  16.909146
0.538  16.851953
0.537  16.798215
0.536  16.748078
0.535  16.707151
0.534  16.660293
0.533  16.614066
0.532  16.577865
0.531  16.538267
0.530  16.499744
0.529  16.465999
0.528  16.436264
0.527  16.393798
0.526  16.371068
0.525  16.343868
0.524  16.313893
0.523  16.289327
0.522  16.264035
0.521  16.234475
0.520  16.212951
0.519  16.191759
0.518  16.170943
0.517  16.147063
0.516  16.136181
0.515  16.105167
0.514  16.087076
0.513  16.067889
0.512  16.045188
0.511  16.024376
0.510  16.002825
0.509  15.992828
0.508  15.966083
0.507  15.948641
0.506  15.925523
0.505  15.900089
0.504  15.880581
0.503  15.864072
0.502  15.831669
0.501  15.809706
0.500  15.799348
0.499  15.764522
0.498  15.743408
0.497  15.725902
0.496  15.692834
0.495  15.664316
0.494  15.643941
0.493  15.611032
0.492  15.583014
0.491  15.569425
0.490  15.542736
0.489  15.511349
0.488  15.490087
0.487  15.459346
0.486  15.436331
0.485  15.403668
0.484  15.380239
0.483  15.349548
0.482  15.342559
0.481  15.332812
0.480  15.322281
0.479  15.321946
0.478  15.311878
0.477  15.287358
0.476  15.281189
0.475  15.257701
0.474  15.242925
0.473  15.222148
0.472  15.209791
0.471  15.191985
0.470  15.178137
0.469  15.157709
0.468  15.137008
0.467  15.121289
0.466  15.095150
0.465  15.077348
0.464  15.062165
0.463  15.041837
0.462  15.017519
0.461  15.002985
0.460  14.987543
0.459  14.955398
0.458  14.932565
0.457  14.911477
0.456  14.878013
0.455  14.858918
0.454  14.849891
0.453  14.804019
0.452  14.784748
0.451  14.764776
0.450  14.729092
0.449  14.702831
0.448  14.677746
0.447  14.644721
0.446  14.619106
0.445  14.592664
0.444  14.559182
0.443  14.538149
0.442  14.519712
0.441  14.491650
0.440  14.465656
0.439  14.441016
0.438  14.412698
0.437  14.390918
0.436  14.372168
0.435  14.349417
0.434  14.320391
0.433  14.299900
0.432  14.281491
0.431  14.259863
0.430  14.248340
0.429  14.222736
0.428  14.197485
0.427  14.188036
0.426  14.169177
0.425  14.145245
0.424  14.133788
0.423  14.121054
0.422  14.102088
0.421  14.085020
0.420  14.076856
0.419  14.061509
0.418  14.047867
0.417  14.038420
0.416  14.020440
0.415  14.004719
0.414  14.000125
0.413  13.988409
0.412  13.968917
0.411  13.962683
0.410  13.954983
0.409  13.941499
0.408  13.927439
0.407  13.918166
0.406  13.908045
0.405  13.899654
0.404  13.894410
0.403  13.883625
0.402  13.873308
0.401  13.865190
0.400  13.858971
