Name: Fayalite Fe_2SiO_4
Type: Mineral
Class: Silicates
Subclass: Nesosilicates
Particle Size: 45-125um
Sample No.: NS-1A
Owner: JPL
Wavelength range: IR
Origin: 
Collected by JPL
Description: 





Measurement: Hemispherical reflectance
First Column: X
Second Column: Y
X Units:  Wavelength (micrometers)
Y Units:  Reflectance (percent)
First X Value: 15.3853
Last X Value: 2.00032
Number of X Values: 2256
Additional information: ns01aa.txt
 
15.3853	4.79402
15.3397	4.65143
15.2945	4.59998
15.2495	4.59806
15.2048	4.53615
15.1603	4.68517
15.1161	4.7852
15.0722	4.71049
15.0285	4.67762
14.9851	4.60036
14.9419	4.7571
14.8989	4.98715
14.8563	4.92518
14.8138	4.76424
14.7716	4.76764
14.7296	4.99894
14.6879	5.16605
14.6464	5.12931
14.6052	4.94519
14.5641	4.92567
14.5233	5.21395
14.4828	5.34496
14.4424	5.21956
14.4023	5.22726
14.3624	5.2974
14.3227	5.43378
14.2833	5.51631
14.244	5.3927
14.205	5.22313
14.1662	5.26705
14.1276	5.49286
14.0892	5.41128
14.051	5.13663
14.0131	5.14246
13.9753	5.11114
13.9377	5.11124
13.9004	5.08434
13.8632	5.1168
13.8262	5.27726
13.7895	5.34667
13.7529	5.29844
13.7165	5.27103
13.6803	5.22273
13.6443	5.1824
13.6085	5.31313
13.5729	5.42634
13.5374	5.34578
13.5022	5.47805
13.4671	5.70027
13.4322	5.67081
13.3975	5.45143
13.363	5.50002
13.3286	5.6577
13.2944	5.80701
13.2604	5.7849
13.2266	5.71448
13.193	5.83613
13.1595	5.78915
13.1262	5.74513
13.093	5.61464
13.06	5.63807
13.0272	5.81101
12.9946	5.9165
12.9621	6.00741
12.9298	6.10735
12.8976	6.04042
12.8656	5.94656
12.8337	5.8411
12.8021	5.8922
12.7705	5.89082
12.7391	5.86689
12.7079	6.07601
12.6769	6.16367
12.6459	6.15808
12.6152	6.15077
12.5845	6.12671
12.5541	6.11239
12.5238	6.22681
12.4936	6.50452
12.4635	6.718
12.4337	6.60717
12.4039	6.57623
12.3743	6.74059
12.3448	6.76876
12.3155	6.75715
12.2863	6.90611
12.2573	7.13677
12.2284	7.30407
12.1996	7.37473
12.171	7.64505
12.1425	7.85367
12.1141	7.99162
12.0859	8.02715
12.0578	7.80635
12.0298	7.32835
12.0019	6.82034
11.9742	6.81817
11.9466	7.12549
11.9192	7.27578
11.8918	7.31013
11.8646	7.55097
11.8375	7.92898
11.8106	8.29579
11.7837	8.51665
11.757	8.64196
11.7304	8.92531
11.7039	9.31958
11.6776	9.77503
11.6513	10.2935
11.6252	10.7299
11.5992	11.0866
11.5733	11.2171
11.5475	11.3602
11.5219	11.6612
11.4963	11.8428
11.4709	11.8441
11.4455	11.8572
11.4203	12.0116
11.3952	12.1344
11.3702	12.2159
11.3454	12.4139
11.3206	12.38
11.2959	12.3525
11.2714	12.3323
11.2469	12.3412
11.2226	12.3999
11.1983	12.4216
11.1742	12.3666
11.1502	12.3093
11.1263	12.2526
11.1024	12.2547
11.0787	12.1576
11.0551	12.1163
11.0316	12.1305
11.0081	12.0839
10.9848	11.9672
10.9616	11.6705
10.9385	11.2788
10.9154	10.9667
10.8925	10.6911
10.8697	10.4221
10.8469	10.1036
10.8243	9.67755
10.8017	9.2812
10.7793	9.44184
10.7569	9.87905
10.7346	10.3412
10.7125	10.6772
10.6904	11.1554
10.6684	11.5987
10.6465	12.0332
10.6247	12.7396
10.6029	13.2338
10.5813	13.4123
10.5597	13.5343
10.5383	13.6239
10.5169	13.5281
10.4956	13.249
10.4744	12.7544
10.4533	12.2393
10.4323	11.6733
10.4113	11.2356
10.3904	10.9686
10.3697	10.8065
10.349	10.6389
10.3284	10.5359
10.3078	10.4572
10.2874	10.196
10.267	10.0339
10.2467	10.0305
10.2265	10.023
10.2064	10.0196
10.1863	10.1369
10.1663	10.3093
10.1464	10.3809
10.1266	10.493
10.1069	10.667
10.0872	10.8412
10.0676	10.9559
10.0481	11.2733
10.0287	11.4668
10.0093	11.616
9.99005	11.833
9.97084	11.8573
9.95169	11.9486
9.93263	12.1467
9.91364	12.1732
9.89472	12.0619
9.87587	11.988
9.8571	12.0554
9.83839	12.0669
9.81976	11.9132
9.80119	11.706
9.78271	11.5549
9.76428	11.3442
9.74592	11.0784
9.72764	10.9048
9.70943	10.8341
9.69128	10.6934
9.6732	10.6392
9.65518	10.5501
9.63724	10.4265
9.61935	10.3063
9.60155	10.2047
9.5838	9.98475
9.56611	9.82003
9.5485	9.80385
9.53094	9.568
9.51345	9.23832
9.49604	9.0915
9.47867	8.9868
9.46137	8.7863
9.44414	8.52659
9.42697	8.30129
9.40986	8.07389
9.39281	7.8376
9.37583	7.75164
9.35891	7.63135
9.34204	7.32929
9.32524	7.22591
9.3085	7.25606
9.29182	7.16989
9.27519	7.22921
9.25863	7.57615
9.24213	7.94298
9.22568	8.05291
9.2093	8.06726
9.19297	8.3333
9.17669	8.47378
9.16048	8.4142
9.14433	8.40157
9.12823	8.22241
9.11218	7.8804
9.0962	7.61116
9.08027	7.35088
9.06439	7.00481
9.04858	6.75475
9.03281	6.46535
9.0171	6.11932
9.00145	5.83284
8.98585	5.61196
8.9703	5.50281
8.9548	5.37068
8.93937	5.29275
8.92398	5.36247
8.90865	5.42263
8.89337	5.55187
8.87814	5.68017
8.86296	5.95893
8.84784	6.14326
8.83277	6.26908
8.81774	6.41616
8.80277	6.35873
8.78786	6.32335
8.77298	6.45613
8.75816	6.55965
8.7434	6.52034
8.72868	6.59552
8.714	6.69317
8.69938	6.5371
8.68481	6.30768
8.67029	6.08581
8.65581	5.87767
8.64139	5.51638
8.62701	5.40495
8.61268	5.33933
8.5984	5.12448
8.58416	5.06232
8.56997	4.99875
8.55583	4.94861
8.54174	4.91048
8.52769	4.80201
8.51368	4.67179
8.49973	4.67214
8.48582	4.69587
8.47195	4.67106
8.45813	4.64514
8.44436	4.67284
8.43062	4.72283
8.41693	4.7649
8.4033	4.86098
8.3897	4.73958
8.37614	4.64893
8.36264	4.78713
8.34917	4.89382
8.33574	4.86281
8.32236	4.79051
8.30903	4.81525
8.29573	4.86993
8.28248	4.91137
8.26927	4.90853
8.2561	4.96153
8.24298	5.02724
8.2299	5.15098
8.21685	5.11372
8.20385	4.97278
8.19089	4.9509
8.17797	5.03816
8.16509	5.04588
8.15225	5.0079
8.13946	5.0754
8.1267	5.14868
8.11398	5.04499
8.10131	5.1059
8.08867	5.12837
8.07606	5.09601
8.0635	5.18153
8.05099	5.19712
8.0385	5.23661
8.02606	5.27011
8.01366	5.26871
8.00129	5.3185
7.98896	5.21827
7.97667	5.16753
7.96442	5.32102
7.9522	5.31596
7.94002	5.21086
7.92788	5.27031
7.91578	5.42156
7.90371	5.45723
7.89168	5.45538
7.87969	5.33819
7.86773	5.32897
7.85581	5.48723
7.84392	5.44826
7.83207	5.34453
7.82026	5.3136
7.80849	5.35516
7.79674	5.41884
7.78503	5.51952
7.77337	5.57269
7.76173	5.55816
7.75012	5.56383
7.73856	5.5924
7.72703	5.61751
7.71553	5.58604
7.70406	5.51455
7.69263	5.59294
7.68123	5.66025
7.66987	5.67744
7.65855	5.66334
7.64725	5.70899
7.63598	5.74388
7.62475	5.73133
7.61356	5.79443
7.60239	5.8623
7.59126	5.93507
7.58017	5.95279
7.5691	5.98259
7.55806	6.01351
7.54707	6.04525
7.5361	6.07916
7.52516	6.10267
7.51425	6.06878
7.50338	6.03145
7.49253	6.03621
7.48172	6.0521
7.47094	6.04846
7.46019	6.05797
7.44947	6.08274
7.43879	6.20827
7.42813	6.30935
7.4175	6.3138
7.4069	6.20877
7.39634	6.15167
7.3858	6.20729
7.37529	6.27389
7.36482	6.33541
7.35437	6.30363
7.34396	6.26777
7.33357	6.32439
7.32321	6.4505
7.31288	6.46553
7.30258	6.39782
7.29231	6.33946
7.28207	6.30923
7.27185	6.43011
7.26167	6.44274
7.25152	6.44602
7.24139	6.4819
7.23129	6.49504
7.22122	6.51952
7.21117	6.54974
7.20116	6.58867
7.19117	6.604
7.18121	6.62015
7.17128	6.64289
7.16137	6.69064
7.1515	6.81406
7.14164	6.85419
7.13182	6.80429
7.12203	6.77175
7.11225	6.77189
7.10251	6.86234
7.0928	6.9142
7.08311	6.85749
7.07344	6.8986
7.06381	6.95894
7.0542	6.98374
7.04461	6.96825
7.03506	6.93018
7.02552	6.95414
7.01601	7.0298
7.00653	6.99042
6.99708	6.92784
6.98765	7.00146
6.97824	7.12712
6.96886	7.18831
6.95951	7.15863
6.95018	7.07376
6.94087	7.05983
6.9316	7.07068
6.92234	7.15432
6.91311	7.2391
6.90391	7.26951
6.89473	7.34777
6.88557	7.39429
6.87644	7.43204
6.86733	7.53129
6.85824	7.54347
6.84918	7.40421
6.84015	7.31958
6.83114	7.32869
6.82215	7.36986
6.81319	7.37775
6.80424	7.44397
6.79532	7.51922
6.78643	7.47947
6.77756	7.35301
6.76871	7.31652
6.75989	7.3226
6.75109	7.38878
6.74231	7.41848
6.73355	7.46891
6.72482	7.53789
6.71611	7.56247
6.70742	7.5347
6.69875	7.41576
6.69011	7.45375
6.68149	7.57146
6.67289	7.57963
6.66431	7.50471
6.65576	7.44364
6.64722	7.50669
6.63871	7.64335
6.63022	7.5902
6.62175	7.50729
6.61331	7.49126
6.60488	7.49488
6.59648	7.57564
6.5881	7.60189
6.57974	7.64227
6.5714	7.73652
6.56308	7.61063
6.55478	7.51109
6.54651	7.46434
6.53825	7.44916
6.53001	7.52402
6.5218	7.61801
6.51361	7.56924
6.50544	7.54195
6.49729	7.66046
6.48915	7.62573
6.48104	7.46795
6.47295	7.44208
6.46488	7.42708
6.45683	7.33705
6.4488	7.3782
6.44079	7.5153
6.4328	7.53468
6.42482	7.50134
6.41687	7.62183
6.40894	7.55349
6.40103	7.42792
6.39314	7.3259
6.38526	7.27357
6.37741	7.3395
6.36957	7.25871
6.36176	7.16706
6.35396	7.14216
6.34618	7.1123
6.33843	7.03381
6.33069	6.94596
6.32297	6.93219
6.31527	6.94045
6.30758	6.99073
6.29992	6.96745
6.29227	6.88049
6.28465	6.86044
6.27704	6.86331
6.26945	6.82338
6.26188	6.75601
6.25432	6.70295
6.24679	6.64614
6.23927	6.60987
6.23177	6.57424
6.22429	6.52572
6.21683	6.50116
6.20938	6.52529
6.20195	6.53335
6.19454	6.5155
6.18715	6.5637
6.17978	6.4661
6.17242	6.2862
6.16508	6.18721
6.15776	6.14328
6.15045	6.1243
6.14317	6.12649
6.1359	5.99282
6.12864	5.89183
6.12141	5.92316
6.11419	6.0637
6.10699	6.09953
6.0998	6.01336
6.09263	5.99278
6.08549	5.97967
6.07835	6.03981
6.07123	6.0742
6.06413	6.04921
6.05705	6.14954
6.04998	6.35603
6.04293	6.15236
6.0359	6.00078
6.02888	6.12901
6.02187	6.27749
6.01489	6.2754
6.00792	6.1849
6.00096	6.16956
5.99403	6.19676
5.98711	6.24125
5.9802	6.21964
5.97331	6.3165
5.96644	6.354
5.95958	6.29855
5.95274	6.35017
5.94591	6.52175
5.9391	6.74305
5.9323	6.64504
5.92552	6.4856
5.91876	6.46927
5.91201	6.45177
5.90528	6.4689
5.89856	6.66271
5.89186	6.68151
5.88517	6.65193
5.8785	6.70645
5.87184	6.58823
5.8652	6.52818
5.85857	6.53112
5.85196	6.60421
5.84536	6.55641
5.83878	6.51534
5.83221	6.58111
5.82566	6.68752
5.81912	6.68638
5.81259	6.55331
5.80608	6.49905
5.79959	6.48877
5.79311	6.47148
5.78665	6.47274
5.78019	6.38497
5.77376	6.42324
5.76734	6.55631
5.76093	6.41978
5.75453	6.30335
5.74815	6.35913
5.74179	6.37637
5.73543	6.36508
5.7291	6.38218
5.72277	6.40701
5.71646	6.44301
5.71017	6.44282
5.70389	6.35545
5.69762	6.27711
5.69136	6.27461
5.68513	6.26679
5.6789	6.36532
5.67268	6.43014
5.66648	6.31773
5.6603	6.30395
5.65413	6.29063
5.64797	6.31252
5.64182	6.39774
5.63569	6.42096
5.62957	6.38229
5.62347	6.37116
5.61737	6.48179
5.61129	6.55186
5.60522	6.57391
5.59917	6.54081
5.59313	6.44251
5.5871	6.35963
5.58109	6.35437
5.57509	6.51172
5.5691	6.58152
5.56312	6.52976
5.55716	6.50246
5.55121	6.54862
5.54528	6.58088
5.53935	6.59969
5.53344	6.65557
5.52754	6.70074
5.52166	6.67368
5.51578	6.66155
5.50992	6.6821
5.50407	6.71564
5.49823	6.66191
5.49241	6.67549
5.4866	6.74741
5.4808	6.76407
5.47501	6.76587
5.46923	6.86649
5.46347	6.91823
5.45772	6.80523
5.45198	6.71425
5.44625	6.6876
5.44054	6.73926
5.43484	6.83431
5.42914	6.8599
5.42347	6.8804
5.4178	6.84811
5.41214	6.837
5.4065	6.89829
5.40087	6.8771
5.39525	6.83002
5.38964	6.81139
5.38404	6.8901
5.37846	6.93288
5.37288	6.96683
5.36732	7.01457
5.36177	7.01189
5.35623	7.10537
5.35071	7.12167
5.34519	7.04174
5.33968	7.04624
5.33419	7.10888
5.32871	7.18655
5.32324	7.2054
5.31778	7.08244
5.31233	7.06967
5.30689	7.09772
5.30147	7.19522
5.29605	7.30443
5.29065	7.33333
5.28525	7.28172
5.27987	7.29546
5.2745	7.29092
5.26914	7.25196
5.26379	7.33686
5.25845	7.47715
5.25312	7.45737
5.24781	7.39342
5.2425	7.38745
5.23721	7.44757
5.23192	7.47294
5.22665	7.4806
5.22138	7.56018
5.21613	7.64376
5.21089	7.6078
5.20566	7.59423
5.20044	7.6673
5.19522	7.65502
5.19002	7.66316
5.18483	7.76896
5.17965	7.8392
5.17448	7.8755
5.16933	7.8476
5.16418	7.8942
5.15904	7.94523
5.15391	7.9555
5.14879	7.98629
5.14368	8.00174
5.13859	8.01523
5.1335	8.01335
5.12842	8.03626
5.12335	8.07641
5.1183	8.07652
5.11325	8.08016
5.10821	8.16653
5.10318	8.21779
5.09817	8.15657
5.09316	8.13415
5.08816	8.07611
5.08317	8.1132
5.07819	8.22317
5.07322	8.26385
5.06826	8.27627
5.06331	8.25386
5.05837	8.23638
5.05344	8.26729
5.04852	8.35779
5.04361	8.31649
5.03871	8.25726
5.03382	8.33492
5.02894	8.35253
5.02406	8.28265
5.0192	8.31881
5.01435	8.38963
5.0095	8.47858
5.00467	8.45253
4.99984	8.40463
4.99502	8.4446
4.99021	8.42075
4.98542	8.4303
4.98063	8.54659
4.97585	8.53446
4.97108	8.52655
4.96632	8.54167
4.96156	8.57861
4.95682	8.6288
4.95209	8.67564
4.94736	8.62998
4.94264	8.59962
4.93794	8.63311
4.93324	8.67859
4.92855	8.64926
4.92387	8.64548
4.9192	8.69138
4.91453	8.76075
4.90988	8.75429
4.90524	8.72611
4.9006	8.78768
4.89597	8.85865
4.89135	8.85073
4.88674	8.8589
4.88214	8.86852
4.87755	8.87817
4.87296	8.90068
4.86839	8.89804
4.86382	8.90005
4.85926	8.89082
4.85471	8.88729
4.85017	8.95101
4.84564	9.05505
4.84111	9.14198
4.8366	9.12692
4.83209	9.04042
4.82759	9.01211
4.8231	9.09931
4.81862	9.1436
4.81415	9.18382
4.80968	9.18957
4.80522	9.19038
4.80077	9.20089
4.79633	9.13911
4.7919	9.17257
4.78747	9.23873
4.78306	9.21966
4.77865	9.1859
4.77425	9.23428
4.76986	9.21618
4.76547	9.21943
4.7611	9.21566
4.75673	9.2835
4.75237	9.3103
4.74802	9.29915
4.74367	9.30304
4.73934	9.31143
4.73501	9.3453
4.73069	9.35437
4.72638	9.35496
4.72207	9.38153
4.71777	9.37349
4.71348	9.39089
4.7092	9.51025
4.70493	9.5109
4.70066	9.48694
4.69641	9.4774
4.69216	9.46292
4.68791	9.48923
4.68368	9.45899
4.67945	9.47624
4.67523	9.52598
4.67102	9.55698
4.66682	9.64287
4.66262	9.6431
4.65843	9.52846
4.65425	9.4875
4.65007	9.6223
4.64591	9.63768
4.64175	9.61826
4.6376	9.613
4.63345	9.5558
4.62932	9.55927
4.62519	9.70843
4.62106	9.8144
4.61695	9.8144
4.61284	9.76234
4.60874	9.74066
4.60465	9.7644
4.60056	9.79698
4.59648	9.81656
4.59241	9.8017
4.58835	9.83437
4.58429	9.85459
4.58024	9.84242
4.5762	9.83216
4.57216	9.8438
4.56814	9.90689
4.56411	9.93127
4.5601	9.89114
4.55609	9.90391
4.55209	9.93781
4.5481	9.95008
4.54411	9.91502
4.54013	9.85277
4.53616	9.83429
4.5322	9.88376
4.52824	9.97553
4.52429	9.99615
4.52034	10.0358
4.51641	10.0911
4.51247	10.0415
4.50855	9.97774
4.50463	10.024
4.50072	10.0266
4.49682	10.0242
4.49292	10.0722
4.48903	10.0753
4.48515	10.0451
4.48127	10.0269
4.4774	10.0798
4.47354	10.1877
4.46968	10.1322
4.46584	10.0849
4.46199	10.0545
4.45815	10.0926
4.45432	10.0862
4.4505	10.0338
4.44668	10.0754
4.44287	10.0818
4.43907	10.0662
4.43527	10.0965
4.43148	10.1626
4.4277	10.2139
4.42392	10.1475
4.42015	10.09
4.41638	10.1542
4.41262	10.3066
4.40887	10.3806
4.40513	10.3344
4.40139	10.237
4.39765	10.1368
4.39393	10.141
4.39021	10.2378
4.38649	10.2212
4.38278	10.2527
4.37908	10.2786
4.37539	10.2952
4.3717	10.3109
4.36801	10.3434
4.36434	10.3306
4.36067	10.2773
4.357	10.3205
4.35335	10.3836
4.34969	10.4082
4.34605	10.4475
4.34241	10.4696
4.33877	10.4321
4.33514	10.4039
4.33152	10.3903
4.32791	10.3437
4.3243	10.3239
4.32069	10.377
4.3171	10.459
4.31351	10.4859
4.30992	10.4255
4.30634	10.3795
4.30277	10.3879
4.2992	10.4577
4.29564	10.4968
4.29208	10.5181
4.28853	10.5127
4.28499	10.5724
4.28145	10.6378
4.27792	10.6782
4.27439	10.6815
4.27087	10.5062
4.26735	10.3838
4.26384	10.4658
4.26034	10.5961
4.25684	10.6803
4.25335	10.6783
4.24986	10.6381
4.24638	10.6553
4.24291	10.7009
4.23944	10.6519
4.23598	10.6119
4.23252	10.6537
4.22906	10.6603
4.22562	10.5685
4.22218	10.6394
4.21874	10.682
4.21531	10.7006
4.21189	10.6414
4.20847	10.5742
4.20506	10.6174
4.20165	10.6757
4.19825	10.7103
4.19485	10.7361
4.19146	10.7439
4.18807	10.7158
4.18469	10.7134
4.18132	10.7445
4.17795	10.6757
4.17458	10.7359
4.17123	10.794
4.16787	10.7869
4.16453	10.7054
4.16118	10.7051
4.15785	10.8274
4.15451	10.8398
4.15119	10.7657
4.14787	10.8654
4.14455	10.8543
4.14124	10.801
4.13794	10.827
4.13464	10.7891
4.13134	10.8102
4.12805	10.8522
4.12477	10.8365
4.12149	10.8031
4.11822	10.7866
4.11495	10.876
4.11168	10.8856
4.10843	10.8849
4.10517	10.8902
4.10192	10.8754
4.09868	10.8496
4.09545	10.9193
4.09221	10.9753
4.08899	10.8822
4.08576	10.8843
4.08255	10.8826
4.07933	10.8516
4.07613	10.8925
4.07292	10.9245
4.06973	10.9122
4.06654	10.9344
4.06335	10.9663
4.06017	10.9731
4.05699	10.8918
4.05382	10.9082
4.05065	11.0023
4.04749	11.0243
4.04433	11.0362
4.04118	11.0203
4.03803	11.0378
4.03489	11.0515
4.03175	11.0341
4.02862	11.1246
4.02549	11.2284
4.02237	11.2117
4.01925	11.0979
4.01614	11.0508
4.01303	11.0667
4.00993	11.1383
4.00683	11.1852
4.00373	11.1307
4.00064	11.1174
3.99756	11.1382
3.99448	11.13
3.9914	11.1534
3.98833	11.1251
3.98527	11.1635
3.98221	11.1715
3.97915	11.1341
3.9761	11.1893
3.97305	11.3028
3.97001	11.2714
3.96697	11.1854
3.96394	11.138
3.96091	11.1124
3.95789	11.1546
3.95487	11.1333
3.95186	11.2446
3.94885	11.3245
3.94584	11.2157
3.94284	11.2748
3.93984	11.3694
3.93685	11.3387
3.93386	11.3038
3.93088	11.1683
3.9279	11.1502
3.92493	11.285
3.92196	11.3086
3.919	11.2859
3.91604	11.3119
3.91308	11.3432
3.91013	11.3112
3.90718	11.2724
3.90424	11.2096
3.9013	11.2635
3.89837	11.3725
3.89544	11.3291
3.89252	11.3496
3.8896	11.416
3.88668	11.3729
3.88377	11.3122
3.88086	11.333
3.87796	11.355
3.87506	11.4665
3.87217	11.4958
3.86928	11.363
3.86639	11.3269
3.86351	11.3826
3.86064	11.3704
3.85776	11.3263
3.8549	11.3331
3.85203	11.4039
3.84917	11.4254
3.84631	11.3675
3.84346	11.3331
3.84062	11.3706
3.83777	11.3978
3.83494	11.421
3.8321	11.4593
3.82927	11.3552
3.82644	11.2684
3.82362	11.2861
3.82081	11.3285
3.81799	11.4266
3.81518	11.5155
3.81238	11.4704
3.80958	11.3854
3.80678	11.3899
3.80399	11.407
3.8012	11.4002
3.79841	11.4144
3.79563	11.4022
3.79286	11.443
3.79008	11.4283
3.78731	11.3206
3.78455	11.4028
3.78179	11.4655
3.77903	11.4805
3.77628	11.5165
3.77353	11.5387
3.77079	11.5057
3.76805	11.3761
3.76531	11.3738
3.76258	11.4056
3.75985	11.4235
3.75713	11.3201
3.7544	11.228
3.75169	11.3075
3.74898	11.3675
3.74627	11.4321
3.74356	11.4786
3.74086	11.472
3.73816	11.5115
3.73547	11.4874
3.73278	11.4619
3.7301	11.5242
3.72741	11.5587
3.72474	11.4455
3.72206	11.316
3.71939	11.3325
3.71673	11.4372
3.71406	11.4915
3.71141	11.39
3.70875	11.3021
3.7061	11.3312
3.70345	11.3665
3.70081	11.3527
3.69817	11.3464
3.69553	11.404
3.6929	11.4218
3.69027	11.4514
3.68765	11.4912
3.68503	11.4745
3.68241	11.4359
3.6798	11.4368
3.67719	11.4034
3.67458	11.3521
3.67198	11.2604
3.66938	11.2447
3.66678	11.2853
3.66419	11.3679
3.66161	11.346
3.65902	11.34
3.65644	11.2997
3.65387	11.2882
3.65129	11.3415
3.64872	11.4223
3.64616	11.3998
3.64359	11.3315
3.64103	11.3489
3.63848	11.3796
3.63593	11.3944
3.63338	11.2726
3.63084	11.1961
3.6283	11.1658
3.62576	11.1537
3.62322	11.2869
3.62069	11.3174
3.61817	11.2897
3.61564	11.282
3.61312	11.3116
3.61061	11.3023
3.6081	11.3147
3.60559	11.3384
3.60308	11.2769
3.60058	11.223
3.59808	11.2491
3.59558	11.3158
3.59309	11.3067
3.59061	11.1941
3.58812	11.1554
3.58564	11.1774
3.58316	11.1664
3.58069	11.1882
3.57822	11.1592
3.57575	11.186
3.57328	11.2293
3.57082	11.2001
3.56836	11.1431
3.56591	11.1818
3.56346	11.2422
3.56101	11.1711
3.55857	11.1745
3.55613	11.2074
3.55369	11.1845
3.55126	11.1312
3.54883	11.1498
3.5464	11.1977
3.54397	11.1562
3.54155	11.089
3.53914	11.071
3.53672	11.0799
3.53431	11.0711
3.5319	10.9868
3.5295	10.9897
3.5271	10.9794
3.5247	11.0541
3.52231	11.1467
3.51991	10.9978
3.51753	10.9452
3.51514	10.9613
3.51276	11.0387
3.51038	10.9964
3.50801	10.956
3.50563	11.1008
3.50327	11.2144
3.5009	11.0284
3.49854	10.9025
3.49618	10.9147
3.49382	10.9422
3.49147	10.9446
3.48912	11.0207
3.48677	11.0602
3.48443	11.0653
3.48209	10.99
3.47975	10.8934
3.47742	10.8513
3.47509	10.9265
3.47276	10.9735
3.47044	10.8774
3.46812	10.8166
3.4658	10.9066
3.46348	10.8805
3.46117	10.8151
3.45886	10.8695
3.45656	10.8326
3.45425	10.7394
3.45195	10.7935
3.44966	10.8281
3.44736	10.8618
3.44507	10.9445
3.44279	10.9681
3.4405	10.8749
3.43822	10.7769
3.43594	10.7281
3.43367	10.7561
3.43139	10.7853
3.42912	10.7898
3.42686	10.798
3.42459	10.7695
3.42233	10.7283
3.42007	10.6829
3.41782	10.5801
3.41557	10.6015
3.41332	10.6881
3.41108	10.6517
3.40883	10.6792
3.40659	10.735
3.40435	10.7211
3.40212	10.644
3.39989	10.5668
3.39766	10.6423
3.39544	10.675
3.39322	10.5784
3.391	10.5222
3.38878	10.5732
3.38657	10.5652
3.38436	10.5252
3.38215	10.4514
3.37994	10.4254
3.37774	10.4323
3.37554	10.4663
3.37335	10.5063
3.37115	10.5397
3.36896	10.5229
3.36678	10.4793
3.36459	10.4592
3.36241	10.4349
3.36023	10.4658
3.35805	10.4328
3.35588	10.3291
3.35371	10.3281
3.35154	10.2915
3.34938	10.2167
3.34721	10.3125
3.34505	10.398
3.3429	10.4171
3.34074	10.375
3.33859	10.2713
3.33644	10.3042
3.3343	10.32
3.33215	10.3626
3.33001	10.3913
3.32788	10.3367
3.32574	10.2668
3.32361	10.28
3.32148	10.2228
3.31936	10.0655
3.31723	10.0878
3.31511	10.1767
3.31299	10.1688
3.31088	10.2156
3.30876	10.3301
3.30665	10.2489
3.30455	10.111
3.30244	10.0067
3.30034	10.0036
3.29824	10.0503
3.29614	10.0713
3.29405	10.1006
3.29196	10.1364
3.28987	10.0956
3.28778	10.1054
3.2857	10.1311
3.28362	10.0757
3.28154	9.92732
3.27946	9.93642
3.27739	9.96696
3.27532	9.93465
3.27325	9.90736
3.27119	9.93684
3.26913	9.8859
3.26707	9.78884
3.26501	9.83932
3.26295	9.8391
3.2609	9.82551
3.25885	9.88658
3.2568	9.87237
3.25476	9.75166
3.25272	9.7737
3.25068	9.77152
3.24864	9.83632
3.24661	9.84589
3.24458	9.72646
3.24255	9.6899
3.24052	9.78631
3.2385	9.77176
3.23648	9.65865
3.23446	9.63029
3.23244	9.59303
3.23043	9.62255
3.22841	9.55205
3.2264	9.42532
3.2244	9.50708
3.22239	9.65492
3.22039	9.5933
3.21839	9.54504
3.2164	9.58987
3.2144	9.512
3.21241	9.42878
3.21042	9.48049
3.20844	9.47715
3.20645	9.38892
3.20447	9.39394
3.20249	9.36852
3.20051	9.23599
3.19854	9.32085
3.19657	9.30588
3.1946	9.19873
3.19263	9.25781
3.19067	9.47258
3.1887	9.5054
3.18674	9.3012
3.18479	9.1736
3.18283	9.21522
3.18088	9.24192
3.17893	9.27521
3.17698	9.3211
3.17504	9.30204
3.17309	9.2242
3.17115	9.22838
3.16921	9.20165
3.16728	9.12043
3.16534	9.15204
3.16341	9.14424
3.16148	9.01066
3.15956	9.09655
3.15763	9.26479
3.15571	9.17672
3.15379	9.04528
3.15187	9.11371
3.14996	9.2526
3.14805	9.23034
3.14614	9.13012
3.14423	9.04011
3.14232	9.06407
3.14042	9.14498
3.13852	9.14608
3.13662	9.14845
3.13472	9.18127
3.13283	9.1117
3.13094	9.12977
3.12905	9.07668
3.12716	9.02997
3.12528	9.18031
3.12339	9.1725
3.12151	9.04339
3.11964	9.02205
3.11776	9.05914
3.11589	9.094
3.11401	9.09831
3.11214	9.11317
3.11028	9.13184
3.10841	9.12979
3.10655	9.08014
3.10469	9.0862
3.10283	9.07947
3.10098	8.96498
3.09912	8.94517
3.09727	9.08281
3.09542	9.08553
3.09358	9.11313
3.09173	9.08275
3.08989	9.01674
3.08805	8.9678
3.08621	8.97953
3.08437	9.00234
3.08254	8.92953
3.08071	8.90317
3.07888	8.91355
3.07705	8.89077
3.07523	8.97304
3.0734	9.05203
3.07158	9.03419
3.06977	9.07977
3.06795	9.03215
3.06613	8.98543
3.06432	8.9752
3.06251	8.95267
3.0607	8.96369
3.0589	8.99263
3.0571	8.98585
3.05529	8.99642
3.05349	8.97221
3.0517	8.93546
3.0499	8.98675
3.04811	9.05071
3.04632	9.02085
3.04453	9.04368
3.04274	9.04435
3.04096	8.98309
3.03918	9.02444
3.0374	9.12182
3.03562	9.01887
3.03384	8.95292
3.03207	8.98153
3.03029	9.00569
3.02852	9.00824
3.02676	9.00081
3.02499	8.95855
3.02323	8.8788
3.02146	8.96811
3.0197	9.10635
3.01795	9.05194
3.01619	9.09999
3.01444	9.1291
3.01269	9.04784
3.01094	9.01592
3.00919	8.86881
3.00744	8.79735
3.0057	8.97225
3.00396	8.98531
3.00222	8.90795
3.00048	8.89942
2.99875	8.84518
2.99701	8.86217
2.99528	8.89533
2.99355	8.80029
2.99183	8.87254
2.9901	8.90999
2.98838	8.92343
2.98666	9.01436
2.98494	8.94854
2.98322	8.78566
2.9815	8.82878
2.97979	8.89735
2.97808	8.91884
2.97637	8.98529
2.97466	8.97914
2.97295	8.89659
2.97125	8.86308
2.96955	8.97311
2.96785	8.98027
2.96615	8.96381
2.96446	8.93006
2.96276	8.88829
2.96107	8.85852
2.95938	8.89676
2.95769	8.89843
2.95601	8.90553
2.95432	8.84246
2.95264	8.84169
2.95096	8.8613
2.94928	8.78171
2.9476	8.8344
2.94593	9.00579
2.94425	9.04943
2.94258	9.01945
2.94092	8.98485
2.93925	9.03981
2.93758	9.02303
2.93592	8.95288
2.93426	8.82954
2.9326	8.80486
2.93094	8.84552
2.92928	8.89153
2.92763	8.93117
2.92598	8.87282
2.92433	8.8891
2.92268	8.87513
2.92103	8.88057
2.91939	8.88541
2.91775	8.98427
2.9161	8.97943
2.91447	8.95574
2.91283	8.96888
2.91119	8.7909
2.90956	8.7563
2.90793	8.88892
2.9063	9.01348
2.90467	8.95824
2.90304	9.08652
2.90142	9.03378
2.89979	8.8768
2.89817	8.78036
2.89656	8.8381
2.89494	8.9097
2.89332	8.9695
2.89171	9.04554
2.8901	9.04746
2.88849	9.00754
2.88688	9.00401
2.88527	9.10969
2.88367	9.06744
2.88206	8.96503
2.88046	8.93422
2.87886	9.05
2.87727	9.10378
2.87567	9.07011
2.87408	9.13809
2.87248	9.15688
2.87089	9.13451
2.8693	9.025
2.86772	8.93378
2.86613	8.91484
2.86455	9.00904
2.86297	8.95003
2.86139	8.95561
2.85981	8.96842
2.85823	9.02113
2.85666	9.03133
2.85508	8.95681
2.85351	9.04916
2.85194	9.13857
2.85038	9.08369
2.84881	9.00561
2.84724	8.90629
2.84568	8.94526
2.84412	9.00834
2.84256	8.84715
2.841	8.8573
2.83945	9.03046
2.83789	8.98817
2.83634	8.72527
2.83479	8.85756
2.83324	9.12807
2.83169	9.08779
2.83015	8.83045
2.82861	8.60378
2.82706	8.44197
2.82552	8.4601
2.82398	8.6251
2.82245	8.68571
2.82091	8.57825
2.81938	8.53621
2.81784	8.58647
2.81631	8.53302
2.81479	8.51032
2.81326	8.46743
2.81173	8.38782
2.81021	8.3824
2.80869	8.41196
2.80716	8.40806
2.80565	8.28645
2.80413	8.21299
2.80261	8.30599
2.8011	8.33983
2.79959	8.23696
2.79808	8.20899
2.79657	8.20881
2.79506	8.17138
2.79355	8.15164
2.79205	8.12442
2.79055	8.03629
2.78904	8.0087
2.78754	8.1869
2.78605	8.26387
2.78455	8.27536
2.78306	8.29248
2.78156	8.13241
2.78007	8.05108
2.77858	8.24953
2.77709	8.42537
2.77561	8.47167
2.77412	8.59489
2.77264	8.54329
2.77116	8.41776
2.76968	8.25533
2.7682	8.00421
2.76672	7.64873
2.76524	7.39202
2.76377	7.21945
2.7623	7.21816
2.76083	7.71797
2.75936	8.25153
2.75789	8.64996
2.75642	9.0926
2.75496	9.2712
2.7535	9.19481
2.75203	9.2677
2.75057	9.19062
2.74912	9.30323
2.74766	9.51198
2.7462	9.7415
2.74475	9.97027
2.7433	10.1401
2.74185	10.376
2.7404	10.6012
2.73895	10.8387
2.7375	10.8976
2.73606	10.9146
2.73462	10.9685
2.73318	10.9246
2.73174	11.191
2.7303	11.4205
2.72886	11.2533
2.72742	11.1962
2.72599	11.4603
2.72456	11.7002
2.72313	11.7334
2.7217	11.8549
2.72027	12.2105
2.71884	12.2402
2.71742	12.2323
2.71599	12.3236
2.71457	12.3956
2.71315	12.4623
2.71173	12.7264
2.71032	12.8808
2.7089	12.9444
2.70748	12.9609
2.70607	12.998
2.70466	12.9977
2.70325	13.0652
2.70184	13.14
2.70043	13.0698
2.69903	13.0646
2.69762	13.1656
2.69622	13.217
2.69482	13.2409
2.69342	13.3666
2.69202	13.1961
2.69062	13.1732
2.68923	13.2982
2.68783	13.4006
2.68644	13.3116
2.68505	13.2697
2.68366	13.3869
2.68227	13.3712
2.68089	13.3237
2.6795	13.4492
2.67812	13.4999
2.67673	13.4571
2.67535	13.3577
2.67397	13.2788
2.6726	13.3554
2.67122	13.6001
2.66984	13.5852
2.66847	13.5813
2.6671	13.8079
2.66572	13.7402
2.66435	13.6051
2.66299	13.4813
2.66162	13.4339
2.66025	13.2646
2.65889	13.2443
2.65753	13.3574
2.65616	13.5768
2.65481	13.6643
2.65345	13.5002
2.65209	13.4795
2.65073	13.4259
2.64938	13.4753
2.64803	13.6397
2.64667	13.5676
2.64532	13.3687
2.64397	13.4017
2.64263	13.5789
2.64128	13.6181
2.63994	13.5455
2.63859	13.4763
2.63725	13.5249
2.63591	13.6139
2.63457	13.6479
2.63323	13.6555
2.6319	13.6454
2.63056	13.7549
2.62923	13.6638
2.62789	13.5774
2.62656	13.6905
2.62523	13.4852
2.6239	13.5676
2.62258	13.6295
2.62125	13.5875
2.61993	13.6773
2.6186	13.6917
2.61728	13.7939
2.61596	13.7604
2.61464	13.5136
2.61332	13.5035
2.61201	13.6455
2.61069	13.7747
2.60938	13.6091
2.60807	13.5309
2.60675	13.7312
2.60544	13.8356
2.60414	13.7405
2.60283	13.6978
2.60152	13.6004
2.60022	13.5276
2.59891	13.6235
2.59761	13.6745
2.59631	13.8254
2.59501	14.0978
2.59371	13.9235
2.59242	13.6664
2.59112	13.5641
2.58983	13.552
2.58853	13.5983
2.58724	13.6389
2.58595	13.7479
2.58466	13.8698
2.58338	13.7488
2.58209	13.6653
2.5808	13.6093
2.57952	13.58
2.57824	13.661
2.57695	13.7892
2.57567	13.8216
2.5744	13.7813
2.57312	13.7188
2.57184	13.6119
2.57057	13.6528
2.56929	13.5708
2.56802	13.6079
2.56675	13.7041
2.56548	13.7776
2.56421	13.8271
2.56294	13.8239
2.56168	13.8243
2.56041	13.5659
2.55915	13.4227
2.55789	13.4342
2.55662	13.5477
2.55536	13.6226
2.5541	13.7329
2.55285	13.7161
2.55159	13.6828
2.55034	13.5675
2.54908	13.5358
2.54783	13.6571
2.54658	13.7531
2.54533	13.7645
2.54408	13.8232
2.54283	13.8338
2.54159	13.6453
2.54034	13.6288
2.5391	13.6838
2.53785	13.7153
2.53661	13.6795
2.53537	13.5114
2.53413	13.5022
2.53289	13.6522
2.53166	13.6737
2.53042	13.6476
2.52919	13.6475
2.52795	13.6049
2.52672	13.5693
2.52549	13.6215
2.52426	13.5676
2.52303	13.68
2.52181	13.7212
2.52058	13.6428
2.51936	13.6873
2.51813	13.7589
2.51691	13.7268
2.51569	13.757
2.51447	13.829
2.51325	13.7778
2.51203	13.6937
2.51082	13.6997
2.5096	13.7805
2.50839	13.7872
2.50717	13.6991
2.50596	13.6165
2.50475	13.6449
2.50354	13.7295
2.50233	13.7715
2.50113	13.7227
2.49992	13.7118
2.49872	13.7243
2.49751	13.8381
2.49631	13.8772
2.49511	13.7457
2.49391	13.6654
2.49271	13.7862
2.49151	13.8578
2.49031	13.761
2.48912	13.6993
2.48792	13.6514
2.48673	13.7557
2.48554	13.8991
2.48435	13.8488
2.48316	13.6877
2.48197	13.7662
2.48078	13.8822
2.4796	13.9263
2.47841	13.8687
2.47723	13.809
2.47604	13.8511
2.47486	13.8792
2.47368	13.7504
2.4725	13.7678
2.47132	13.917
2.47014	13.8986
2.46897	13.9811
2.46779	14.0424
2.46662	13.8746
2.46545	13.8241
2.46427	13.8622
2.4631	13.9705
2.46193	14.2235
2.46077	14.2584
2.4596	13.9537
2.45843	13.8057
2.45727	13.917
2.4561	14.0481
2.45494	14.1529
2.45378	14.0986
2.45262	14.0337
2.45146	13.9542
2.4503	13.9562
2.44914	13.9431
2.44799	13.9174
2.44683	13.9242
2.44568	14.0354
2.44452	14.154
2.44337	14.205
2.44222	14.1518
2.44107	14.1433
2.43992	14.2264
2.43877	14.1803
2.43763	13.8865
2.43648	13.7814
2.43534	13.9078
2.43419	13.9753
2.43305	14.0649
2.43191	14.0856
2.43077	14.0869
2.42963	14.1739
2.42849	14.136
2.42736	14.0938
2.42622	14.016
2.42509	13.9729
2.42395	14.0454
2.42282	14.0403
2.42169	13.9446
2.42056	14.0397
2.41943	14.071
2.4183	14.1489
2.41717	14.1074
2.41605	14.0045
2.41492	14.0447
2.4138	14.1162
2.41267	14.2586
2.41155	14.4119
2.41043	14.3486
2.40931	14.2558
2.40819	14.343
2.40707	14.3863
2.40595	14.2822
2.40484	14.2361
2.40372	14.3454
2.40261	14.4339
2.4015	14.3135
2.40039	14.1986
2.39928	14.2302
2.39817	14.3163
2.39706	14.3561
2.39595	14.3409
2.39484	14.2421
2.39374	14.2102
2.39263	14.3481
2.39153	14.4059
2.39043	14.4371
2.38932	14.4128
2.38822	14.4095
2.38712	14.368
2.38603	14.3568
2.38493	14.33
2.38383	14.3911
2.38274	14.6242
2.38164	14.6393
2.38055	14.4726
2.37946	14.5464
2.37836	14.6679
2.37727	14.5823
2.37618	14.492
2.3751	14.4793
2.37401	14.4347
2.37292	14.5013
2.37184	14.5712
2.37075	14.4326
2.36967	14.3619
2.36859	14.4938
2.3675	14.4439
2.36642	14.3681
2.36534	14.4453
2.36427	14.5156
2.36319	14.4728
2.36211	14.5518
2.36104	14.5338
2.35996	14.3897
2.35889	14.3073
2.35781	14.2404
2.35674	14.2396
2.35567	14.1765
2.3546	14.2371
2.35353	14.3225
2.35247	14.3157
2.3514	14.3579
2.35033	14.2844
2.34927	14.3148
2.3482	14.3699
2.34714	14.2569
2.34608	14.1876
2.34502	14.3595
2.34396	14.4603
2.3429	14.4119
2.34184	14.4329
2.34078	14.4167
2.33973	14.4614
2.33867	14.4402
2.33762	14.4931
2.33656	14.6309
2.33551	14.5764
2.33446	14.5344
2.33341	14.3986
2.33236	14.2553
2.33131	14.2447
2.33026	14.4954
2.32922	14.5093
2.32817	14.5159
2.32712	14.5481
2.32608	14.445
2.32504	14.4383
2.324	14.6429
2.32295	14.5969
2.32191	14.4654
2.32087	14.7026
2.31984	14.8736
2.3188	14.739
2.31776	14.7986
2.31673	14.8062
2.31569	14.7662
2.31466	14.8027
2.31362	14.7836
2.31259	14.8672
2.31156	14.7911
2.31053	14.7971
2.3095	14.9321
2.30847	15.0029
2.30745	14.843
2.30642	14.8118
2.3054	14.7344
2.30437	14.8934
2.30335	15.0375
2.30232	14.987
2.3013	14.932
2.30028	15.0042
2.29926	14.9418
2.29824	14.8787
2.29722	14.8826
2.29621	14.9366
2.29519	15.034
2.29417	14.9509
2.29316	14.8005
2.29215	15.0078
2.29113	15.1169
2.29012	14.9032
2.28911	14.8607
2.2881	15.0007
2.28709	15.0561
2.28608	15.1363
2.28507	15.147
2.28407	15.0733
2.28306	15.0755
2.28206	15.0304
2.28105	15.2245
2.28005	15.3717
2.27905	15.2913
2.27805	15.257
2.27705	15.3261
2.27605	15.3711
2.27505	15.2936
2.27405	15.2288
2.27305	15.2705
2.27206	15.4314
2.27106	15.3848
2.27007	15.299
2.26907	15.3358
2.26808	15.394
2.26709	15.3518
2.2661	15.3475
2.26511	15.3302
2.26412	15.3914
2.26313	15.4448
2.26214	15.4564
2.26116	15.3678
2.26017	15.3142
2.25919	15.2012
2.2582	15.2374
2.25722	15.5771
2.25624	15.7496
2.25526	15.4459
2.25428	15.3141
2.2533	15.2785
2.25232	15.4145
2.25134	15.4734
2.25036	15.3067
2.24939	15.2622
2.24841	15.256
2.24744	15.3968
2.24646	15.523
2.24549	15.5587
2.24452	15.5874
2.24355	15.5325
2.24257	15.5272
2.24161	15.5502
2.24064	15.5751
2.23967	15.6146
2.2387	15.5896
2.23774	15.5912
2.23677	15.6777
2.23581	15.7242
2.23484	15.6875
2.23388	15.6541
2.23292	15.5308
2.23196	15.5004
2.231	15.7234
2.23004	15.7021
2.22908	15.7011
2.22812	15.7599
2.22716	15.6924
2.22621	15.6656
2.22525	15.73
2.2243	15.7616
2.22334	15.7417
2.22239	15.7512
2.22144	15.6507
2.22049	15.5356
2.21953	15.6251
2.21859	15.8596
2.21764	15.8015
2.21669	15.6866
2.21574	15.7624
2.21479	15.7093
2.21385	15.5196
2.2129	15.569
2.21196	15.6277
2.21102	15.7632
2.21007	16.0312
2.20913	15.9843
2.20819	15.7348
2.20725	15.6915
2.20631	15.7963
2.20537	15.9426
2.20444	15.9183
2.2035	15.8589
2.20256	15.8341
2.20163	15.8589
2.20069	15.7508
2.19976	15.6832
2.19883	15.6863
2.19789	15.6322
2.19696	15.7139
2.19603	15.9326
2.1951	15.9889
2.19417	16.0136
2.19325	15.9359
2.19232	15.8313
2.19139	15.9105
2.19047	15.8579
2.18954	15.7184
2.18862	15.7094
2.18769	15.7899
2.18677	16.0208
2.18585	16.1159
2.18493	15.939
2.18401	15.8879
2.18309	15.8662
2.18217	15.8594
2.18125	15.8712
2.18033	15.9475
2.17942	16.0148
2.1785	15.9054
2.17759	15.8619
2.17667	16.0545
2.17576	16.0838
2.17485	15.9595
2.17393	15.9692
2.17302	15.885
2.17211	15.7129
2.1712	15.934
2.17029	15.9916
2.16939	15.9195
2.16848	15.8688
2.16757	15.8871
2.16667	15.9651
2.16576	15.9761
2.16486	15.8831
2.16395	15.7856
2.16305	15.8712
2.16215	16.0405
2.16125	15.9437
2.16035	15.938
2.15945	16.0813
2.15855	16.0941
2.15765	16.1104
2.15675	16.1877
2.15586	16.2402
2.15496	16.1949
2.15406	16.1307
2.15317	16.113
2.15228	16.0552
2.15138	16.0015
2.15049	15.9873
2.1496	16.175
2.14871	15.9744
2.14782	15.6942
2.14693	15.8283
2.14604	15.9726
2.14515	15.9745
2.14427	16.0905
2.14338	16.1396
2.14249	16.0486
2.14161	16.0523
2.14072	16.1412
2.13984	16.1136
2.13896	16.0545
2.13808	16.1479
2.13719	16.0769
2.13631	16.0426
2.13543	16.1023
2.13455	16.206
2.13368	16.0952
2.1328	16.0291
2.13192	16.1488
2.13105	16.1346
2.13017	16.1212
2.1293	16.2763
2.12842	16.2862
2.12755	16.3136
2.12668	16.3137
2.1258	16.0545
2.12493	15.996
2.12406	16.2844
2.12319	16.4155
2.12232	16.1631
2.12145	16.2546
2.12059	16.3541
2.11972	16.1306
2.11885	15.9304
2.11799	16.0678
2.11712	16.1288
2.11626	16.2286
2.1154	16.1893
2.11453	16.0793
2.11367	16.1465
2.11281	16.1888
2.11195	16.1826
2.11109	16.1231
2.11023	16.1954
2.10937	16.5107
2.10851	16.2815
2.10766	16.0999
2.1068	16.29
2.10594	16.1161
2.10509	15.9148
2.10423	16.2325
2.10338	16.4977
2.10253	16.6254
2.10168	16.3761
2.10082	16.0886
2.09997	16.2999
2.09912	16.149
2.09827	16.1273
2.09742	16.2676
2.09658	16.2656
2.09573	16.0197
2.09488	15.9235
2.09404	16.3046
2.09319	16.3806
2.09235	16.1151
2.0915	16.118
2.09066	16.298
2.08982	16.2377
2.08897	16.3635
2.08813	16.5256
2.08729	16.5076
2.08645	16.5068
2.08561	16.3704
2.08477	16.2056
2.08394	16.0709
2.0831	16.0031
2.08226	16.1333
2.08143	15.9544
2.08059	15.8412
2.07976	16.1121
2.07892	16.3639
2.07809	16.4343
2.07726	16.9038
2.07643	16.9611
2.07559	16.9732
2.07476	17.0857
2.07393	16.5805
2.0731	16.1247
2.07228	15.9998
2.07145	16.1146
2.07062	15.9947
2.06979	15.8137
2.06897	16.1889
2.06814	16.2029
2.06732	16.4761
2.06649	17.065
2.06567	16.7595
2.06485	16.5385
2.06403	16.5002
2.0632	16.3838
2.06238	16.2286
2.06156	15.9617
2.06074	16.1898
2.05993	16.457
2.05911	16.2815
2.05829	16.1826
2.05747	16.3187
2.05666	16.2596
2.05584	16.1638
2.05503	16.3536
2.05421	16.5073
2.0534	16.2651
2.05259	16.2221
2.05177	16.5185
2.05096	16.468
2.05015	16.3429
2.04934	16.4357
2.04853	16.1833
2.04772	16.1328
2.04691	16.3151
2.04611	16.3502
2.0453	16.3088
2.04449	16.3014
2.04369	16.2667
2.04288	16.1225
2.04208	16.161
2.04127	16.1683
2.04047	16.0897
2.03967	16.0023
2.03886	16.0208
2.03806	16.1061
2.03726	16.2684
2.03646	16.2262
2.03566	15.9872
2.03486	16.0291
2.03407	16.4024
2.03327	16.7332
2.03247	16.5967
2.03167	16.3897
2.03088	16.4454
2.03008	16.6949
2.02929	16.9301
2.0285	16.8064
2.0277	16.3793
2.02691	16.2742
2.02612	16.3194
2.02533	16.2144
2.02453	16.1213
2.02374	16.092
2.02295	16.2399
2.02217	16.4237
2.02138	16.3854
2.02059	16.3147
2.0198	16.5031
2.01902	16.3906
2.01823	16.2833
2.01744	16.4701
2.01666	16.675
2.01588	16.8873
2.01509	16.7725
2.01431	16.2995
2.01353	16.2053
2.01275	16.0447
2.01196	15.574
2.01118	15.7208
2.0104	16.321
2.00963	16.2246
2.00885	16.0807
2.00807	16.1141
2.00729	16.2478
2.00651	16.4751
2.00574	16.5992
2.00496	16.3993
2.00419	16.3725
2.00341	16.2751
2.00264	16.4598
2.00187	16.4615
2.00109	16.1824
2.00032	16.1184
