Name: Andesite Breccia
Type: Rock
Class: Igneous
Subclass:  Intermediate 
Particle Size: Solid surface
Sample No.: Ward28.txt
Owner: JPL
Wavelength range:  VNIR SWIR IR  
Origin: Ward's Collection of American Rocks.  Sample locality - Ouray, ouray County, Colorado.
Collected by:  Ward's Natural Science
Description: A compact rock with angular fragments of varicolored green
and purple extrusive material embedded in a variegated gray-green to
purple groundmass.
Geologic age - Tertiary (Eocene).


Measurement: Hemispherical reflectance
First Column: X
Second Column: Y
X Units: Wavelength (micrometers)
Y Units: Reflectance (percent)
First X Value: 2.500
Last X Value: 0.400
Number of X Values: 2101
Additional information: None

2.500  26.301151
2.499  26.375313
2.498  26.192745
2.497  26.577415
2.496  26.020755
2.495  26.679381
2.494  26.300789
2.493  26.362297
2.492  26.436335
2.491  26.495462
2.490  26.211605
2.489  26.729780
2.488  26.436629
2.487  26.523430
2.486  26.437045
2.485  26.514560
2.484  26.340611
2.483  26.604636
2.482  26.604435
2.481  26.780329
2.480  26.549246
2.479  26.758999
2.478  26.698653
2.477  26.731976
2.476  26.616209
2.475  26.769252
2.474  26.759801
2.473  26.859834
2.472  26.737647
2.471  26.847377
2.470  26.836120
2.469  26.956791
2.468  26.924044
2.467  26.945182
2.466  26.777549
2.465  26.956372
2.464  27.010124
2.463  27.032699
2.462  27.042875
2.461  27.066887
2.460  27.096945
2.459  27.253017
2.458  27.135384
2.457  27.250321
2.456  27.110254
2.455  27.223478
2.454  27.229379
2.453  27.385266
2.452  27.305628
2.451  27.383000
2.450  27.329704
2.449  27.397513
2.448  27.383782
2.447  27.508587
2.446  27.321776
2.445  27.542428
2.444  27.466966
2.443  27.495354
2.442  27.568243
2.441  27.685329
2.440  27.615111
2.439  27.734565
2.438  27.689180
2.437  27.716213
2.436  27.743357
2.435  27.746235
2.434  27.711036
2.433  27.899176
2.432  27.895215
2.431  28.006243
2.430  27.906865
2.429  27.951712
2.428  28.007627
2.427  28.074724
2.426  28.037155
2.425  28.170806
2.424  28.151610
2.423  28.296355
2.422  28.253178
2.421  28.282533
2.420  28.251382
2.419  28.361655
2.418  28.246192
2.417  28.278419
2.416  28.290354
2.415  28.309637
2.414  28.289166
2.413  28.378888
2.412  28.367831
2.411  28.341857
2.410  28.303058
2.409  28.378575
2.408  28.361856
2.407  28.386129
2.406  28.326566
2.405  28.322662
2.404  28.337793
2.403  28.421469
2.402  28.328246
2.401  28.368354
2.400  28.260783
2.399  28.277864
2.398  28.312140
2.397  28.314560
2.396  28.237599
2.395  28.219167
2.394  28.133739
2.393  28.175156
2.392  28.089853
2.391  28.105869
2.390  28.016563
2.389  27.994432
2.388  27.997695
2.387  27.906594
2.386  27.827850
2.385  27.803753
2.384  27.637681
2.383  27.648508
2.382  27.585093
2.381  27.457897
2.380  27.408375
2.379  27.386929
2.378  27.246916
2.377  27.111910
2.376  27.015626
2.375  26.941868
2.374  26.879860
2.373  26.808435
2.372  26.614766
2.371  26.485579
2.370  26.369187
2.369  26.270335
2.368  26.105344
2.367  25.969432
2.366  25.850734
2.365  25.678244
2.364  25.500311
2.363  25.379869
2.362  25.219800
2.361  25.023439
2.360  24.853406
2.359  24.647563
2.358  24.523514
2.357  24.405199
2.356  24.187731
2.355  24.009892
2.354  23.884124
2.353  23.730838
2.352  23.608138
2.351  23.502584
2.350  23.395455
2.349  23.244462
2.348  23.152827
2.347  23.079991
2.346  22.971321
2.345  22.828542
2.344  22.811418
2.343  22.796917
2.342  22.720693
2.341  22.716700
2.340  22.761832
2.339  22.754260
2.338  22.802669
2.337  22.791573
2.336  22.878116
2.335  22.966273
2.334  23.025122
2.333  23.109393
2.332  23.248421
2.331  23.313789
2.330  23.455310
2.329  23.608467
2.328  23.758911
2.327  23.838166
2.326  23.986482
2.325  24.105218
2.324  24.343361
2.323  24.441052
2.322  24.637677
2.321  24.775821
2.320  24.904596
2.319  25.029481
2.318  25.231566
2.317  25.370192
2.316  25.581801
2.315  25.729087
2.314  25.886041
2.313  26.088061
2.312  26.385201
2.311  26.468528
2.310  26.592931
2.309  26.696623
2.308  26.839012
2.307  26.969384
2.306  27.180237
2.305  27.293322
2.304  27.446859
2.303  27.528568
2.302  27.758982
2.301  27.800632
2.300  28.007510
2.299  28.138946
2.298  28.236972
2.297  28.261626
2.296  28.399953
2.295  28.472786
2.294  28.638081
2.293  28.699608
2.292  28.883963
2.291  28.934929
2.290  29.000197
2.289  29.005077
2.288  29.165833
2.287  29.152974
2.286  29.260551
2.285  29.272979
2.284  29.334022
2.283  29.315745
2.282  29.426486
2.281  29.388254
2.280  29.431249
2.279  29.446746
2.278  29.525010
2.277  29.470545
2.276  29.456152
2.275  29.347833
2.274  29.430856
2.273  29.305094
2.272  29.281302
2.271  29.156685
2.270  29.145570
2.269  29.049312
2.268  28.975093
2.267  28.860977
2.266  28.772216
2.265  28.629988
2.264  28.626474
2.263  28.499722
2.262  28.456118
2.261  28.253978
2.260  28.305534
2.259  28.022766
2.258  27.978336
2.257  27.991714
2.256  27.913823
2.255  27.812542
2.254  27.884710
2.253  27.841025
2.252  27.836163
2.251  27.920948
2.250  27.996861
2.249  28.018891
2.248  28.179141
2.247  28.266669
2.246  28.375278
2.245  28.452199
2.244  28.729044
2.243  28.728152
2.242  28.896177
2.241  29.066952
2.240  29.230350
2.239  29.259731
2.238  29.566193
2.237  29.603053
2.236  29.798867
2.235  29.684094
2.234  29.986309
2.233  29.906952
2.232  29.995386
2.231  29.923456
2.230  30.086816
2.229  30.095184
2.228  30.153052
2.227  30.139941
2.226  30.097022
2.225  30.010143
2.224  30.036532
2.223  29.958862
2.222  30.106982
2.221  29.900816
2.220  30.037139
2.219  29.894379
2.218  30.004390
2.217  29.978205
2.216  30.072614
2.215  29.996719
2.214  30.065845
2.213  30.069203
2.212  30.332087
2.211  30.121868
2.210  30.356509
2.209  30.391240
2.208  30.519726
2.207  30.587168
2.206  30.754602
2.205  30.848233
2.204  31.036689
2.203  31.065238
2.202  31.277082
2.201  31.452339
2.200  31.563489
2.199  31.653329
2.198  31.896308
2.197  31.917787
2.196  32.151487
2.195  32.232084
2.194  32.393042
2.193  32.511844
2.192  32.706024
2.191  32.838471
2.190  32.983598
2.189  33.106076
2.188  33.232449
2.187  33.325958
2.186  33.505035
2.185  33.585811
2.184  33.678744
2.183  33.773604
2.182  33.946288
2.181  34.060192
2.180  34.138201
2.179  34.131706
2.178  34.254713
2.177  34.329250
2.176  34.452857
2.175  34.421819
2.174  34.592389
2.173  34.600674
2.172  34.682591
2.171  34.667718
2.170  34.793606
2.169  34.847906
2.168  34.928380
2.167  34.923435
2.166  34.926847
2.165  34.996130
2.164  35.133286
2.163  35.080254
2.162  35.111902
2.161  35.151775
2.160  35.220366
2.159  35.187154
2.158  35.307067
2.157  35.327033
2.156  35.362058
2.155  35.277659
2.154  35.382102
2.153  35.286255
2.152  35.336956
2.151  35.396586
2.150  35.398990
2.149  35.415488
2.148  35.458239
2.147  35.421996
2.146  35.446492
2.145  35.406972
2.144  35.486971
2.143  35.436712
2.142  35.442748
2.141  35.416908
2.140  35.490997
2.139  35.430348
2.138  35.383000
2.137  35.384626
2.136  35.456277
2.135  35.423139
2.134  35.374316
2.133  35.369477
2.132  35.401177
2.131  35.254768
2.130  35.342826
2.129  35.273243
2.128  35.307387
2.127  35.260302
2.126  35.288169
2.125  35.254627
2.124  35.225580
2.123  35.164882
2.122  35.161023
2.121  35.118010
2.120  35.135106
2.119  35.114321
2.118  35.154772
2.117  35.087635
2.116  35.076684
2.115  35.024494
2.114  35.080972
2.113  35.041059
2.112  35.009841
2.111  35.024535
2.110  35.041012
2.109  34.972105
2.108  34.975529
2.107  34.989684
2.106  34.996424
2.105  34.961328
2.104  34.951923
2.103  34.937596
2.102  34.911657
2.101  34.872409
2.100  34.947553
2.099  34.982781
2.098  34.959122
2.097  34.933322
2.096  34.966360
2.095  34.938146
2.094  34.967055
2.093  34.984640
2.092  34.939416
2.091  34.799888
2.090  34.836536
2.089  34.975377
2.088  34.956426
2.087  34.996290
2.086  34.973148
2.085  34.936224
2.084  34.931238
2.083  34.937038
2.082  34.993602
2.081  34.988994
2.080  34.989540
2.079  34.942676
2.078  34.902224
2.077  34.902758
2.076  34.925304
2.075  34.927784
2.074  34.965298
2.073  34.923014
2.072  34.864483
2.071  34.886096
2.070  34.903017
2.069  34.929064
2.068  34.908363
2.067  34.882137
2.066  34.822861
2.065  34.806054
2.064  34.815360
2.063  34.848020
2.062  34.830947
2.061  34.766118
2.060  34.801664
2.059  34.778719
2.058  34.749499
2.057  34.760757
2.056  34.719258
2.055  34.695270
2.054  34.686555
2.053  34.666091
2.052  34.675692
2.051  34.664092
2.050  34.617062
2.049  34.599801
2.048  34.607753
2.047  34.593491
2.046  34.579164
2.045  34.552220
2.044  34.515575
2.043  34.531398
2.042  34.493175
2.041  34.510502
2.040  34.435001
2.039  34.419619
2.038  34.389184
2.037  34.365983
2.036  34.303512
2.035  34.312940
2.034  34.293576
2.033  34.288753
2.032  34.236077
2.031  34.230483
2.030  34.216873
2.029  34.166689
2.028  34.116805
2.027  34.152274
2.026  34.039911
2.025  34.079202
2.024  34.097269
2.023  34.070239
2.022  33.955492
2.021  33.930905
2.020  33.929397
2.019  33.895526
2.018  33.805332
2.017  33.846679
2.016  33.815193
2.015  33.768675
2.014  33.708784
2.013  33.823095
2.012  33.754877
2.011  33.773819
2.010  33.698990
2.009  33.695642
2.008  33.599677
2.007  33.669064
2.006  33.598901
2.005  33.657664
2.004  33.632191
2.003  33.675721
2.002  33.604708
2.001  33.671450
2.000  33.588465
1.999  33.610316
1.998  33.515553
1.997  33.563663
1.996  33.507417
1.995  33.616825
1.994  33.568397
1.993  33.631192
1.992  33.498975
1.991  33.593995
1.990  33.525870
1.989  33.529399
1.988  33.494613
1.987  33.648787
1.986  33.517088
1.985  33.527316
1.984  33.517930
1.983  33.578395
1.982  33.502880
1.981  33.603230
1.980  33.562523
1.979  33.601450
1.978  33.581342
1.977  33.588453
1.976  33.520251
1.975  33.532330
1.974  33.501848
1.973  33.536752
1.972  33.511942
1.971  33.595861
1.970  33.477393
1.969  33.599006
1.968  33.544645
1.967  33.464644
1.966  33.454187
1.965  33.553645
1.964  33.582991
1.963  33.531686
1.962  33.500332
1.961  33.479751
1.960  33.477293
1.959  33.475636
1.958  33.450434
1.957  33.440757
1.956  33.398030
1.955  33.524587
1.954  33.397789
1.953  33.481473
1.952  33.443351
1.951  33.511222
1.950  33.494166
1.949  33.444338
1.948  33.499316
1.947  33.516963
1.946  33.468316
1.945  33.598972
1.944  33.445203
1.943  33.609594
1.942  33.410757
1.941  33.660590
1.940  33.519480
1.939  33.481397
1.938  33.508804
1.937  33.595511
1.936  33.505554
1.935  33.575390
1.934  33.513844
1.933  33.680594
1.932  33.517370
1.931  33.649458
1.930  33.597023
1.929  33.602704
1.928  33.539361
1.927  33.738540
1.926  33.456427
1.925  33.687779
1.924  33.559813
1.923  33.594020
1.922  33.557936
1.921  33.580373
1.920  33.523546
1.919  33.618538
1.918  33.490680
1.917  33.725192
1.916  33.511977
1.915  33.548472
1.914  33.591077
1.913  33.587421
1.912  33.567988
1.911  33.617572
1.910  33.497270
1.909  33.654486
1.908  33.633580
1.907  33.605709
1.906  33.561766
1.905  33.609066
1.904  33.593256
1.903  33.711588
1.902  33.652655
1.901  33.655245
1.900  33.663602
1.899  33.629687
1.898  33.606845
1.897  33.802179
1.896  33.617907
1.895  33.741494
1.894  33.635499
1.893  33.719642
1.892  33.706867
1.891  33.686104
1.890  33.653245
1.889  33.659501
1.888  33.681742
1.887  33.670625
1.886  33.638426
1.885  33.720147
1.884  33.689788
1.883  33.721918
1.882  33.698783
1.881  33.750039
1.880  33.648511
1.879  33.687895
1.878  33.693668
1.877  33.793752
1.876  33.750585
1.875  33.854706
1.874  33.819677
1.873  33.896489
1.872  33.845986
1.871  33.858147
1.870  33.810550
1.869  33.804374
1.868  33.832855
1.867  33.846938
1.866  33.774338
1.865  33.826398
1.864  33.745075
1.863  33.815855
1.862  33.803029
1.861  33.748990
1.860  33.677812
1.859  33.776471
1.858  33.718323
1.857  33.748638
1.856  33.681782
1.855  33.728316
1.854  33.742020
1.853  33.779100
1.852  33.688453
1.851  33.742194
1.850  33.653084
1.849  33.725675
1.848  33.686998
1.847  33.682156
1.846  33.631406
1.845  33.704351
1.844  33.680613
1.843  33.636015
1.842  33.608542
1.841  33.617857
1.840  33.657414
1.839  33.676450
1.838  33.609853
1.837  33.608087
1.836  33.497061
1.835  33.525935
1.834  33.538910
1.833  33.545861
1.832  33.473885
1.831  33.419613
1.830  33.408360
1.829  33.455423
1.828  33.526767
1.827  33.679455
1.826  33.437713
1.825  33.390898
1.824  33.405496
1.823  33.448538
1.822  33.419156
1.821  33.437630
1.820  33.378287
1.819  33.398133
1.818  33.463670
1.817  33.403731
1.816  33.336569
1.815  33.362066
1.814  33.348730
1.813  33.380400
1.812  33.296991
1.811  33.346212
1.810  33.329088
1.809  33.291523
1.808  33.257775
1.807  33.327535
1.806  33.292247
1.805  33.280615
1.804  33.286026
1.803  33.302541
1.802  33.249698
1.801  33.230503
1.800  33.248204
1.799  33.213520
1.798  33.192325
1.797  33.185729
1.796  33.167658
1.795  33.160311
1.794  33.148506
1.793  33.145577
1.792  33.141850
1.791  33.141643
1.790  33.106750
1.789  33.118901
1.788  33.139638
1.787  33.121960
1.786  33.047190
1.785  33.015642
1.784  33.035238
1.783  33.081834
1.782  33.067083
1.781  32.983446
1.780  32.990466
1.779  32.977243
1.778  32.964620
1.777  32.977260
1.776  32.943770
1.775  32.911188
1.774  32.872460
1.773  32.852236
1.772  32.900960
1.771  32.922363
1.770  32.888134
1.769  32.854693
1.768  32.849925
1.767  32.795354
1.766  32.808076
1.765  32.837119
1.764  32.815549
1.763  32.771434
1.762  32.832279
1.761  32.830952
1.760  32.770268
1.759  32.756068
1.758  32.798553
1.757  32.745093
1.756  32.739761
1.755  32.690392
1.754  32.729336
1.753  32.621220
1.752  32.639831
1.751  32.631273
1.750  32.630974
1.749  32.640336
1.748  32.737107
1.747  32.614052
1.746  32.606717
1.745  32.585066
1.744  32.553830
1.743  32.619861
1.742  32.578721
1.741  32.517528
1.740  32.501343
1.739  32.518613
1.738  32.546483
1.737  32.440977
1.736  32.503017
1.735  32.446173
1.734  32.465734
1.733  32.417173
1.732  32.398358
1.731  32.381393
1.730  32.436155
1.729  32.428277
1.728  32.388578
1.727  32.341878
1.726  32.405536
1.725  32.285690
1.724  32.294890
1.723  32.281001
1.722  32.318020
1.721  32.163671
1.720  32.174461
1.719  32.184881
1.718  32.203058
1.717  32.154468
1.716  32.259470
1.715  32.175260
1.714  32.163413
1.713  32.084136
1.712  32.139134
1.711  32.040421
1.710  32.092435
1.709  32.047012
1.708  32.121439
1.707  32.084456
1.706  32.006993
1.705  32.015826
1.704  32.014049
1.703  31.914522
1.702  31.913038
1.701  31.878420
1.700  31.826758
1.699  31.846332
1.698  31.854976
1.697  31.794282
1.696  31.824490
1.695  31.774735
1.694  31.758610
1.693  31.612550
1.692  31.724564
1.691  31.674362
1.690  31.657829
1.689  31.655258
1.688  31.704571
1.687  31.617397
1.686  31.612417
1.685  31.536425
1.684  31.515061
1.683  31.558903
1.682  31.587272
1.681  31.427716
1.680  31.515982
1.679  31.403260
1.678  31.488540
1.677  31.372964
1.676  31.432669
1.675  31.382710
1.674  31.364932
1.673  31.316586
1.672  31.364086
1.671  31.294266
1.670  31.344753
1.669  31.302584
1.668  31.106586
1.667  31.186401
1.666  31.189512
1.665  31.140134
1.664  31.159380
1.663  31.087002
1.662  31.177690
1.661  31.138825
1.660  31.037496
1.659  31.029246
1.658  31.071502
1.657  30.968628
1.656  31.027152
1.655  30.913100
1.654  31.018868
1.653  30.820589
1.652  30.985392
1.651  30.811495
1.650  30.876636
1.649  30.713187
1.648  30.943855
1.647  30.787971
1.646  30.850490
1.645  30.756998
1.644  30.801863
1.643  30.632052
1.642  30.795391
1.641  30.615068
1.640  30.775970
1.639  30.544588
1.638  30.655857
1.637  30.524673
1.636  30.527268
1.635  30.586949
1.634  30.629369
1.633  30.462720
1.632  30.538145
1.631  30.454584
1.630  30.590612
1.629  30.473750
1.628  30.400011
1.627  30.277895
1.626  30.418120
1.625  30.323141
1.624  30.363837
1.623  30.283234
1.622  30.262410
1.621  30.256991
1.620  30.298735
1.619  30.198898
1.618  30.276545
1.617  30.139509
1.616  30.165269
1.615  30.091098
1.614  30.104293
1.613  30.078577
1.612  30.080970
1.611  29.973543
1.610  30.048284
1.609  29.967521
1.608  30.050835
1.607  29.937384
1.606  29.961931
1.605  29.867901
1.604  29.953370
1.603  29.832305
1.602  29.923171
1.601  29.828329
1.600  29.833756
1.599  29.751508
1.598  29.869584
1.597  29.711574
1.596  29.749439
1.595  29.701008
1.594  29.787374
1.593  29.671072
1.592  29.614863
1.591  29.557074
1.590  29.552291
1.589  29.502725
1.588  29.605796
1.587  29.507181
1.586  29.498501
1.585  29.429864
1.584  29.429303
1.583  29.340280
1.582  29.371300
1.581  29.305587
1.580  29.314128
1.579  29.310247
1.578  29.320379
1.577  29.272741
1.576  29.232177
1.575  29.187485
1.574  29.227848
1.573  29.112453
1.572  29.145745
1.571  29.093248
1.570  29.095584
1.569  29.023568
1.568  29.073684
1.567  29.017204
1.566  29.050266
1.565  28.952389
1.564  29.048836
1.563  28.945102
1.562  28.875905
1.561  28.858294
1.560  28.857371
1.559  28.843395
1.558  28.814762
1.557  28.769723
1.556  28.783398
1.555  28.745501
1.554  28.764112
1.553  28.679286
1.552  28.690835
1.551  28.624189
1.550  28.583432
1.549  28.576433
1.548  28.563669
1.547  28.575738
1.546  28.661585
1.545  28.551958
1.544  28.490398
1.543  28.445174
1.542  28.471987
1.541  28.451535
1.540  28.446103
1.539  28.417715
1.538  28.471119
1.537  28.432636
1.536  28.440895
1.535  28.373850
1.534  28.369781
1.533  28.331184
1.532  28.312819
1.531  28.277601
1.530  28.310646
1.529  28.276261
1.528  28.255486
1.527  28.237724
1.526  28.227662
1.525  28.171833
1.524  28.223958
1.523  28.148000
1.522  28.164485
1.521  28.191738
1.520  28.184138
1.519  28.115413
1.518  28.102389
1.517  28.049612
1.516  28.062890
1.515  28.098744
1.514  28.057176
1.513  28.051491
1.512  28.049330
1.511  28.006804
1.510  28.038595
1.509  28.016947
1.508  27.979152
1.507  28.010346
1.506  27.972943
1.505  27.944010
1.504  27.954826
1.503  27.954898
1.502  27.915155
1.501  27.869241
1.500  27.873422
1.499  27.868368
1.498  27.863683
1.497  27.838025
1.496  27.817382
1.495  27.826688
1.494  27.819404
1.493  27.788040
1.492  27.784222
1.491  27.773709
1.490  27.776551
1.489  27.713858
1.488  27.688475
1.487  27.678277
1.486  27.608353
1.485  27.604469
1.484  27.594255
1.483  27.603141
1.482  27.564862
1.481  27.535019
1.480  27.493770
1.479  27.543812
1.478  27.409433
1.477  27.364029
1.476  27.436694
1.475  27.426483
1.474  27.367268
1.473  27.418334
1.472  27.336845
1.471  27.320980
1.470  27.269365
1.469  27.229268
1.468  27.231868
1.467  27.224299
1.466  27.220747
1.465  27.181733
1.464  27.112682
1.463  27.114910
1.462  27.051285
1.461  27.073623
1.460  26.975155
1.459  27.012240
1.458  26.972225
1.457  26.939108
1.456  26.922546
1.455  26.960298
1.454  26.903035
1.453  26.881089
1.452  26.901860
1.451  26.872895
1.450  26.766200
1.449  26.797024
1.448  26.713707
1.447  26.798680
1.446  26.684194
1.445  26.725299
1.444  26.665286
1.443  26.625579
1.442  26.589754
1.441  26.578424
1.440  26.516331
1.439  26.591558
1.438  26.491504
1.437  26.499649
1.436  26.459097
1.435  26.453369
1.434  26.396383
1.433  26.451997
1.432  26.291615
1.431  26.246829
1.430  26.193431
1.429  26.131470
1.428  26.036293
1.427  26.032045
1.426  25.982878
1.425  25.971080
1.424  25.850571
1.423  25.749920
1.422  25.629189
1.421  25.619695
1.420  25.503190
1.419  25.489321
1.418  25.273601
1.417  25.273418
1.416  25.171072
1.415  25.160513
1.414  25.049119
1.413  25.041120
1.412  24.940634
1.411  25.068820
1.410  25.091264
1.409  25.129053
1.408  25.081097
1.407  25.064080
1.406  25.070305
1.405  25.090973
1.404  25.111160
1.403  25.206358
1.402  25.236856
1.401  25.315183
1.400  25.213305
1.399  25.405256
1.398  25.472606
1.397  25.502441
1.396  25.472220
1.395  25.585224
1.394  25.538802
1.393  25.677467
1.392  25.629489
1.391  25.740339
1.390  25.826125
1.389  25.820604
1.388  25.752623
1.387  25.880218
1.386  25.751561
1.385  25.821155
1.384  25.743475
1.383  25.797715
1.382  25.765058
1.381  25.668670
1.380  25.599541
1.379  25.666626
1.378  25.657527
1.377  25.795368
1.376  25.572350
1.375  25.664228
1.374  25.552524
1.373  25.594780
1.372  25.443271
1.371  25.554058
1.370  25.476725
1.369  25.482525
1.368  25.526812
1.367  25.438592
1.366  25.406522
1.365  25.425876
1.364  25.317102
1.363  25.447887
1.362  25.250572
1.361  25.248177
1.360  25.249014
1.359  25.295038
1.358  25.169572
1.357  25.244712
1.356  25.220028
1.355  25.047792
1.354  25.101710
1.353  25.115314
1.352  24.999737
1.351  25.069403
1.350  24.973261
1.349  25.068664
1.348  24.780164
1.347  24.908525
1.346  24.877262
1.345  24.960005
1.344  24.783524
1.343  24.899441
1.342  24.649124
1.341  24.773075
1.340  24.617633
1.339  24.723156
1.338  24.643925
1.337  24.660387
1.336  24.553882
1.335  24.675992
1.334  24.555358
1.333  24.559978
1.332  24.453226
1.331  24.550911
1.330  24.407789
1.329  24.480905
1.328  24.336538
1.327  24.411539
1.326  24.258505
1.325  24.371071
1.324  24.279211
1.323  24.323002
1.322  24.249651
1.321  24.242021
1.320  24.237102
1.319  24.242639
1.318  24.220937
1.317  24.198858
1.316  24.079680
1.315  24.074495
1.314  24.013097
1.313  24.093135
1.312  23.974884
1.311  24.023555
1.310  23.902205
1.309  24.060226
1.308  23.884982
1.307  23.888033
1.306  23.798638
1.305  23.893621
1.304  23.825269
1.303  23.741669
1.302  23.731516
1.301  23.745689
1.300  23.739604
1.299  23.740253
1.298  23.650880
1.297  23.703489
1.296  23.551049
1.295  23.589822
1.294  23.573245
1.293  23.551997
1.292  23.489215
1.291  23.529707
1.290  23.480625
1.289  23.485665
1.288  23.447574
1.287  23.439233
1.286  23.379840
1.285  23.350386
1.284  23.332040
1.283  23.369442
1.282  23.273873
1.281  23.302158
1.280  23.256483
1.279  23.238106
1.278  23.156912
1.277  23.201988
1.276  23.189991
1.275  23.160600
1.274  23.131109
1.273  23.073722
1.272  23.009048
1.271  23.037708
1.270  23.011919
1.269  23.017948
1.268  22.967145
1.267  22.922878
1.266  22.884453
1.265  22.871887
1.264  22.826062
1.263  22.891728
1.262  22.833544
1.261  22.770875
1.260  22.741918
1.259  22.786554
1.258  22.730668
1.257  22.740765
1.256  22.667431
1.255  22.638029
1.254  22.617376
1.253  22.624233
1.252  22.589779
1.251  22.534673
1.250  22.495567
1.249  22.535050
1.248  22.429347
1.247  22.432736
1.246  22.392438
1.245  22.415532
1.244  22.375901
1.243  22.351302
1.242  22.317872
1.241  22.357370
1.240  22.261199
1.239  22.242162
1.238  22.203584
1.237  22.230763
1.236  22.199398
1.235  22.150658
1.234  22.138874
1.233  22.154844
1.232  22.108109
1.231  22.124444
1.230  22.085620
1.229  22.045580
1.228  21.992872
1.227  21.978431
1.226  21.995048
1.225  21.935941
1.224  21.896244
1.223  21.916784
1.222  21.902917
1.221  21.899517
1.220  21.874230
1.219  21.823824
1.218  21.804732
1.217  21.801886
1.216  21.751979
1.215  21.728577
1.214  21.685447
1.213  21.653101
1.212  21.652849
1.211  21.641235
1.210  21.652150
1.209  21.630303
1.208  21.567804
1.207  21.572474
1.206  21.576488
1.205  21.501425
1.204  21.464786
1.203  21.469576
1.202  21.444549
1.201  21.406726
1.200  21.475169
1.199  21.436594
1.198  21.386658
1.197  21.374723
1.196  21.380825
1.195  21.342578
1.194  21.290677
1.193  21.236110
1.192  21.254464
1.191  21.202626
1.190  21.184493
1.189  21.268585
1.188  21.145951
1.187  21.156095
1.186  21.197214
1.185  21.132129
1.184  21.162821
1.183  21.121907
1.182  21.098412
1.181  21.002549
1.180  21.021773
1.179  20.982365
1.178  21.006084
1.177  21.006706
1.176  21.013566
1.175  20.915844
1.174  20.924773
1.173  20.913918
1.172  20.958113
1.171  20.857962
1.170  20.859499
1.169  20.828519
1.168  20.834995
1.167  20.815130
1.166  20.885821
1.165  20.862673
1.164  20.800519
1.163  20.747350
1.162  20.774399
1.161  20.741588
1.160  20.752264
1.159  20.700548
1.158  20.743785
1.157  20.676834
1.156  20.703271
1.155  20.659615
1.154  20.655101
1.153  20.599826
1.152  20.712403
1.151  20.661754
1.150  20.606292
1.149  20.557075
1.148  20.539617
1.147  20.528746
1.146  20.600936
1.145  20.554317
1.144  20.592357
1.143  20.544399
1.142  20.554569
1.141  20.460514
1.140  20.545431
1.139  20.407845
1.138  20.480071
1.137  20.419771
1.136  20.527275
1.135  20.399095
1.134  20.504767
1.133  20.430246
1.132  20.516331
1.131  20.444720
1.130  20.485046
1.129  20.459522
1.128  20.448769
1.127  20.326278
1.126  20.402173
1.125  20.383577
1.124  20.365529
1.123  20.370655
1.122  20.381162
1.121  20.356993
1.120  20.388788
1.119  20.320555
1.118  20.367883
1.117  20.316213
1.116  20.334352
1.115  20.230919
1.114  20.336427
1.113  20.200153
1.112  20.329622
1.111  20.277440
1.110  20.307388
1.109  20.250513
1.108  20.317374
1.107  20.242926
1.106  20.326159
1.105  20.227508
1.104  20.266816
1.103  20.282668
1.102  20.369224
1.101  20.259164
1.100  20.282113
1.099  20.178991
1.098  20.334458
1.097  20.271204
1.096  20.232543
1.095  20.202118
1.094  20.365421
1.093  20.258333
1.092  20.314328
1.091  20.181178
1.090  20.279514
1.089  20.213609
1.088  20.336231
1.087  20.209614
1.086  20.322365
1.085  20.254590
1.084  20.337223
1.083  20.126986
1.082  20.274493
1.081  20.201856
1.080  20.297439
1.079  20.205727
1.078  20.227218
1.077  20.158801
1.076  20.297468
1.075  20.268382
1.074  20.276938
1.073  20.218994
1.072  20.336991
1.071  20.318881
1.070  20.265381
1.069  20.282509
1.068  20.394989
1.067  20.210527
1.066  20.314533
1.065  20.233547
1.064  20.310618
1.063  20.222122
1.062  20.364146
1.061  20.265178
1.060  20.310842
1.059  20.162687
1.058  20.283272
1.057  20.211224
1.056  20.340003
1.055  20.269409
1.054  20.339206
1.053  20.212351
1.052  20.396888
1.051  20.245040
1.050  20.336967
1.049  20.340411
1.048  20.340066
1.047  20.286835
1.046  20.401440
1.045  20.279625
1.044  20.371654
1.043  20.208195
1.042  20.340245
1.041  20.318000
1.040  20.343591
1.039  20.315192
1.038  20.353381
1.037  20.295105
1.036  20.379030
1.035  20.358542
1.034  20.385031
1.033  20.383347
1.032  20.415973
1.031  20.365476
1.030  20.383927
1.029  20.304722
1.028  20.371714
1.027  20.324058
1.026  20.401254
1.025  20.332737
1.024  20.346769
1.023  20.310684
1.022  20.374545
1.021  20.371350
1.020  20.439553
1.019  20.329252
1.018  20.442060
1.017  20.349892
1.016  20.452886
1.015  20.367001
1.014  20.419946
1.013  20.343995
1.012  20.430304
1.011  20.357697
1.010  20.423871
1.009  20.413276
1.008  20.389596
1.007  20.395465
1.006  20.436000
1.005  20.397605
1.004  20.372068
1.003  20.314220
1.002  20.392355
1.001  20.317159
1.000  20.353171
0.999  20.264573
0.998  20.383467
0.997  20.334798
0.996  20.390889
0.995  20.316169
0.994  20.360096
0.993  20.312750
0.992  20.317856
0.991  20.324719
0.990  20.348416
0.989  20.314928
0.988  20.367395
0.987  20.243249
0.986  20.333641
0.985  20.342894
0.984  20.333402
0.983  20.253363
0.982  20.275827
0.981  20.299131
0.980  20.343919
0.979  20.267253
0.978  20.276588
0.977  20.213079
0.976  20.260826
0.975  20.244820
0.974  20.257515
0.973  20.212809
0.972  20.206800
0.971  20.228042
0.970  20.246842
0.969  20.227441
0.968  20.208791
0.967  20.131280
0.966  20.242941
0.965  20.141202
0.964  20.115349
0.963  20.118966
0.962  20.128397
0.961  20.119962
0.960  20.146827
0.959  20.147074
0.958  20.146722
0.957  20.096479
0.956  20.114894
0.955  20.092585
0.954  20.077673
0.953  20.089260
0.952  20.104216
0.951  20.039623
0.950  20.090271
0.949  20.073502
0.948  20.078534
0.947  20.053928
0.946  20.031725
0.945  20.049368
0.944  20.084124
0.943  20.044965
0.942  19.995047
0.941  19.965514
0.940  19.974936
0.939  20.022752
0.938  20.081144
0.937  20.018710
0.936  19.989348
0.935  19.981592
0.934  20.026936
0.933  19.972103
0.932  19.966869
0.931  19.959732
0.930  19.937835
0.929  19.981163
0.928  19.997212
0.927  19.973183
0.926  19.944021
0.925  19.969643
0.924  19.994239
0.923  19.948556
0.922  19.912517
0.921  19.957710
0.920  20.000271
0.919  20.004187
0.918  19.979656
0.917  19.944357
0.916  19.950506
0.915  20.031454
0.914  20.010341
0.913  19.985425
0.912  19.956352
0.911  19.974697
0.910  19.990773
0.909  20.036994
0.908  19.979183
0.907  19.998486
0.906  20.041877
0.905  20.067290
0.904  20.030643
0.903  20.034759
0.902  20.025877
0.901  20.079597
0.900  20.042715
0.899  20.047997
0.898  20.023551
0.897  20.106810
0.896  20.068886
0.895  20.134001
0.894  20.095721
0.893  20.091907
0.892  20.050984
0.891  20.175440
0.890  20.196181
0.889  20.185270
0.888  20.138868
0.887  20.218452
0.886  20.154588
0.885  20.259920
0.884  20.245880
0.883  20.220465
0.882  20.267602
0.881  20.282570
0.880  20.244877
0.879  20.321364
0.878  20.238425
0.877  20.270743
0.876  20.326162
0.875  20.333245
0.874  20.279450
0.873  20.313014
0.872  20.349488
0.871  20.358537
0.870  20.320215
0.869  20.407984
0.868  20.400592
0.867  20.447310
0.866  20.381325
0.865  20.454686
0.864  20.412920
0.863  20.461410
0.862  20.462732
0.861  20.501606
0.860  20.924886
0.859  20.898063
0.858  20.926087
0.857  20.918159
0.856  20.948239
0.855  20.975463
0.854  20.987234
0.853  21.034090
0.852  21.016367
0.851  21.064339
0.850  21.074986
0.849  21.074331
0.848  21.105530
0.847  21.144305
0.846  21.131879
0.845  21.145246
0.844  21.145897
0.843  21.147893
0.842  21.158958
0.841  21.202229
0.840  21.209192
0.839  21.208462
0.838  21.210668
0.837  21.232579
0.836  21.244506
0.835  21.244473
0.834  21.289052
0.833  21.276021
0.832  21.272676
0.831  21.268786
0.830  21.305684
0.829  21.316036
0.828  21.315980
0.827  21.325572
0.826  21.314287
0.825  21.320730
0.824  21.322698
0.823  21.358643
0.822  21.332254
0.821  21.370500
0.820  21.374122
0.819  21.370428
0.818  21.359479
0.817  21.361354
0.816  21.349823
0.815  21.377785
0.814  21.380890
0.813  21.359401
0.812  21.362508
0.811  21.360471
0.810  21.369593
0.809  21.366753
0.808  21.355207
0.807  21.339083
0.806  21.325151
0.805  21.336668
0.804  21.334953
0.803  21.335252
0.802  21.324889
0.801  21.299503
0.800  21.286184
0.799  21.269323
0.798  21.267216
0.797  21.254866
0.796  21.246944
0.795  21.230213
0.794  21.227185
0.793  21.207899
0.792  21.194918
0.791  21.166035
0.790  21.144173
0.789  21.135285
0.788  21.127504
0.787  21.104036
0.786  21.089853
0.785  21.065279
0.784  21.050580
0.783  21.030408
0.782  20.999683
0.781  20.998850
0.780  20.981221
0.779  20.961648
0.778  20.937900
0.777  20.911894
0.776  20.897570
0.775  20.870765
0.774  20.857681
0.773  20.826445
0.772  20.803614
0.771  20.799566
0.770  20.771750
0.769  20.751331
0.768  20.737096
0.767  20.712868
0.766  20.689779
0.765  20.662867
0.764  20.652894
0.763  20.621470
0.762  20.610348
0.761  20.590055
0.760  20.578679
0.759  20.546824
0.758  20.538263
0.757  20.523645
0.756  20.502287
0.755  20.496230
0.754  20.473247
0.753  20.465529
0.752  20.447936
0.751  20.427461
0.750  20.409258
0.749  20.394159
0.748  20.384789
0.747  20.369034
0.746  20.349428
0.745  20.344904
0.744  20.340275
0.743  20.316963
0.742  20.308079
0.741  20.295913
0.740  20.282682
0.739  20.273862
0.738  20.255941
0.737  20.250011
0.736  20.245795
0.735  20.233413
0.734  20.230100
0.733  20.221409
0.732  20.214678
0.731  20.198617
0.730  20.197919
0.729  20.188517
0.728  20.191035
0.727  20.188690
0.726  20.181524
0.725  20.183735
0.724  20.171287
0.723  20.165277
0.722  20.158542
0.721  20.160126
0.720  20.171088
0.719  20.158647
0.718  20.156305
0.717  20.163441
0.716  20.156108
0.715  20.158184
0.714  20.155926
0.713  20.161520
0.712  20.168176
0.711  20.167312
0.710  20.169727
0.709  20.181014
0.708  20.170859
0.707  20.181455
0.706  20.180701
0.705  20.194112
0.704  20.186520
0.703  20.196698
0.702  20.207918
0.701  20.212156
0.700  20.221895
0.699  20.235742
0.698  20.233757
0.697  20.245809
0.696  20.251186
0.695  20.258170
0.694  20.271304
0.693  20.287566
0.692  20.297019
0.691  20.307207
0.690  20.314183
0.689  20.331386
0.688  20.338059
0.687  20.351742
0.686  20.362973
0.685  20.382425
0.684  20.396499
0.683  20.407523
0.682  20.422371
0.681  20.427887
0.680  20.445215
0.679  20.465261
0.678  20.480172
0.677  20.490948
0.676  20.503485
0.675  20.514203
0.674  20.528630
0.673  20.549563
0.672  20.564417
0.671  20.585185
0.670  20.600874
0.669  20.611656
0.668  20.626926
0.667  20.652052
0.666  20.673805
0.665  20.688459
0.664  20.702674
0.663  20.719843
0.662  20.738925
0.661  20.758912
0.660  20.775867
0.659  20.798789
0.658  20.819853
0.657  20.840736
0.656  20.860793
0.655  20.879402
0.654  20.900441
0.653  20.922522
0.652  20.939466
0.651  20.959740
0.650  20.989544
0.649  21.009200
0.648  21.025326
0.647  21.046393
0.646  21.070515
0.645  21.093693
0.644  21.113211
0.643  21.136377
0.642  21.158646
0.641  21.180839
0.640  21.205115
0.639  21.228031
0.638  21.251680
0.637  21.276992
0.636  21.299405
0.635  21.322537
0.634  21.344580
0.633  21.370102
0.632  21.395944
0.631  21.418739
0.630  21.445643
0.629  21.471174
0.628  21.499281
0.627  21.525909
0.626  21.547104
0.625  21.568098
0.624  21.591428
0.623  21.620189
0.622  21.648987
0.621  21.673013
0.620  21.699035
0.619  21.724594
0.618  21.749672
0.617  21.773898
0.616  21.805880
0.615  21.832235
0.614  21.850411
0.613  21.880432
0.612  21.910282
0.611  21.938990
0.610  21.964386
0.609  21.989644
0.608  22.016145
0.607  22.041702
0.606  22.069373
0.605  22.096727
0.604  22.119000
0.603  22.143922
0.602  22.170982
0.601  22.194755
0.600  22.220820
0.599  22.253143
0.598  22.282932
0.597  22.312115
0.596  22.342952
0.595  22.370317
0.594  22.392022
0.593  22.411476
0.592  22.435042
0.591  22.456114
0.590  22.480016
0.589  22.500558
0.588  22.526366
0.587  22.543616
0.586  22.563283
0.585  22.580885
0.584  22.603119
0.583  22.621026
0.582  22.635529
0.581  22.649191
0.580  22.671009
0.579  22.686454
0.578  22.696254
0.577  22.713076
0.576  22.732092
0.575  22.743703
0.574  22.756106
0.573  22.769850
0.572  22.779058
0.571  22.787646
0.570  22.799801
0.569  22.812793
0.568  22.821243
0.567  22.823282
0.566  22.824400
0.565  22.826447
0.564  22.831474
0.563  22.840073
0.562  22.839405
0.561  22.871507
0.560  22.888726
0.559  22.893697
0.558  22.890300
0.557  22.893689
0.556  22.894756
0.555  22.893477
0.554  22.893607
0.553  22.894265
0.552  22.893303
0.551  22.889394
0.550  22.889688
0.549  22.888942
0.548  22.880525
0.547  22.874886
0.546  22.869668
0.545  22.868247
0.544  22.860642
0.543  22.855163
0.542  22.844756
0.541  22.841028
0.540  22.829924
0.539  22.816208
0.538  22.810558
0.537  22.800432
0.536  22.786453
0.535  22.779005
0.534  22.773548
0.533  22.764392
0.532  22.752831
0.531  22.749787
0.530  22.737950
0.529  22.729607
0.528  22.717909
0.527  22.713576
0.526  22.708732
0.525  22.695185
0.524  22.681813
0.523  22.670511
0.522  22.660999
0.521  22.647083
0.520  22.635014
0.519  22.615769
0.518  22.599551
0.517  22.573991
0.516  22.550003
0.515  22.533038
0.514  22.507682
0.513  22.479153
0.512  22.451707
0.511  22.412394
0.510  22.380334
0.509  22.344981
0.508  22.312225
0.507  22.263960
0.506  22.226172
0.505  22.182331
0.504  22.132747
0.503  22.079421
0.502  22.027845
0.501  21.970236
0.500  21.903972
0.499  21.845388
0.498  21.777861
0.497  21.709534
0.496  21.661826
0.495  21.607760
0.494  21.565174
0.493  21.517258
0.492  21.481533
0.491  21.452530
0.490  21.409386
0.489  21.366556
0.488  21.307653
0.487  21.249222
0.486  21.184054
0.485  21.100653
0.484  21.011358
0.483  20.920612
0.482  20.825468
0.481  20.718738
0.480  20.614631
0.479  20.503465
0.478  20.402975
0.477  20.298190
0.476  20.214908
0.475  20.128995
0.474  20.053128
0.473  19.985170
0.472  19.922515
0.471  19.868681
0.470  19.824657
0.469  19.782238
0.468  19.744053
0.467  19.716790
0.466  19.699612
0.465  19.672076
0.464  19.640524
0.463  19.604118
0.462  19.566659
0.461  19.519162
0.460  19.454421
0.459  19.408833
0.458  19.339598
0.457  19.279941
0.456  19.225493
0.455  19.188737
0.454  19.176555
0.453  19.163500
0.452  19.171783
0.451  19.194842
0.450  19.213397
0.449  19.213195
0.448  19.221352
0.447  19.212706
0.446  19.202863
0.445  19.176965
0.444  19.148045
0.443  19.103774
0.442  19.058941
0.441  19.015051
0.440  18.968799
0.439  18.897700
0.438  18.834414
0.437  18.758662
0.436  18.683340
0.435  18.603885
0.434  18.522289
0.433  18.435836
0.432  18.379262
0.431  18.297256
0.430  18.204201
0.429  18.110255
0.428  18.024961
0.427  17.931583
0.426  17.839930
0.425  17.750311
0.424  17.654053
0.423  17.553550
0.422  17.464547
0.421  17.364562
0.420  17.276587
0.419  17.182305
0.418  17.096042
0.417  16.998871
0.416  16.913752
0.415  16.820013
0.414  16.734602
0.413  16.644711
0.412  16.552852
0.411  16.469101
0.410  16.386677
0.409  16.308753
0.408  16.240814
0.407  16.179677
0.406  16.127039
0.405  16.082132
0.404  16.043484
0.403  16.008386
0.402  15.983731
0.401  15.963886
0.400  15.939232
