Name: Alunite KAl_3(SO_4)_2(OH)_6
Type: Mineral
Class: Sulfates
Subclass: 
Particle Size: 45-125um
Sample No.: SO-4A
Owner: JPL
Wavelength range: IR
Origin: USA, Utah
Collected by Ward's
Description: 





Measurement: Hemispherical reflectance
First Column: X
Second Column: Y
X Units:  Wavelength (micrometers)
Y Units:  Reflectance (percent)
First X Value: 15.3853
Last X Value: 2.00032
Number of X Values: 2256
Additional information: so04aa.txt
 
15.3853	5.43541
15.3397	4.40711
15.2945	3.90943
15.2495	3.87751
15.2048	4.37514
15.1603	5.28543
15.1161	6.16704
15.0722	7.25394
15.0285	8.29143
14.9851	9.08039
14.9419	10.0687
14.8989	11.2171
14.8563	12.3826
14.8138	13.6329
14.7716	14.7247
14.7296	15.7519
14.6879	16.9541
14.6464	17.9434
14.6052	18.3511
14.5641	18.6671
14.5233	19.2139
14.4828	19.3563
14.4424	19.318
14.4023	19.3885
14.3624	19.1832
14.3227	18.9614
14.2833	18.7945
14.244	18.2874
14.205	17.6747
14.1662	17.3269
14.1276	16.8495
14.0892	16.1185
14.051	15.2782
14.0131	14.3975
13.9753	13.1588
13.9377	11.6706
13.9004	10.2262
13.8632	9.05194
13.8262	7.79622
13.7895	6.60407
13.7529	5.66722
13.7165	4.81451
13.6803	4.06505
13.6443	3.30138
13.6085	2.65093
13.5729	2.28825
13.5374	2.00714
13.5022	1.63909
13.4671	1.22651
13.4322	0.898988
13.3975	0.762516
13.363	0.675457
13.3286	0.541192
13.2944	0.47043
13.2604	0.194318
13.2266	0.189346
13.193	0.44535
13.1595	0.541048
13.1262	0.558259
13.093	0.591951
13.06	0.557618
13.0272	0.501988
12.9946	0.472692
12.9621	0.477694
12.9298	0.461021
12.8976	0.41585
12.8656	0.466862
12.8337	0.525975
12.8021	0.702269
12.7705	0.894386
12.7391	0.991612
12.7079	0.963151
12.6769	0.911219
12.6459	0.935723
12.6152	0.90526
12.5845	0.821827
12.5541	0.756107
12.5238	0.845796
12.4936	0.928267
12.4635	0.938562
12.4337	1.11484
12.4039	1.19353
12.3743	1.06309
12.3448	1.04629
12.3155	1.06766
12.2863	1.01363
12.2573	1.07976
12.2284	1.34628
12.1996	1.50258
12.171	1.45799
12.1425	1.34126
12.1141	1.37222
12.0859	1.6009
12.0578	1.77202
12.0298	1.69888
12.0019	1.64889
11.9742	1.76303
11.9466	1.74798
11.9192	1.71365
11.8918	1.86875
11.8646	1.98221
11.8375	1.9556
11.8106	1.95003
11.7837	2.11858
11.757	2.21813
11.7304	2.27955
11.7039	2.28174
11.6776	2.30191
11.6513	2.24016
11.6252	2.14045
11.5992	2.20194
11.5733	2.3794
11.5475	2.59018
11.5219	2.66971
11.4963	2.48853
11.4709	2.39956
11.4455	2.47999
11.4203	2.58873
11.3952	2.59913
11.3702	2.54086
11.3454	2.54863
11.3206	2.58121
11.2959	2.64867
11.2714	2.6841
11.2469	2.7655
11.2226	2.68243
11.1983	2.60502
11.1742	2.65434
11.1502	2.87265
11.1263	2.96686
11.1024	2.83422
11.0787	2.82832
11.0551	2.86228
11.0316	2.87057
11.0081	2.93939
10.9848	3.01647
10.9616	3.09507
10.9385	3.05967
10.9154	3.22729
10.8925	3.35288
10.8697	3.34226
10.8469	3.41657
10.8243	3.35183
10.8017	3.33086
10.7793	3.39099
10.7569	3.41979
10.7346	3.40188
10.7125	3.50961
10.6904	3.51929
10.6684	3.52859
10.6465	3.56345
10.6247	3.66229
10.6029	3.68395
10.5813	3.68247
10.5597	3.79751
10.5383	3.81745
10.5169	3.8255
10.4956	3.84036
10.4744	3.82178
10.4533	3.93219
10.4323	4.05183
10.4113	4.11623
10.3904	4.1199
10.3697	4.07969
10.349	4.18353
10.3284	4.34015
10.3078	4.34557
10.2874	4.31607
10.267	4.29859
10.2467	4.32258
10.2265	4.35001
10.2064	4.31215
10.1863	4.38021
10.1663	4.53807
10.1464	4.65322
10.1266	4.67154
10.1069	4.79206
10.0872	4.92982
10.0676	4.91094
10.0481	4.84346
10.0287	4.93698
10.0093	5.02367
9.99005	5.09486
9.97084	5.16241
9.95169	5.14802
9.93263	5.26419
9.91364	5.36155
9.89472	5.581
9.87587	5.86483
9.8571	5.88235
9.83839	5.90317
9.81976	6.27025
9.80119	6.77245
9.78271	7.3165
9.76428	8.01991
9.74592	8.7082
9.72764	8.76851
9.70943	7.56403
9.69128	6.21186
9.6732	5.94454
9.65518	6.22873
9.63724	6.5106
9.61935	6.78219
9.60155	7.08577
9.5838	7.30914
9.56611	7.6635
9.5485	8.15002
9.53094	8.50679
9.51345	8.76617
9.49604	9.30611
9.47867	9.86918
9.46137	10.4106
9.44414	11.048
9.42697	11.6277
9.40986	12.3746
9.39281	13.4799
9.37583	14.7168
9.35891	16.2117
9.34204	18.1545
9.32524	20.6096
9.3085	22.9372
9.29182	24.721
9.27519	25.8833
9.25863	26.8238
9.24213	27.5749
9.22568	28.0557
9.2093	28.4518
9.19297	28.7694
9.17669	28.9662
9.16048	29.1514
9.14433	29.3633
9.12823	29.4402
9.11218	29.5555
9.0962	29.6282
9.08027	29.7573
9.06439	29.9192
9.04858	29.9304
9.03281	29.9044
9.0171	30.0083
9.00145	30.0932
8.98585	30.098
8.9703	30.1219
8.9548	30.0344
8.93937	29.8722
8.92398	29.6873
8.90865	29.4232
8.89337	29.1676
8.87814	28.7924
8.86296	28.3032
8.84784	27.8573
8.83277	27.5062
8.81774	27.1495
8.80277	26.5947
8.78786	26.0576
8.77298	25.479
8.75816	24.6807
8.7434	23.9318
8.72868	22.9734
8.714	21.9097
8.69938	20.5669
8.68481	18.9249
8.67029	17.069
8.65581	15.108
8.64139	13.7398
8.62701	14.1988
8.61268	16.7396
8.5984	19.6265
8.58416	21.0644
8.56997	20.8832
8.55583	19.5452
8.54174	17.5633
8.52769	15.2817
8.51368	12.9024
8.49973	10.7405
8.48582	9.16494
8.47195	7.87209
8.45813	6.74177
8.44436	5.97218
8.43062	5.47239
8.41693	4.96281
8.4033	4.36266
8.3897	3.94977
8.37614	3.65635
8.36264	3.33256
8.34917	2.98591
8.33574	2.62054
8.32236	2.44406
8.30903	2.41732
8.29573	2.42556
8.28248	2.36147
8.26927	2.34047
8.2561	2.31307
8.24298	2.17274
8.2299	2.183
8.21685	2.3208
8.20385	2.321
8.19089	2.41505
8.17797	2.43906
8.16509	2.4045
8.15225	2.51204
8.13946	2.58187
8.1267	2.59717
8.11398	2.60248
8.10131	2.5191
8.08867	2.56036
8.07606	2.65043
8.0635	2.80458
8.05099	2.93481
8.0385	3.05605
8.02606	3.2535
8.01366	3.4624
8.00129	3.59592
7.98896	3.72664
7.97667	3.8893
7.96442	3.99261
7.9522	4.08564
7.94002	4.16957
7.92788	4.23188
7.91578	4.32831
7.90371	4.38819
7.89168	4.33769
7.87969	4.30642
7.86773	4.25942
7.85581	4.04966
7.84392	3.76404
7.83207	3.46326
7.82026	3.08282
7.80849	2.76555
7.79674	2.38969
7.78503	2.00593
7.77337	1.72965
7.76173	1.51258
7.75012	1.23449
7.73856	0.900222
7.72703	0.704725
7.71553	0.587684
7.70406	0.53963
7.69263	0.547538
7.68123	0.555122
7.66987	0.571812
7.65855	0.588142
7.64725	0.471769
7.63598	0.455818
7.62475	0.510052
7.61356	0.519893
7.60239	0.463108
7.59126	0.382305
7.58017	0.379883
7.5691	0.463068
7.55806	0.531987
7.54707	0.552966
7.5361	0.573048
7.52516	0.624992
7.51425	0.605198
7.50338	0.655075
7.49253	0.726494
7.48172	0.755479
7.47094	0.887329
7.46019	0.895933
7.44947	0.81578
7.43879	0.896456
7.42813	1.05551
7.4175	1.10859
7.4069	1.03432
7.39634	0.999876
7.3858	1.06733
7.37529	1.15381
7.36482	1.21476
7.35437	1.21761
7.34396	1.28054
7.33357	1.39088
7.32321	1.38732
7.31288	1.42655
7.30258	1.49102
7.29231	1.5362
7.28207	1.4446
7.27185	1.47058
7.26167	1.62724
7.25152	1.68042
7.24139	1.63309
7.23129	1.71581
7.22122	1.76423
7.21117	1.68315
7.20116	1.5875
7.19117	1.6164
7.18121	1.80058
7.17128	2.00983
7.16137	2.056
7.1515	1.89503
7.14164	1.87275
7.13182	1.87119
7.12203	1.91843
7.11225	1.9222
7.10251	1.85985
7.0928	1.87099
7.08311	1.9015
7.07344	1.86616
7.06381	1.77711
7.0542	1.78278
7.04461	1.85238
7.03506	1.77778
7.02552	1.7647
7.01601	1.81455
7.00653	1.79378
6.99708	1.70837
6.98765	1.64921
6.97824	1.75491
6.96886	1.89285
6.95951	1.89276
6.95018	1.87011
6.94087	1.87986
6.9316	1.92584
6.92234	2.0304
6.91311	2.03151
6.90391	2.01293
6.89473	1.98209
6.88557	2.02994
6.87644	2.04067
6.86733	2.09351
6.85824	2.20371
6.84918	2.22413
6.84015	2.15126
6.83114	2.11429
6.82215	2.07639
6.81319	2.01031
6.80424	2.02148
6.79532	2.04628
6.78643	2.02734
6.77756	2.09974
6.76871	2.11809
6.75989	2.08314
6.75109	1.97551
6.74231	1.94561
6.73355	1.93593
6.72482	1.87411
6.71611	1.92227
6.70742	1.96799
6.69875	2.00866
6.69011	2.13534
6.68149	2.27578
6.67289	2.32486
6.66431	2.28304
6.65576	2.27888
6.64722	2.35975
6.63871	2.35017
6.63022	2.48704
6.62175	2.69155
6.61331	2.67689
6.60488	2.62939
6.59648	2.69602
6.5881	2.78919
6.57974	2.80349
6.5714	2.87195
6.56308	2.93282
6.55478	3.05887
6.54651	3.21587
6.53825	3.25383
6.53001	3.2839
6.5218	3.37763
6.51361	3.43014
6.50544	3.48684
6.49729	3.65018
6.48915	3.74491
6.48104	3.66145
6.47295	3.70923
6.46488	3.81941
6.45683	3.85018
6.4488	3.83712
6.44079	3.88605
6.4328	3.9395
6.42482	3.89325
6.41687	3.84947
6.40894	3.83561
6.40103	3.76836
6.39314	3.65802
6.38526	3.62633
6.37741	3.66214
6.36957	3.59376
6.36176	3.57233
6.35396	3.58861
6.34618	3.61172
6.33843	3.57469
6.33069	3.46879
6.32297	3.37987
6.31527	3.36588
6.30758	3.38108
6.29992	3.31246
6.29227	3.26638
6.28465	3.26784
6.27704	3.32909
6.26945	3.31947
6.26188	3.29795
6.25432	3.31903
6.24679	3.3021
6.23927	3.30855
6.23177	3.3216
6.22429	3.22314
6.21683	3.0566
6.20938	2.99423
6.20195	3.01764
6.19454	3.0167
6.18715	3.075
6.17978	2.97261
6.17242	2.84426
6.16508	2.85856
6.15776	2.78829
6.15045	2.65362
6.14317	2.64905
6.1359	2.63253
6.12864	2.56723
6.12141	2.65271
6.11419	2.72399
6.10699	2.70462
6.0998	2.67337
6.09263	2.712
6.08549	2.61687
6.07835	2.58625
6.07123	2.59891
6.06413	2.66013
6.05705	2.67361
6.04998	2.72831
6.04293	2.70464
6.0359	2.60376
6.02888	2.60729
6.02187	2.66611
6.01489	2.78815
6.00792	2.78809
6.00096	2.79803
5.99403	2.85156
5.98711	2.81138
5.9802	2.79627
5.97331	2.85307
5.96644	2.97886
5.95958	3.00002
5.95274	2.95298
5.94591	2.9637
5.9391	3.01171
5.9323	3.04378
5.92552	3.06965
5.91876	3.14574
5.91201	3.24364
5.90528	3.31757
5.89856	3.49396
5.89186	3.68278
5.88517	3.81405
5.8785	3.97042
5.87184	4.03088
5.8652	4.14782
5.85857	4.39345
5.85196	4.64098
5.84536	4.77725
5.83878	4.89036
5.83221	5.06846
5.82566	5.33023
5.81912	5.46705
5.81259	5.50801
5.80608	5.68628
5.79959	5.8466
5.79311	6.01052
5.78665	6.24521
5.78019	6.44727
5.77376	6.61492
5.76734	6.75011
5.76093	6.85631
5.75453	7.01476
5.74815	7.18053
5.74179	7.21448
5.73543	7.32665
5.7291	7.46588
5.72277	7.59319
5.71646	7.76179
5.71017	7.93095
5.70389	7.95051
5.69762	8.00308
5.69136	8.10239
5.68513	8.18654
5.6789	8.3581
5.67268	8.49479
5.66648	8.56653
5.6603	8.63197
5.65413	8.69602
5.64797	8.82676
5.64182	9.00929
5.63569	9.09049
5.62957	9.09114
5.62347	9.19049
5.61737	9.3057
5.61129	9.39122
5.60522	9.45671
5.59917	9.47454
5.59313	9.51724
5.5871	9.57842
5.58109	9.57899
5.57509	9.60993
5.5691	9.55729
5.56312	9.54582
5.55716	9.68978
5.55121	9.82098
5.54528	9.93899
5.53935	9.9849
5.53344	9.94937
5.52754	10.0167
5.52166	10.1018
5.51578	10.1897
5.50992	10.3778
5.50407	10.5666
5.49823	10.659
5.49241	10.8009
5.4866	11.0231
5.4808	11.2644
5.47501	11.5311
5.46923	11.7868
5.46347	12.0103
5.45772	12.1462
5.45198	12.3083
5.44625	12.5148
5.44054	12.6807
5.43484	12.8671
5.42914	13.1014
5.42347	13.3529
5.4178	13.4787
5.41214	13.5877
5.4065	13.7318
5.40087	13.7841
5.39525	13.8493
5.38964	13.9687
5.38404	14.0656
5.37846	14.1393
5.37288	14.232
5.36732	14.2817
5.36177	14.3149
5.35623	14.3643
5.35071	14.4184
5.34519	14.4189
5.33968	14.3401
5.33419	14.3786
5.32871	14.4009
5.32324	14.4476
5.31778	14.4654
5.31233	14.4705
5.30689	14.5094
5.30147	14.5052
5.29605	14.5968
5.29065	14.7844
5.28525	14.7699
5.27987	14.7882
5.2745	14.9159
5.26914	14.9337
5.26379	14.9624
5.25845	15.0613
5.25312	15.137
5.24781	15.2528
5.2425	15.353
5.23721	15.3993
5.23192	15.4443
5.22665	15.4551
5.22138	15.4976
5.21613	15.6078
5.21089	15.676
5.20566	15.6717
5.20044	15.6898
5.19522	15.6989
5.19002	15.6748
5.18483	15.6852
5.17965	15.7223
5.17448	15.7932
5.16933	15.8108
5.16418	15.8098
5.15904	15.8578
5.15391	15.8973
5.14879	15.9126
5.14368	15.9097
5.13859	15.9201
5.1335	15.9377
5.12842	16.0455
5.12335	16.1487
5.1183	16.1542
5.11325	16.1389
5.10821	16.1412
5.10318	16.2276
5.09817	16.2911
5.09316	16.324
5.08816	16.372
5.08317	16.4358
5.07819	16.4482
5.07322	16.4717
5.06826	16.446
5.06331	16.5036
5.05837	16.5819
5.05344	16.5826
5.04852	16.564
5.04361	16.6092
5.03871	16.6405
5.03382	16.6362
5.02894	16.6581
5.02406	16.6125
5.0192	16.5127
5.01435	16.5227
5.0095	16.6005
5.00467	16.6398
4.99984	16.5435
4.99502	16.4815
4.99021	16.4595
4.98542	16.375
4.98063	16.281
4.97585	16.2325
4.97108	16.1995
4.96632	16.1335
4.96156	16.1525
4.95682	16.1184
4.95209	16.0447
4.94736	16.0048
4.94264	15.8825
4.93794	15.6993
4.93324	15.5954
4.92855	15.4554
4.92387	15.2814
4.9192	15.0921
4.91453	14.8426
4.90988	14.6031
4.90524	14.2796
4.9006	13.9945
4.89597	13.6847
4.89135	13.289
4.88674	12.8126
4.88214	12.5118
4.87755	12.4812
4.87296	12.3684
4.86839	11.9406
4.86382	11.3929
4.85926	10.7419
4.85471	10.1304
4.85017	9.67639
4.84564	9.48721
4.84111	9.70061
4.8366	10.1134
4.83209	10.55
4.82759	10.8011
4.8231	10.823
4.81862	10.7623
4.81415	10.6444
4.80968	10.4234
4.80522	10.1478
4.80077	9.90347
4.79633	9.52922
4.7919	9.00771
4.78747	8.48812
4.78306	7.85346
4.77865	7.07235
4.77425	6.29066
4.76986	5.54156
4.76547	4.8816
4.7611	4.41156
4.75673	4.00853
4.75237	3.64212
4.74802	3.27878
4.74367	3.04089
4.73934	2.89718
4.73501	2.75391
4.73069	2.66186
4.72638	2.60132
4.72207	2.61559
4.71777	2.67531
4.71348	2.7487
4.7092	2.80227
4.70493	2.81448
4.70066	2.8401
4.69641	2.85474
4.69216	2.85108
4.68791	2.90113
4.68368	2.89897
4.67945	2.95546
4.67523	3.03991
4.67102	3.09977
4.66682	3.12099
4.66262	3.15507
4.65843	3.14714
4.65425	3.126
4.65007	3.05621
4.64591	2.9189
4.64175	2.79013
4.6376	2.72809
4.63345	2.68402
4.62932	2.58434
4.62519	2.52777
4.62106	2.48635
4.61695	2.39374
4.61284	2.34565
4.60874	2.33026
4.60465	2.23409
4.60056	2.19424
4.59648	2.21562
4.59241	2.28312
4.58835	2.25814
4.58429	2.26733
4.58024	2.29638
4.5762	2.26045
4.57216	2.32213
4.56814	2.40673
4.56411	2.4707
4.5601	2.49752
4.55609	2.53057
4.55209	2.52575
4.5481	2.50993
4.54411	2.53124
4.54013	2.48678
4.53616	2.48464
4.5322	2.54377
4.52824	2.5776
4.52429	2.63478
4.52034	2.62246
4.51641	2.57987
4.51247	2.61797
4.50855	2.66499
4.50463	2.62014
4.50072	2.53794
4.49682	2.50679
4.49292	2.54489
4.48903	2.54336
4.48515	2.66602
4.48127	2.8115
4.4774	2.84691
4.47354	2.82909
4.46968	2.86379
4.46584	2.89315
4.46199	2.7888
4.45815	2.6961
4.45432	2.76208
4.4505	2.90101
4.44668	2.99878
4.44287	3.0122
4.43907	3.06591
4.43527	3.08963
4.43148	3.0883
4.4277	3.12404
4.42392	3.16883
4.42015	3.27202
4.41638	3.29959
4.41262	3.36227
4.40887	3.29722
4.40513	3.23623
4.40139	3.28699
4.39765	3.34585
4.39393	3.36908
4.39021	3.29237
4.38649	3.19272
4.38278	3.19641
4.37908	3.23183
4.37539	3.19813
4.3717	3.07935
4.36801	3.04114
4.36434	3.0983
4.36067	3.20729
4.357	3.1893
4.35335	3.1314
4.34969	3.1772
4.34605	3.27288
4.34241	3.38428
4.33877	3.46333
4.33514	3.441
4.33152	3.52123
4.32791	3.60865
4.3243	3.69073
4.32069	3.93168
4.3171	4.06734
4.31351	4.16646
4.30992	4.35513
4.30634	4.53251
4.30277	4.62562
4.2992	4.60757
4.29564	4.73262
4.29208	4.88961
4.28853	4.93628
4.28499	4.9714
4.28145	5.05534
4.27792	5.10631
4.27439	5.12861
4.27087	5.23663
4.26735	5.3164
4.26384	5.35254
4.26034	5.36917
4.25684	5.49688
4.25335	5.6265
4.24986	5.7112
4.24638	5.80829
4.24291	5.88151
4.23944	5.89667
4.23598	5.98216
4.23252	6.14495
4.22906	6.23458
4.22562	6.28724
4.22218	6.32945
4.21874	6.4345
4.21531	6.57471
4.21189	6.66635
4.20847	6.66586
4.20506	6.65076
4.20165	6.64769
4.19825	6.75753
4.19485	6.92626
4.19146	6.93212
4.18807	6.83633
4.18469	6.76339
4.18132	6.76233
4.17795	6.83744
4.17458	6.87952
4.17123	6.85327
4.16787	6.8899
4.16453	6.93132
4.16118	6.88848
4.15785	6.79715
4.15451	6.79452
4.15119	6.75773
4.14787	6.72292
4.14455	6.7246
4.14124	6.80122
4.13794	6.78337
4.13464	6.70234
4.13134	6.7315
4.12805	6.80118
4.12477	6.7949
4.12149	6.74444
4.11822	6.73284
4.11495	6.77816
4.11168	6.84819
4.10843	6.84747
4.10517	6.88292
4.10192	6.95048
4.09868	6.93997
4.09545	6.80329
4.09221	6.81719
4.08899	6.9578
4.08576	7.09682
4.08255	7.16995
4.07933	7.07126
4.07613	7.07518
4.07292	7.10446
4.06973	7.07979
4.06654	7.10949
4.06335	7.09538
4.06017	7.08566
4.05699	7.18183
4.05382	7.25563
4.05065	7.23827
4.04749	7.16581
4.04433	7.18395
4.04118	7.21016
4.03803	7.26904
4.03489	7.34305
4.03175	7.37401
4.02862	7.35805
4.02549	7.3376
4.02237	7.38004
4.01925	7.43842
4.01614	7.41256
4.01303	7.41139
4.00993	7.52043
4.00683	7.51701
4.00373	7.49114
4.00064	7.46815
3.99756	7.4877
3.99448	7.60042
3.9914	7.62526
3.98833	7.5574
3.98527	7.56107
3.98221	7.5613
3.97915	7.56072
3.9761	7.57097
3.97305	7.52481
3.97001	7.61068
3.96697	7.69695
3.96394	7.71096
3.96091	7.74988
3.95789	7.72236
3.95487	7.63332
3.95186	7.6424
3.94885	7.71442
3.94584	7.74793
3.94284	7.78704
3.93984	7.76836
3.93685	7.75012
3.93386	7.79772
3.93088	7.77775
3.9279	7.78755
3.92493	7.84315
3.92196	7.86138
3.919	7.84489
3.91604	7.80649
3.91308	7.78953
3.91013	7.87481
3.90718	7.97429
3.90424	7.95156
3.9013	7.90559
3.89837	7.86578
3.89544	7.85056
3.89252	7.97251
3.8896	7.9838
3.88668	7.81627
3.88377	7.70367
3.88086	7.71217
3.87796	7.63859
3.87506	7.39769
3.87217	7.29228
3.86928	7.3889
3.86639	7.53265
3.86351	7.75127
3.86064	8.00031
3.85776	8.05696
3.8549	7.95034
3.85203	7.94831
3.84917	7.97619
3.84631	7.95233
3.84346	7.93628
3.84062	7.91567
3.83777	7.8971
3.83494	7.8738
3.8321	7.91024
3.82927	7.94071
3.82644	8.01318
3.82362	8.01061
3.82081	7.93021
3.81799	7.96488
3.81518	7.97857
3.81238	7.95547
3.80958	7.95518
3.80678	7.91771
3.80399	7.75184
3.8012	7.65523
3.79841	7.69385
3.79563	7.63957
3.79286	7.64574
3.79008	7.74014
3.78731	7.67904
3.78455	7.65162
3.78179	7.67871
3.77903	7.57119
3.77628	7.58121
3.77353	7.60885
3.77079	7.49255
3.76805	7.37648
3.76531	7.36921
3.76258	7.38186
3.75985	7.33014
3.75713	7.36141
3.7544	7.41809
3.75169	7.3746
3.74898	7.30916
3.74627	7.24963
3.74356	7.17581
3.74086	7.11557
3.73816	7.03842
3.73547	6.97856
3.73278	7.00962
3.7301	7.09709
3.72741	7.02598
3.72474	6.84515
3.72206	6.76975
3.71939	6.75851
3.71673	6.7469
3.71406	6.7421
3.71141	6.64689
3.70875	6.55771
3.7061	6.59748
3.70345	6.60402
3.70081	6.53404
3.69817	6.43701
3.69553	6.39429
3.6929	6.42392
3.69027	6.2829
3.68765	6.1686
3.68503	6.19233
3.68241	6.16295
3.6798	6.08994
3.67719	6.0917
3.67458	6.06214
3.67198	6.02463
3.66938	6.1082
3.66678	6.10774
3.66419	6.04181
3.66161	5.97424
3.65902	5.81999
3.65644	5.72598
3.65387	5.77315
3.65129	5.79848
3.64872	5.77455
3.64616	5.63015
3.64359	5.57048
3.64103	5.51663
3.63848	5.54429
3.63593	5.53908
3.63338	5.42165
3.63084	5.38157
3.6283	5.33424
3.62576	5.29165
3.62322	5.23676
3.62069	5.2529
3.61817	5.22121
3.61564	5.04858
3.61312	5.03783
3.61061	5.13327
3.6081	5.10426
3.60559	5.0385
3.60308	4.94414
3.60058	4.8957
3.59808	4.86632
3.59558	4.8248
3.59309	4.85225
3.59061	4.96097
3.58812	4.90001
3.58564	4.71268
3.58316	4.66657
3.58069	4.63298
3.57822	4.61489
3.57575	4.66028
3.57328	4.63264
3.57082	4.55388
3.56836	4.51111
3.56591	4.45626
3.56346	4.5266
3.56101	4.51937
3.55857	4.44295
3.55613	4.36747
3.55369	4.28637
3.55126	4.29331
3.54883	4.25531
3.5464	4.18228
3.54397	4.20313
3.54155	4.21998
3.53914	4.14586
3.53672	4.12536
3.53431	4.07813
3.5319	4.08481
3.5295	4.07174
3.5271	4.01229
3.5247	3.96967
3.52231	3.92824
3.51991	3.9905
3.51753	3.98346
3.51514	3.82715
3.51276	3.79606
3.51038	3.83781
3.50801	3.77749
3.50563	3.7248
3.50327	3.72248
3.5009	3.82179
3.49854	3.84834
3.49618	3.77017
3.49382	3.69215
3.49147	3.66642
3.48912	3.71783
3.48677	3.70656
3.48443	3.73274
3.48209	3.73258
3.47975	3.70051
3.47742	3.65344
3.47509	3.50327
3.47276	3.43692
3.47044	3.52916
3.46812	3.53063
3.4658	3.51072
3.46348	3.55889
3.46117	3.53193
3.45886	3.44898
3.45656	3.50558
3.45425	3.55568
3.45195	3.45354
3.44966	3.43399
3.44736	3.44492
3.44507	3.31519
3.44279	3.17209
3.4405	3.24429
3.43822	3.35821
3.43594	3.333
3.43367	3.27238
3.43139	3.20591
3.42912	3.25349
3.42686	3.26927
3.42459	3.15207
3.42233	3.0568
3.42007	3.04277
3.41782	3.14263
3.41557	3.21725
3.41332	3.16443
3.41108	3.10545
3.40883	3.08495
3.40659	3.02025
3.40435	2.91347
3.40212	2.99043
3.39989	3.11487
3.39766	3.12487
3.39544	3.03266
3.39322	3.0147
3.391	3.13893
3.38878	3.10655
3.38657	3.03988
3.38436	3.00423
3.38215	2.87486
3.37994	2.85645
3.37774	2.87018
3.37554	2.91237
3.37335	2.95601
3.37115	2.90202
3.36896	2.85756
3.36678	3.01638
3.36459	3.11777
3.36241	3.01437
3.36023	2.95243
3.35805	2.8824
3.35588	2.74682
3.35371	2.81004
3.35154	2.8283
3.34938	2.75461
3.34721	2.77676
3.34505	2.82558
3.3429	2.88666
3.34074	2.84531
3.33859	2.77696
3.33644	2.85186
3.3343	2.83042
3.33215	2.69268
3.33001	2.65863
3.32788	2.6952
3.32574	2.7422
3.32361	2.80986
3.32148	2.80784
3.31936	2.82889
3.31723	2.69747
3.31511	2.55682
3.31299	2.59537
3.31088	2.61153
3.30876	2.66259
3.30665	2.68332
3.30455	2.64873
3.30244	2.71324
3.30034	2.79891
3.29824	2.69834
3.29614	2.66425
3.29405	2.70325
3.29196	2.66956
3.28987	2.66709
3.28778	2.67732
3.2857	2.62569
3.28362	2.60533
3.28154	2.67816
3.27946	2.76717
3.27739	2.76297
3.27532	2.64158
3.27325	2.58534
3.27119	2.59411
3.26913	2.58818
3.26707	2.56453
3.26501	2.59923
3.26295	2.61579
3.2609	2.6368
3.25885	2.61349
3.2568	2.51891
3.25476	2.55597
3.25272	2.65022
3.25068	2.70215
3.24864	2.68334
3.24661	2.6765
3.24458	2.66479
3.24255	2.77263
3.24052	2.83981
3.2385	2.72308
3.23648	2.5568
3.23446	2.50993
3.23244	2.51161
3.23043	2.49947
3.22841	2.48741
3.2264	2.45444
3.2244	2.58927
3.22239	2.65219
3.22039	2.62951
3.21839	2.67152
3.2164	2.70645
3.2144	2.65302
3.21241	2.51819
3.21042	2.58528
3.20844	2.65316
3.20645	2.53757
3.20447	2.47473
3.20249	2.548
3.20051	2.61205
3.19854	2.66993
3.19657	2.64942
3.1946	2.56057
3.19263	2.48651
3.19067	2.52396
3.1887	2.66306
3.18674	2.61
3.18479	2.57763
3.18283	2.55871
3.18088	2.47263
3.17893	2.45159
3.17698	2.49608
3.17504	2.5331
3.17309	2.58066
3.17115	2.56533
3.16921	2.47011
3.16728	2.46635
3.16534	2.43122
3.16341	2.38925
3.16148	2.55266
3.15956	2.60624
3.15763	2.51779
3.15571	2.47727
3.15379	2.5856
3.15187	2.61357
3.14996	2.52953
3.14805	2.54275
3.14614	2.54346
3.14423	2.48862
3.14232	2.38466
3.14042	2.39335
3.13852	2.49411
3.13662	2.49831
3.13472	2.55091
3.13283	2.59072
3.13094	2.50846
3.12905	2.46487
3.12716	2.41347
3.12528	2.40916
3.12339	2.49647
3.12151	2.52088
3.11964	2.50274
3.11776	2.52715
3.11589	2.48093
3.11401	2.50169
3.11214	2.47012
3.11028	2.35382
3.10841	2.43267
3.10655	2.47165
3.10469	2.46561
3.10283	2.58038
3.10098	2.51956
3.09912	2.48018
3.09727	2.42263
3.09542	2.4264
3.09358	2.5042
3.09173	2.54814
3.08989	2.51074
3.08805	2.44518
3.08621	2.38627
3.08437	2.3794
3.08254	2.44392
3.08071	2.45408
3.07888	2.45385
3.07705	2.40874
3.07523	2.39667
3.0734	2.46281
3.07158	2.42141
3.06977	2.24981
3.06795	2.35
3.06613	2.44267
3.06432	2.52447
3.06251	2.52415
3.0607	2.43783
3.0589	2.56899
3.0571	2.66823
3.05529	2.52087
3.05349	2.55822
3.0517	2.56076
3.0499	2.47285
3.04811	2.50267
3.04632	2.4876
3.04453	2.51426
3.04274	2.43296
3.04096	2.43414
3.03918	2.44264
3.0374	2.41753
3.03562	2.46106
3.03384	2.43697
3.03207	2.50459
3.03029	2.57283
3.02852	2.54462
3.02676	2.54857
3.02499	2.57041
3.02323	2.61697
3.02146	2.59704
3.0197	2.62327
3.01795	2.603
3.01619	2.42304
3.01444	2.44575
3.01269	2.59588
3.01094	2.61027
3.00919	2.61455
3.00744	2.53314
3.0057	2.4867
3.00396	2.44549
3.00222	2.52476
3.00048	2.58644
2.99875	2.56368
2.99701	2.50946
2.99528	2.65223
2.99355	2.79091
2.99183	2.66976
2.9901	2.56277
2.98838	2.60123
2.98666	2.59619
2.98494	2.52468
2.98322	2.46921
2.9815	2.44688
2.97979	2.53782
2.97808	2.63772
2.97637	2.57086
2.97466	2.54758
2.97295	2.58193
2.97125	2.61697
2.96955	2.57976
2.96785	2.50156
2.96615	2.54389
2.96446	2.55515
2.96276	2.60437
2.96107	2.71199
2.95938	2.72836
2.95769	2.63871
2.95601	2.59634
2.95432	2.52287
2.95264	2.63679
2.95096	2.6117
2.94928	2.56797
2.9476	2.66641
2.94593	2.58396
2.94425	2.43114
2.94258	2.43394
2.94092	2.57185
2.93925	2.72954
2.93758	2.86482
2.93592	2.86756
2.93426	2.94242
2.9326	2.9834
2.93094	2.937
2.92928	2.78763
2.92763	2.67756
2.92598	2.80243
2.92433	3.02034
2.92268	2.91245
2.92103	2.81345
2.91939	2.93413
2.91775	2.94416
2.9161	2.93942
2.91447	3.01221
2.91283	2.97595
2.91119	3.03732
2.90956	3.24509
2.90793	3.37816
2.9063	3.43447
2.90467	3.38412
2.90304	3.34493
2.90142	3.44027
2.89979	3.53253
2.89817	3.48876
2.89656	3.43015
2.89494	3.55979
2.89332	3.80864
2.89171	4.04786
2.8901	4.10738
2.88849	4.1778
2.88688	4.40145
2.88527	4.58605
2.88367	4.87911
2.88206	5.20806
2.88046	5.51632
2.87886	5.91328
2.87727	6.50782
2.87567	7.1926
2.87408	8.00436
2.87248	9.18572
2.87089	10.5227
2.8693	11.5988
2.86772	12.2595
2.86613	12.3542
2.86455	11.523
2.86297	9.80379
2.86139	7.37386
2.85981	4.86278
2.85823	3.1188
2.85666	2.12835
2.85508	1.73196
2.85351	1.78582
2.85194	1.90813
2.85038	1.99651
2.84881	2.24713
2.84724	2.58617
2.84568	2.81433
2.84412	2.84806
2.84256	2.60229
2.841	2.32775
2.83945	2.05144
2.83789	1.67597
2.83634	1.09776
2.83479	0.681321
2.83324	0.695023
2.83169	0.835385
2.83015	0.759754
2.82861	0.754893
2.82706	0.833707
2.82552	0.786722
2.82398	0.71516
2.82245	0.726788
2.82091	0.941231
2.81938	1.09849
2.81784	1.2111
2.81631	1.29305
2.81479	1.29331
2.81326	1.16916
2.81173	1.20226
2.81021	1.30819
2.80869	1.29706
2.80716	1.34902
2.80565	1.3785
2.80413	1.3715
2.80261	1.52365
2.8011	1.64615
2.79959	1.6039
2.79808	1.62128
2.79657	1.57074
2.79506	1.47804
2.79355	1.60606
2.79205	1.73878
2.79055	1.6958
2.78904	1.6807
2.78754	1.71603
2.78605	1.85449
2.78455	1.92632
2.78306	1.91469
2.78156	1.84494
2.78007	1.82496
2.77858	2.03022
2.77709	2.08641
2.77561	2.19714
2.77412	2.31916
2.77264	2.34705
2.77116	2.39379
2.76968	2.41769
2.7682	2.56322
2.76672	2.84571
2.76524	3.00957
2.76377	3.18821
2.7623	3.46754
2.76083	3.7778
2.75936	3.8857
2.75789	4.16501
2.75642	4.5213
2.75496	4.83034
2.7535	5.14107
2.75203	5.24967
2.75057	5.28777
2.74912	5.54438
2.74766	5.64769
2.7462	5.86657
2.74475	6.11399
2.7433	6.42384
2.74185	6.77831
2.7404	7.33308
2.73895	7.9066
2.7375	8.28556
2.73606	8.78121
2.73462	9.29252
2.73318	9.80018
2.73174	10.2861
2.7303	10.7159
2.72886	11.012
2.72742	11.3962
2.72599	12.0158
2.72456	12.4368
2.72313	12.5612
2.7217	12.8135
2.72027	13.231
2.71884	13.7477
2.71742	14.3046
2.71599	14.8109
2.71457	15.5164
2.71315	16.1934
2.71173	16.9848
2.71032	17.5674
2.7089	17.9297
2.70748	18.142
2.70607	18.4621
2.70466	18.9026
2.70325	19.4081
2.70184	19.9902
2.70043	20.1937
2.69903	20.3723
2.69762	20.6917
2.69622	21.0455
2.69482	21.3507
2.69342	21.3387
2.69202	21.1045
2.69062	20.7988
2.68923	20.475
2.68783	20.3687
2.68644	20.3255
2.68505	20.1722
2.68366	20.0658
2.68227	19.881
2.68089	19.7691
2.6795	19.9825
2.67812	20.1754
2.67673	20.3872
2.67535	20.6512
2.67397	20.9131
2.6726	21.3631
2.67122	22.0549
2.66984	22.5277
2.66847	22.5279
2.6671	22.6282
2.66572	22.7699
2.66435	22.9435
2.66299	22.9399
2.66162	22.9184
2.66025	22.8945
2.65889	23.1473
2.65753	23.5583
2.65616	24.0963
2.65481	24.7764
2.65345	25.4233
2.65209	26.2181
2.65073	26.9924
2.64938	27.5669
2.64803	28.0575
2.64667	28.562
2.64532	28.977
2.64397	29.2193
2.64263	29.2483
2.64128	29.0426
2.63994	28.6805
2.63859	28.3622
2.63725	28.2629
2.63591	28.2353
2.63457	28.3113
2.63323	28.108
2.6319	27.5978
2.63056	27.2122
2.62923	27.0171
2.62789	26.9082
2.62656	26.8368
2.62523	26.6763
2.6239	26.4951
2.62258	26.3808
2.62125	26.4613
2.61993	26.4265
2.6186	26.3523
2.61728	26.3264
2.61596	26.0643
2.61464	25.7759
2.61332	25.4512
2.61201	24.9628
2.61069	24.586
2.60938	24.3453
2.60807	24.1329
2.60675	24.1431
2.60544	24.3111
2.60414	24.2552
2.60283	24.2458
2.60152	24.1683
2.60022	24.1501
2.59891	24.1531
2.59761	24.1046
2.59631	23.7584
2.59501	23.3342
2.59371	22.8184
2.59242	22.095
2.59112	21.5052
2.58983	21.0664
2.58853	20.6053
2.58724	20.3262
2.58595	20.1742
2.58466	20.2016
2.58338	20.3871
2.58209	20.3421
2.5808	20.2572
2.57952	20.3038
2.57824	20.3981
2.57695	20.4642
2.57567	20.7791
2.5744	20.9519
2.57312	20.8517
2.57184	20.8793
2.57057	20.9421
2.56929	20.7828
2.56802	20.6163
2.56675	20.5801
2.56548	20.4226
2.56421	20.3241
2.56294	20.2917
2.56168	20.3379
2.56041	20.3682
2.55915	20.4657
2.55789	20.5923
2.55662	20.8544
2.55536	21.1249
2.5541	21.4305
2.55285	21.6616
2.55159	21.7041
2.55034	21.5347
2.54908	21.3744
2.54783	21.2711
2.54658	21.2192
2.54533	21.1299
2.54408	20.896
2.54283	20.6359
2.54159	20.225
2.54034	19.8702
2.5391	19.734
2.53785	19.3256
2.53661	18.961
2.53537	18.8675
2.53413	18.9696
2.53289	18.9763
2.53166	18.7627
2.53042	18.36
2.52919	17.9112
2.52795	17.4212
2.52672	16.8385
2.52549	16.0445
2.52426	15.3047
2.52303	14.6313
2.52181	14.0307
2.52058	13.3707
2.51936	12.7455
2.51813	12.3033
2.51691	11.9882
2.51569	11.8027
2.51447	11.7134
2.51325	11.8309
2.51203	11.9221
2.51082	11.9046
2.5096	12.2611
2.50839	12.8928
2.50717	13.4488
2.50596	14.0443
2.50475	14.8011
2.50354	15.3923
2.50233	15.9478
2.50113	16.6509
2.49992	17.3141
2.49872	17.7481
2.49751	18.0487
2.49631	18.4337
2.49511	18.9184
2.49391	19.3448
2.49271	19.7465
2.49151	20.3095
2.49031	20.9431
2.48912	21.5742
2.48792	22.1406
2.48673	22.6016
2.48554	22.8915
2.48435	23.1555
2.48316	23.2934
2.48197	23.1745
2.48078	22.8907
2.4796	22.5918
2.47841	22.2513
2.47723	21.8873
2.47604	21.4507
2.47486	21.0907
2.47368	20.6462
2.4725	20.0493
2.47132	19.6646
2.47014	19.4122
2.46897	19.1964
2.46779	19.0505
2.46662	19.0552
2.46545	19.2339
2.46427	19.5312
2.4631	19.9976
2.46193	20.4287
2.46077	20.9005
2.4596	21.5017
2.45843	22.0286
2.45727	22.426
2.4561	22.6567
2.45494	22.8783
2.45378	22.9419
2.45262	22.8135
2.45146	22.8876
2.4503	23.075
2.44914	23.1533
2.44799	23.0532
2.44683	22.9628
2.44568	22.9357
2.44452	22.685
2.44337	22.4494
2.44222	22.0944
2.44107	21.7719
2.43992	21.436
2.43877	20.9114
2.43763	20.5041
2.43648	20.1837
2.43534	19.837
2.43419	19.6304
2.43305	19.468
2.43191	19.4728
2.43077	19.5842
2.42963	19.9602
2.42849	20.4364
2.42736	20.7967
2.42622	21.0857
2.42509	21.5446
2.42395	21.8444
2.42282	22.1557
2.42169	22.5198
2.42056	23.0018
2.41943	23.3936
2.4183	23.6622
2.41717	23.9375
2.41605	24.3983
2.41492	24.9051
2.4138	25.3765
2.41267	25.6942
2.41155	25.8577
2.41043	26.2344
2.40931	26.619
2.40819	26.7706
2.40707	26.9576
2.40595	27.0251
2.40484	26.9404
2.40372	26.8267
2.40261	26.704
2.4015	26.6741
2.40039	26.6967
2.39928	26.8394
2.39817	26.9204
2.39706	26.9811
2.39595	27.0892
2.39484	27.312
2.39374	27.6308
2.39263	27.9636
2.39153	28.3535
2.39043	28.7715
2.38932	29.3578
2.38822	29.9754
2.38712	30.606
2.38603	31.3917
2.38493	32.2986
2.38383	33.1469
2.38274	34.1193
2.38164	35.0436
2.38055	35.8309
2.37946	36.683
2.37836	37.553
2.37727	38.3674
2.37618	39.0981
2.3751	39.7209
2.37401	40.4277
2.37292	40.994
2.37184	41.5342
2.37075	42.1764
2.36967	42.6705
2.36859	43.011
2.3675	43.3331
2.36642	43.7553
2.36534	44.03
2.36427	44.1471
2.36319	44.3697
2.36211	44.7473
2.36104	45.0968
2.35996	45.2047
2.35889	45.2316
2.35781	45.2031
2.35674	45.2644
2.35567	45.3608
2.3546	45.4245
2.35353	45.4375
2.35247	45.4135
2.3514	45.2774
2.35033	45.2406
2.34927	45.3006
2.3482	45.2486
2.34714	45.1332
2.34608	44.948
2.34502	44.7447
2.34396	44.4716
2.3429	44.0563
2.34184	43.7323
2.34078	43.5101
2.33973	43.1291
2.33867	42.6133
2.33762	41.9696
2.33656	41.2994
2.33551	40.6187
2.33446	39.9589
2.33341	39.2691
2.33236	38.8024
2.33131	38.2059
2.33026	37.7783
2.32922	37.3592
2.32817	36.8634
2.32712	36.259
2.32608	35.5297
2.32504	35.0248
2.324	34.6204
2.32295	34.1835
2.32191	33.8713
2.32087	33.7678
2.31984	33.6633
2.3188	33.6801
2.31776	34.0282
2.31673	34.6273
2.31569	35.2718
2.31466	35.8864
2.31362	36.6773
2.31259	37.5656
2.31156	38.5506
2.31053	39.6134
2.3095	40.598
2.30847	41.7361
2.30745	42.8488
2.30642	43.8424
2.3054	44.8536
2.30437	45.7244
2.30335	46.4008
2.30232	46.9205
2.3013	47.3676
2.30028	47.9131
2.29926	48.4396
2.29824	48.8829
2.29722	49.3509
2.29621	49.6435
2.29519	49.823
2.29417	49.8919
2.29316	50.0856
2.29215	50.5321
2.29113	50.7896
2.29012	50.888
2.28911	51.0261
2.2881	51.1859
2.28709	51.3528
2.28608	51.512
2.28507	51.6403
2.28407	51.7278
2.28306	51.8288
2.28206	51.9058
2.28105	51.9665
2.28005	52.0396
2.27905	52.1945
2.27805	52.3376
2.27705	52.2209
2.27605	52.0895
2.27505	52.2119
2.27405	52.452
2.27305	52.476
2.27206	52.4561
2.27106	52.5917
2.27007	52.5551
2.26907	52.5819
2.26808	52.8002
2.26709	52.7572
2.2661	52.7333
2.26511	52.8575
2.26412	52.8918
2.26313	52.7741
2.26214	52.6081
2.26116	52.5211
2.26017	52.7106
2.25919	52.8546
2.2582	52.8936
2.25722	52.7815
2.25624	52.8179
2.25526	52.9826
2.25428	53.1692
2.2533	53.0955
2.25232	52.9449
2.25134	53.1215
2.25036	53.0538
2.24939	52.8885
2.24841	52.9273
2.24744	52.9396
2.24646	52.8962
2.24549	52.8961
2.24452	52.9258
2.24355	52.7539
2.24257	52.46
2.24161	52.2624
2.24064	52.1996
2.23967	52.0607
2.2387	51.7025
2.23774	51.4958
2.23677	51.4227
2.23581	51.2706
2.23484	51.0041
2.23388	50.7682
2.23292	50.5865
2.23196	50.3782
2.231	50.0807
2.23004	49.6493
2.22908	49.1172
2.22812	48.6017
2.22716	48.0754
2.22621	47.5303
2.22525	46.8219
2.2243	45.9149
2.22334	44.7413
2.22239	43.4088
2.22144	42.0732
2.22049	40.5858
2.21953	38.8515
2.21859	37.4182
2.21764	36.1637
2.21669	34.9298
2.21574	33.7972
2.21479	32.3971
2.21385	30.8682
2.2129	29.5016
2.21196	28.4364
2.21102	27.7913
2.21007	27.5552
2.20913	27.6457
2.20819	27.9263
2.20725	28.2404
2.20631	28.5916
2.20537	29.2062
2.20444	30.1534
2.2035	31.389
2.20256	32.6489
2.20163	33.6713
2.20069	34.2126
2.19976	34.4039
2.19883	34.3452
2.19789	33.886
2.19696	33.0713
2.19603	31.8788
2.1951	30.5826
2.19417	29.4515
2.19325	28.5516
2.19232	27.7468
2.19139	27.2395
2.19047	27.164
2.18954	27.0423
2.18862	26.6674
2.18769	26.2801
2.18677	25.7929
2.18585	25.3083
2.18493	24.6724
2.18401	23.9193
2.18309	23.3909
2.18217	23.1502
2.18125	22.9539
2.18033	22.7969
2.17942	23.0703
2.1785	23.4423
2.17759	23.5276
2.17667	23.7761
2.17576	24.0562
2.17485	24.0009
2.17393	23.9732
2.17302	23.9575
2.17211	23.6409
2.1712	23.0535
2.17029	22.6339
2.16939	22.5338
2.16848	22.3271
2.16757	22.2012
2.16667	22.4508
2.16576	22.6869
2.16486	22.9901
2.16395	23.1964
2.16305	23.0874
2.16215	22.9575
2.16125	22.8436
2.16035	22.6526
2.15945	22.4574
2.15855	22.4637
2.15765	22.4889
2.15675	22.4168
2.15586	22.4251
2.15496	22.6595
2.15406	23.0052
2.15317	23.4908
2.15228	23.8668
2.15138	24.2047
2.15049	24.6699
2.1496	25.1037
2.14871	25.3684
2.14782	25.5947
2.14693	25.8357
2.14604	25.9681
2.14515	25.973
2.14427	26.0009
2.14338	26.2937
2.14249	26.3606
2.14161	26.4274
2.14072	26.8943
2.13984	27.2529
2.13896	27.4795
2.13808	27.789
2.13719	28.2391
2.13631	28.5353
2.13543	28.821
2.13455	28.8674
2.13368	28.9472
2.1328	29.1515
2.13192	29.304
2.13105	29.4231
2.13017	29.6305
2.1293	30.0051
2.12842	30.2824
2.12755	30.5769
2.12668	30.8756
2.1258	31.2266
2.12493	31.6456
2.12406	32.1011
2.12319	32.6277
2.12232	33.395
2.12145	33.9183
2.12059	34.3058
2.11972	34.7546
2.11885	35.1926
2.11799	35.9058
2.11712	36.4364
2.11626	36.9195
2.1154	37.5616
2.11453	38.0116
2.11367	38.3059
2.11281	38.8587
2.11195	39.1175
2.11109	39.4923
2.11023	40.0702
2.10937	40.5364
2.10851	40.9744
2.10766	41.5159
2.1068	41.958
2.10594	42.0599
2.10509	42.0142
2.10423	42.3165
2.10338	42.893
2.10253	43.3154
2.10168	43.4984
2.10082	43.6498
2.09997	43.9016
2.09912	44.0442
2.09827	44.0238
2.09742	44.0876
2.09658	44.0439
2.09573	44.2325
2.09488	44.883
2.09404	45.1967
2.09319	45.2504
2.09235	45.4305
2.0915	45.5189
2.09066	45.4064
2.08982	45.2698
2.08897	45.4807
2.08813	45.6357
2.08729	45.6515
2.08645	46.052
2.08561	46.2381
2.08477	46.2435
2.08394	46.187
2.0831	46.1909
2.08226	46.3647
2.08143	46.5552
2.08059	46.6422
2.07976	46.3396
2.07892	46.383
2.07809	46.5971
2.07726	46.5146
2.07643	46.264
2.07559	46.1947
2.07476	46.2016
2.07393	46.2872
2.0731	46.2054
2.07228	45.8697
2.07145	45.9515
2.07062	46.0296
2.06979	46.1417
2.06897	45.937
2.06814	45.8986
2.06732	46.2384
2.06649	46.3675
2.06567	46.4463
2.06485	46.0506
2.06403	45.6838
2.0632	45.7458
2.06238	45.6876
2.06156	46.0957
2.06074	46.3025
2.05993	46.3829
2.05911	46.3442
2.05829	46.1355
2.05747	46.1824
2.05666	46.4361
2.05584	46.5534
2.05503	46.4242
2.05421	46.2531
2.0534	46.5588
2.05259	46.9584
2.05177	46.7762
2.05096	46.7477
2.05015	47.0504
2.04934	47.0913
2.04853	46.8124
2.04772	47.0122
2.04691	47.3245
2.04611	47.3852
2.0453	47.5281
2.04449	47.6768
2.04369	47.8621
2.04288	48.0552
2.04208	47.8528
2.04127	47.6776
2.04047	47.8873
2.03967	48.0681
2.03886	48.1235
2.03806	48.152
2.03726	48.0885
2.03646	48.1816
2.03566	48.3727
2.03486	48.5354
2.03407	48.6053
2.03327	48.5143
2.03247	48.5693
2.03167	48.7515
2.03088	48.8575
2.03008	48.9449
2.02929	49.227
2.0285	49.128
2.0277	49.075
2.02691	49.3486
2.02612	49.2002
2.02533	49.1163
2.02453	49.1707
2.02374	48.9735
2.02295	49.0236
2.02217	49.1594
2.02138	49.3473
2.02059	49.4099
2.0198	49.2838
2.01902	49.1478
2.01823	49.1087
2.01744	48.9911
2.01666	49.141
2.01588	49.158
2.01509	48.7297
2.01431	48.5829
2.01353	48.7304
2.01275	48.9796
2.01196	49.2189
2.01118	49.0363
2.0104	48.5981
2.00963	48.7022
2.00885	49.2706
2.00807	49.2937
2.00729	49.0178
2.00651	49.1314
2.00574	49.5254
2.00496	49.5376
2.00419	49.4911
2.00341	49.7648
2.00264	49.8217
2.00187	49.7646
2.00109	49.7177
2.00032	50.1807
