Name: Cummingtonite (Mg,Fe^2+)_7Si_8O_22(OH)_2
Type: Mineral
Class: Silicates
Subclass: Inosilicates
Particle Size: 45-125um
Sample No.: IN-6A
Owner: JPL
Wavelength range: IR
Origin: USA, South Dakota
Collected by Ward's
Description: 





Measurement: Hemispherical reflectance
First Column: X
Second Column: Y
X Units:  Wavelength (micrometers)
Y Units:  Reflectance (percent)
First X Value: 15.3853
Last X Value: 2.00032
Number of X Values: 2256
Additional information: in06aa.txt
 
15.3853	2.95521
15.3397	2.80642
15.2945	2.915
15.2495	2.90378
15.2048	2.80627
15.1603	2.8786
15.1161	2.83974
15.0722	2.69418
15.0285	2.71318
14.9851	2.59456
14.9419	2.33576
14.8989	2.62363
14.8563	3.04304
14.8138	3.05053
14.7716	2.83018
14.7296	2.77611
14.6879	2.78869
14.6464	2.79965
14.6052	3.04233
14.5641	3.17304
14.5233	3.09912
14.4828	2.9683
14.4424	3.03327
14.4023	3.25692
14.3624	3.29729
14.3227	3.11583
14.2833	3.15664
14.244	3.24957
14.205	3.20844
14.1662	3.14514
14.1276	3.06031
14.0892	2.85567
14.051	2.63318
14.0131	2.57633
13.9753	2.65644
13.9377	2.73003
13.9004	2.76171
13.8632	2.74437
13.8262	2.73462
13.7895	2.84066
13.7529	2.78979
13.7165	2.80733
13.6803	2.93454
13.6443	2.95549
13.6085	2.91493
13.5729	2.97478
13.5374	3.0226
13.5022	3.25664
13.4671	3.41741
13.4322	3.42577
13.3975	3.49015
13.363	3.57015
13.3286	3.45861
13.2944	3.32006
13.2604	3.52755
13.2266	3.81841
13.193	3.81492
13.1595	3.81415
13.1262	3.87788
13.093	3.95475
13.06	3.91661
13.0272	3.89004
12.9946	3.94001
12.9621	4.0146
12.9298	4.13324
12.8976	4.27672
12.8656	4.32463
12.8337	4.33917
12.8021	4.04192
12.7705	3.62303
12.7391	3.32461
12.7079	3.25639
12.6769	3.22823
12.6459	3.15822
12.6152	3.21877
12.5845	3.39816
12.5541	3.65338
12.5238	3.79673
12.4936	3.82133
12.4635	3.83668
12.4337	3.80956
12.4039	3.72893
12.3743	3.74768
12.3448	3.74303
12.3155	3.77741
12.2863	3.70473
12.2573	3.74138
12.2284	3.89149
12.1996	4.01231
12.171	4.17879
12.1425	4.2211
12.1141	4.36944
12.0859	4.47464
12.0578	4.44557
12.0298	4.56017
12.0019	4.58491
11.9742	4.60908
11.9466	4.68869
11.9192	4.74844
11.8918	4.92965
11.8646	5.02022
11.8375	5.13028
11.8106	5.24576
11.7837	5.23831
11.757	5.32332
11.7304	5.38477
11.7039	5.49704
11.6776	5.69509
11.6513	5.68225
11.6252	5.78138
11.5992	5.91142
11.5733	5.9698
11.5475	5.98703
11.5219	6.12903
11.4963	6.32274
11.4709	6.46306
11.4455	6.60487
11.4203	6.686
11.3952	6.65114
11.3702	6.50632
11.3454	6.39696
11.3206	6.46587
11.2959	6.5983
11.2714	6.51271
11.2469	6.36972
11.2226	6.43136
11.1983	6.54292
11.1742	6.56691
11.1502	6.53808
11.1263	6.61989
11.1024	6.58655
11.0787	6.49426
11.0551	6.59949
11.0316	6.55739
11.0081	6.4657
10.9848	6.47715
10.9616	6.59247
10.9385	6.75658
10.9154	6.85484
10.8925	6.81957
10.8697	6.6359
10.8469	6.54942
10.8243	6.70878
10.8017	6.91484
10.7793	7.01761
10.7569	7.05532
10.7346	7.28201
10.7125	7.65358
10.6904	8.01606
10.6684	8.27476
10.6465	8.46629
10.6247	8.76368
10.6029	9.04888
10.5813	9.32515
10.5597	9.79136
10.5383	10.3346
10.5169	10.7872
10.4956	11.1247
10.4744	11.4918
10.4533	11.8551
10.4323	12.2022
10.4113	12.6671
10.3904	13.1496
10.3697	13.3798
10.349	13.5488
10.3284	13.7381
10.3078	13.8604
10.2874	13.8227
10.267	13.7728
10.2467	13.8209
10.2265	13.8434
10.2064	13.9353
10.1863	13.9626
10.1663	13.9942
10.1464	14.1671
10.1266	14.3531
10.1069	14.6263
10.0872	15.2268
10.0676	15.9405
10.0481	16.5291
10.0287	17.199
10.0093	17.8402
9.99005	18.2714
9.97084	18.6831
9.95169	19.051
9.93263	19.4149
9.91364	19.691
9.89472	19.8506
9.87587	19.932
9.8571	20.1831
9.83839	20.342
9.81976	20.4936
9.80119	20.5708
9.78271	20.5691
9.76428	20.5441
9.74592	20.5305
9.72764	20.5397
9.70943	20.6002
9.69128	20.545
9.6732	20.4738
9.65518	20.3664
9.63724	20.2306
9.61935	20.2404
9.60155	20.1611
9.5838	19.8744
9.56611	19.5363
9.5485	19.1276
9.53094	18.7949
9.51345	18.498
9.49604	18.1623
9.47867	17.9201
9.46137	17.6479
9.44414	17.2233
9.42697	16.717
9.40986	16.2505
9.39281	15.6893
9.37583	15.1238
9.35891	14.5711
9.34204	13.9216
9.32524	13.1649
9.3085	12.4866
9.29182	11.908
9.27519	11.5319
9.25863	11.6562
9.24213	12.2717
9.22568	12.9548
9.2093	13.5306
9.19297	14.1168
9.17669	14.6286
9.16048	14.9321
9.14433	15.0442
9.12823	15.0067
9.11218	14.6879
9.0962	14.2948
9.08027	13.9556
9.06439	13.6227
9.04858	13.0566
9.03281	12.256
9.0171	11.5631
9.00145	11.0059
8.98585	10.6956
8.9703	10.5872
8.9548	10.3779
8.93937	10.1933
8.92398	9.9836
8.90865	9.92778
8.89337	10.045
8.87814	10.0255
8.86296	9.97807
8.84784	10.0878
8.83277	10.2708
8.81774	10.2571
8.80277	10.1595
8.78786	10.1758
8.77298	10.1784
8.75816	10.1355
8.7434	10.1288
8.72868	9.94217
8.714	9.66191
8.69938	9.50641
8.68481	9.22089
8.67029	8.78418
8.65581	8.19842
8.64139	7.51417
8.62701	6.9769
8.61268	6.62489
8.5984	6.3893
8.58416	6.14644
8.56997	5.83143
8.55583	5.54799
8.54174	5.35203
8.52769	5.18633
8.51368	5.05452
8.49973	4.97071
8.48582	4.83205
8.47195	4.62744
8.45813	4.58424
8.44436	4.58368
8.43062	4.52675
8.41693	4.47323
8.4033	4.53578
8.3897	4.54234
8.37614	4.55171
8.36264	4.63203
8.34917	4.65191
8.33574	4.69042
8.32236	4.6331
8.30903	4.57486
8.29573	4.65895
8.28248	4.62215
8.26927	4.57593
8.2561	4.60993
8.24298	4.60758
8.2299	4.59808
8.21685	4.52212
8.20385	4.47269
8.19089	4.35372
8.17797	4.29535
8.16509	4.27888
8.15225	4.22077
8.13946	4.14911
8.1267	4.01513
8.11398	3.9466
8.10131	3.91476
8.08867	3.79223
8.07606	3.6574
8.0635	3.65622
8.05099	3.68997
8.0385	3.59583
8.02606	3.55247
8.01366	3.48677
8.00129	3.34984
7.98896	3.19033
7.97667	3.20696
7.96442	3.33796
7.9522	3.25372
7.94002	3.11738
7.92788	3.1568
7.91578	3.25179
7.90371	3.17311
7.89168	3.13729
7.87969	3.15353
7.86773	3.24328
7.85581	3.27425
7.84392	3.27429
7.83207	3.26024
7.82026	3.23983
7.80849	3.22355
7.79674	3.13654
7.78503	3.14843
7.77337	3.26885
7.76173	3.31598
7.75012	3.33312
7.73856	3.31321
7.72703	3.32538
7.71553	3.39386
7.70406	3.44178
7.69263	3.4288
7.68123	3.41367
7.66987	3.44313
7.65855	3.54157
7.64725	3.56831
7.63598	3.55872
7.62475	3.57817
7.61356	3.57035
7.60239	3.58794
7.59126	3.58914
7.58017	3.5772
7.5691	3.58112
7.55806	3.67071
7.54707	3.72423
7.5361	3.73769
7.52516	3.73671
7.51425	3.72208
7.50338	3.68061
7.49253	3.76933
7.48172	3.82075
7.47094	3.8284
7.46019	3.93071
7.44947	4.00694
7.43879	3.95589
7.42813	3.9146
7.4175	3.91768
7.4069	3.98344
7.39634	4.0658
7.3858	4.06321
7.37529	4.06673
7.36482	4.13984
7.35437	4.1369
7.34396	4.10046
7.33357	4.14683
7.32321	4.18341
7.31288	4.19641
7.30258	4.24991
7.29231	4.29636
7.28207	4.2784
7.27185	4.29593
7.26167	4.33484
7.25152	4.35759
7.24139	4.3792
7.23129	4.43817
7.22122	4.48
7.21117	4.52359
7.20116	4.56311
7.19117	4.62781
7.18121	4.70499
7.17128	4.853
7.16137	4.88069
7.1515	4.90155
7.14164	4.90416
7.13182	4.89731
7.12203	4.8534
7.11225	4.87477
7.10251	4.98547
7.0928	5.06001
7.08311	5.03004
7.07344	5.05186
7.06381	5.12506
7.0542	5.21712
7.04461	5.25309
7.03506	5.13932
7.02552	5.12361
7.01601	5.15274
7.00653	5.23139
6.99708	5.26001
6.98765	5.23605
6.97824	5.32449
6.96886	5.44391
6.95951	5.45347
6.95018	5.52581
6.94087	5.59228
6.9316	5.56954
6.92234	5.54405
6.91311	5.5959
6.90391	5.73984
6.89473	5.73926
6.88557	5.75233
6.87644	5.77155
6.86733	5.91814
6.85824	5.95723
6.84918	5.87851
6.84015	5.82984
6.83114	5.84609
6.82215	5.87582
6.81319	5.85776
6.80424	5.98598
6.79532	6.112
6.78643	6.09035
6.77756	6.08669
6.76871	6.15025
6.75989	6.10777
6.75109	6.0186
6.74231	6.00038
6.73355	6.08717
6.72482	6.1985
6.71611	6.23656
6.70742	6.18731
6.69875	6.02459
6.69011	6.0422
6.68149	6.20331
6.67289	6.21923
6.66431	6.21431
6.65576	6.24385
6.64722	6.35825
6.63871	6.50372
6.63022	6.5124
6.62175	6.40466
6.61331	6.28806
6.60488	6.28122
6.59648	6.46478
6.5881	6.54505
6.57974	6.54212
6.5714	6.53403
6.56308	6.4526
6.55478	6.46216
6.54651	6.45956
6.53825	6.43055
6.53001	6.51775
6.5218	6.6483
6.51361	6.63371
6.50544	6.68916
6.49729	6.84358
6.48915	6.83127
6.48104	6.83872
6.47295	6.82906
6.46488	6.67851
6.45683	6.66781
6.4488	6.66589
6.44079	6.68801
6.4328	6.78005
6.42482	6.88832
6.41687	7.10908
6.40894	7.06995
6.40103	6.77854
6.39314	6.62022
6.38526	6.53411
6.37741	6.44922
6.36957	6.42801
6.36176	6.3802
6.35396	6.38295
6.34618	6.40678
6.33843	6.30599
6.33069	6.23612
6.32297	6.23196
6.31527	6.1664
6.30758	6.13923
6.29992	6.09671
6.29227	6.01709
6.28465	5.91787
6.27704	5.89242
6.26945	5.82418
6.26188	5.76945
6.25432	5.74214
6.24679	5.68739
6.23927	5.64292
6.23177	5.57229
6.22429	5.55181
6.21683	5.50835
6.20938	5.42775
6.20195	5.44648
6.19454	5.43713
6.18715	5.51528
6.17978	5.48345
6.17242	5.34885
6.16508	5.36588
6.15776	5.33455
6.15045	5.20537
6.14317	5.09303
6.1359	5.11815
6.12864	5.20486
6.12141	5.28072
6.11419	5.32294
6.10699	5.27937
6.0998	5.22251
6.09263	5.19276
6.08549	5.20911
6.07835	5.32811
6.07123	5.46932
6.06413	5.46297
6.05705	5.52315
6.04998	5.73676
6.04293	5.52264
6.0359	5.28058
6.02888	5.29538
6.02187	5.39877
6.01489	5.49392
6.00792	5.46159
6.00096	5.50501
5.99403	5.67816
5.98711	5.75308
5.9802	5.73926
5.97331	5.81684
5.96644	5.83225
5.95958	5.8374
5.95274	5.87992
5.94591	5.99004
5.9391	6.18428
5.9323	6.12328
5.92552	6.03424
5.91876	6.04268
5.91201	6.02055
5.90528	6.09027
5.89856	6.1946
5.89186	6.19061
5.88517	6.32963
5.8785	6.43281
5.87184	6.26104
5.8652	6.2212
5.85857	6.21437
5.85196	6.17447
5.84536	6.13935
5.83878	6.14524
5.83221	6.22358
5.82566	6.37434
5.81912	6.28814
5.81259	6.14235
5.80608	6.16711
5.79959	6.2117
5.79311	6.18358
5.78665	6.16396
5.78019	6.16101
5.77376	6.10726
5.76734	6.13389
5.76093	6.07668
5.75453	5.97878
5.74815	6.00266
5.74179	6.01736
5.73543	6.02834
5.7291	6.08638
5.72277	6.12497
5.71646	6.06651
5.71017	6.12302
5.70389	6.04477
5.69762	5.88015
5.69136	5.86183
5.68513	5.88508
5.6789	5.92117
5.67268	5.88664
5.66648	5.82313
5.6603	5.78403
5.65413	5.81844
5.64797	5.83401
5.64182	5.80051
5.63569	5.62648
5.62957	5.56969
5.62347	5.6657
5.61737	5.69456
5.61129	5.69445
5.60522	5.72788
5.59917	5.6689
5.59313	5.64384
5.5871	5.75283
5.58109	5.7508
5.57509	5.70925
5.5691	5.76687
5.56312	5.80114
5.55716	5.77792
5.55121	5.78953
5.54528	5.75716
5.53935	5.75826
5.53344	5.79531
5.52754	5.82291
5.52166	5.92027
5.51578	6.02197
5.50992	6.04458
5.50407	6.10186
5.49823	6.21552
5.49241	6.25568
5.4866	6.26189
5.4808	6.36412
5.47501	6.40101
5.46923	6.42341
5.46347	6.44582
5.45772	6.43728
5.45198	6.44442
5.44625	6.40941
5.44054	6.35753
5.43484	6.33965
5.42914	6.39014
5.42347	6.50847
5.4178	6.53928
5.41214	6.42594
5.4065	6.32561
5.40087	6.29698
5.39525	6.28969
5.38964	6.31129
5.38404	6.36983
5.37846	6.38205
5.37288	6.2979
5.36732	6.23764
5.36177	6.24379
5.35623	6.27882
5.35071	6.30096
5.34519	6.26391
5.33968	6.16199
5.33419	6.16197
5.32871	6.26494
5.32324	6.27276
5.31778	6.31932
5.31233	6.34615
5.30689	6.30817
5.30147	6.36763
5.29605	6.42703
5.29065	6.43264
5.28525	6.53035
5.27987	6.6447
5.2745	6.60145
5.26914	6.62768
5.26379	6.75392
5.25845	6.82003
5.25312	6.85894
5.24781	6.94531
5.2425	7.03103
5.23721	7.05828
5.23192	7.10842
5.22665	7.16062
5.22138	7.26058
5.21613	7.42923
5.21089	7.48926
5.20566	7.50942
5.20044	7.52487
5.19522	7.53113
5.19002	7.56631
5.18483	7.52877
5.17965	7.60359
5.17448	7.74026
5.16933	7.71355
5.16418	7.67978
5.15904	7.75245
5.15391	7.82718
5.14879	7.88326
5.14368	7.96259
5.13859	7.99926
5.1335	8.03085
5.12842	8.051
5.12335	8.02862
5.1183	8.08707
5.11325	8.13141
5.10821	8.1099
5.10318	8.11196
5.09817	8.13428
5.09316	8.11735
5.08816	8.10469
5.08317	8.156
5.07819	8.20234
5.07322	8.23994
5.06826	8.29876
5.06331	8.22567
5.05837	8.19884
5.05344	8.32535
5.04852	8.33334
5.04361	8.26688
5.03871	8.21253
5.03382	8.19527
5.02894	8.24286
5.02406	8.27801
5.0192	8.31252
5.01435	8.34049
5.0095	8.38163
5.00467	8.34855
4.99984	8.29134
4.99502	8.30223
4.99021	8.4238
4.98542	8.50093
4.98063	8.41886
4.97585	8.45557
4.97108	8.53822
4.96632	8.55277
4.96156	8.57451
4.95682	8.68757
4.95209	8.76182
4.94736	8.80945
4.94264	8.88178
4.93794	8.95497
4.93324	8.96013
4.92855	8.94481
4.92387	8.96929
4.9192	9.02934
4.91453	9.09249
4.90988	9.14762
4.90524	9.19426
4.9006	9.23912
4.89597	9.36048
4.89135	9.47012
4.88674	9.4681
4.88214	9.51738
4.87755	9.61525
4.87296	9.65558
4.86839	9.6216
4.86382	9.67063
4.85926	9.71388
4.85471	9.70526
4.85017	9.75861
4.84564	9.84508
4.84111	9.86624
4.8366	9.86994
4.83209	9.85681
4.82759	9.87209
4.8231	9.9769
4.81862	10.046
4.81415	10.0728
4.80968	10.1227
4.80522	10.1035
4.80077	10.1043
4.79633	10.0814
4.7919	10.0857
4.78747	10.1654
4.78306	10.1795
4.77865	10.1562
4.77425	10.1078
4.76986	10.1395
4.76547	10.2747
4.7611	10.2873
4.75673	10.2509
4.75237	10.3135
4.74802	10.4543
4.74367	10.4838
4.73934	10.4199
4.73501	10.4047
4.73069	10.3835
4.72638	10.4512
4.72207	10.4896
4.71777	10.5469
4.71348	10.6155
4.7092	10.6011
4.70493	10.6282
4.70066	10.5395
4.69641	10.4913
4.69216	10.6006
4.68791	10.6307
4.68368	10.6266
4.67945	10.6535
4.67523	10.6415
4.67102	10.6469
4.66682	10.6891
4.66262	10.6662
4.65843	10.6734
4.65425	10.6857
4.65007	10.7392
4.64591	10.8238
4.64175	10.7796
4.6376	10.7555
4.63345	10.7981
4.62932	10.8361
4.62519	10.824
4.62106	10.7976
4.61695	10.86
4.61284	10.951
4.60874	10.9889
4.60465	10.9789
4.60056	10.9923
4.59648	10.9929
4.59241	11.005
4.58835	11.1013
4.58429	11.1699
4.58024	11.1221
4.5762	11.1107
4.57216	11.1123
4.56814	11.0995
4.56411	11.1133
4.5601	11.128
4.55609	11.0781
4.55209	11.0606
4.5481	11.0972
4.54411	11.1854
4.54013	11.1709
4.53616	11.129
4.5322	11.1778
4.52824	11.1989
4.52429	11.1963
4.52034	11.2386
4.51641	11.2259
4.51247	11.1398
4.50855	11.1728
4.50463	11.1894
4.50072	11.1177
4.49682	11.0929
4.49292	11.129
4.48903	11.2004
4.48515	11.2361
4.48127	11.2515
4.4774	11.2636
4.47354	11.2158
4.46968	11.1411
4.46584	11.1564
4.46199	11.1834
4.45815	11.1667
4.45432	11.2125
4.4505	11.1993
4.44668	11.1805
4.44287	11.2713
4.43907	11.3049
4.43527	11.3331
4.43148	11.3647
4.4277	11.3234
4.42392	11.268
4.42015	11.2716
4.41638	11.2727
4.41262	11.2584
4.40887	11.2819
4.40513	11.3547
4.40139	11.421
4.39765	11.406
4.39393	11.3406
4.39021	11.3455
4.38649	11.3493
4.38278	11.3425
4.37908	11.3159
4.37539	11.3581
4.3717	11.414
4.36801	11.3658
4.36434	11.3882
4.36067	11.4217
4.357	11.4279
4.35335	11.4629
4.34969	11.4693
4.34605	11.4377
4.34241	11.4153
4.33877	11.4637
4.33514	11.5541
4.33152	11.5442
4.32791	11.5201
4.3243	11.5293
4.32069	11.4577
4.3171	11.4162
4.31351	11.4727
4.30992	11.5401
4.30634	11.6316
4.30277	11.5853
4.2992	11.519
4.29564	11.5772
4.29208	11.608
4.28853	11.538
4.28499	11.5544
4.28145	11.6082
4.27792	11.623
4.27439	11.629
4.27087	11.6241
4.26735	11.5777
4.26384	11.5518
4.26034	11.5417
4.25684	11.5465
4.25335	11.5371
4.24986	11.5878
4.24638	11.7019
4.24291	11.7484
4.23944	11.7098
4.23598	11.7138
4.23252	11.7659
4.22906	11.7858
4.22562	11.8512
4.22218	11.8284
4.21874	11.7526
4.21531	11.7152
4.21189	11.6949
4.20847	11.693
4.20506	11.68
4.20165	11.6419
4.19825	11.6092
4.19485	11.5688
4.19146	11.5912
4.18807	11.5658
4.18469	11.5897
4.18132	11.6271
4.17795	11.7009
4.17458	11.6712
4.17123	11.6047
4.16787	11.6267
4.16453	11.6603
4.16118	11.7172
4.15785	11.7011
4.15451	11.6976
4.15119	11.664
4.14787	11.6331
4.14455	11.6682
4.14124	11.6716
4.13794	11.6739
4.13464	11.7868
4.13134	11.7458
4.12805	11.6144
4.12477	11.5912
4.12149	11.6547
4.11822	11.6954
4.11495	11.6608
4.11168	11.6968
4.10843	11.6933
4.10517	11.6543
4.10192	11.7175
4.09868	11.8095
4.09545	11.7893
4.09221	11.7806
4.08899	11.7683
4.08576	11.7269
4.08255	11.7248
4.07933	11.6779
4.07613	11.6724
4.07292	11.7286
4.06973	11.6782
4.06654	11.6472
4.06335	11.6352
4.06017	11.7016
4.05699	11.7215
4.05382	11.6824
4.05065	11.6263
4.04749	11.6435
4.04433	11.7191
4.04118	11.7888
4.03803	11.7743
4.03489	11.7685
4.03175	11.7031
4.02862	11.6592
4.02549	11.5912
4.02237	11.6412
4.01925	11.7427
4.01614	11.6697
4.01303	11.5056
4.00993	11.5359
4.00683	11.6446
4.00373	11.6782
4.00064	11.6625
3.99756	11.7235
3.99448	11.7386
3.9914	11.7107
3.98833	11.6682
3.98527	11.7093
3.98221	11.7092
3.97915	11.6894
3.9761	11.6577
3.97305	11.6074
3.97001	11.5549
3.96697	11.5393
3.96394	11.618
3.96091	11.6715
3.95789	11.796
3.95487	11.8134
3.95186	11.7558
3.94885	11.6998
3.94584	11.647
3.94284	11.7162
3.93984	11.7761
3.93685	11.6908
3.93386	11.7146
3.93088	11.7842
3.9279	11.7936
3.92493	11.7781
3.92196	11.7862
3.919	11.7599
3.91604	11.7926
3.91308	11.8585
3.91013	11.8266
3.90718	11.7323
3.90424	11.6638
3.9013	11.6539
3.89837	11.6967
3.89544	11.7105
3.89252	11.7103
3.8896	11.7382
3.88668	11.8024
3.88377	11.7955
3.88086	11.7215
3.87796	11.7032
3.87506	11.7231
3.87217	11.785
3.86928	11.7879
3.86639	11.7668
3.86351	11.8302
3.86064	11.8333
3.85776	11.8042
3.8549	11.7737
3.85203	11.6989
3.84917	11.6917
3.84631	11.7096
3.84346	11.6806
3.84062	11.6427
3.83777	11.7053
3.83494	11.7401
3.8321	11.6932
3.82927	11.6442
3.82644	11.6346
3.82362	11.659
3.82081	11.7794
3.81799	11.8685
3.81518	11.7641
3.81238	11.6361
3.80958	11.7025
3.80678	11.7547
3.80399	11.7277
3.8012	11.7557
3.79841	11.8296
3.79563	11.806
3.79286	11.6646
3.79008	11.6723
3.78731	11.7644
3.78455	11.7248
3.78179	11.6444
3.77903	11.6846
3.77628	11.6944
3.77353	11.6204
3.77079	11.5912
3.76805	11.7264
3.76531	11.7916
3.76258	11.7533
3.75985	11.7236
3.75713	11.6956
3.7544	11.7391
3.75169	11.8394
3.74898	11.8285
3.74627	11.7831
3.74356	11.7081
3.74086	11.7249
3.73816	11.69
3.73547	11.6565
3.73278	11.7472
3.7301	11.7323
3.72741	11.6681
3.72474	11.6477
3.72206	11.5758
3.71939	11.637
3.71673	11.7358
3.71406	11.7216
3.71141	11.6905
3.70875	11.6453
3.7061	11.7275
3.70345	11.7545
3.70081	11.724
3.69817	11.6949
3.69553	11.706
3.6929	11.7393
3.69027	11.7198
3.68765	11.6373
3.68503	11.6281
3.68241	11.7031
3.6798	11.6816
3.67719	11.6974
3.67458	11.7225
3.67198	11.6667
3.66938	11.7039
3.66678	11.6965
3.66419	11.5835
3.66161	11.5133
3.65902	11.504
3.65644	11.5842
3.65387	11.7099
3.65129	11.704
3.64872	11.606
3.64616	11.6559
3.64359	11.6447
3.64103	11.5888
3.63848	11.6665
3.63593	11.6896
3.63338	11.5611
3.63084	11.5358
3.6283	11.5933
3.62576	11.6626
3.62322	11.6091
3.62069	11.5229
3.61817	11.4912
3.61564	11.5032
3.61312	11.4588
3.61061	11.4398
3.6081	11.5292
3.60559	11.5057
3.60308	11.4955
3.60058	11.5693
3.59808	11.5581
3.59558	11.4747
3.59309	11.4753
3.59061	11.4318
3.58812	11.3731
3.58564	11.356
3.58316	11.4575
3.58069	11.4729
3.57822	11.452
3.57575	11.5134
3.57328	11.5291
3.57082	11.5191
3.56836	11.5463
3.56591	11.5312
3.56346	11.4226
3.56101	11.3849
3.55857	11.3995
3.55613	11.3507
3.55369	11.2769
3.55126	11.322
3.54883	11.3283
3.5464	11.188
3.54397	11.2238
3.54155	11.2769
3.53914	11.3505
3.53672	11.3513
3.53431	11.3024
3.5319	11.2552
3.5295	11.2116
3.5271	11.2672
3.5247	11.2711
3.52231	11.2621
3.51991	11.2479
3.51753	11.2307
3.51514	11.2306
3.51276	11.2982
3.51038	11.2767
3.50801	11.212
3.50563	11.1798
3.50327	11.1531
3.5009	11.1571
3.49854	11.1587
3.49618	11.189
3.49382	11.1693
3.49147	11.156
3.48912	11.1646
3.48677	11.2326
3.48443	11.2095
3.48209	11.1189
3.47975	11.1359
3.47742	11.1462
3.47509	11.0405
3.47276	10.98
3.47044	11.0004
3.46812	11.0302
3.4658	11.081
3.46348	11.116
3.46117	11.0779
3.45886	11.0796
3.45656	11.0258
3.45425	11.0124
3.45195	11.0891
3.44966	11.1415
3.44736	11.0698
3.44507	11.0016
3.44279	11.0022
3.4405	10.939
3.43822	10.9248
3.43594	10.8832
3.43367	10.9403
3.43139	10.9619
3.42912	10.9028
3.42686	10.8886
3.42459	10.8795
3.42233	10.8897
3.42007	10.9341
3.41782	10.9165
3.41557	10.8736
3.41332	10.8218
3.41108	10.8469
3.40883	10.9805
3.40659	10.9542
3.40435	10.8208
3.40212	10.7131
3.39989	10.759
3.39766	10.8517
3.39544	10.7535
3.39322	10.5934
3.391	10.6398
3.38878	10.7135
3.38657	10.6033
3.38436	10.6629
3.38215	10.7253
3.37994	10.6223
3.37774	10.5653
3.37554	10.5571
3.37335	10.5775
3.37115	10.5563
3.36896	10.5624
3.36678	10.5752
3.36459	10.5099
3.36241	10.4984
3.36023	10.4385
3.35805	10.4738
3.35588	10.5071
3.35371	10.4977
3.35154	10.4331
3.34938	10.3939
3.34721	10.3568
3.34505	10.3789
3.3429	10.3788
3.34074	10.332
3.33859	10.2475
3.33644	10.3254
3.3343	10.3858
3.33215	10.4091
3.33001	10.3678
3.32788	10.3112
3.32574	10.342
3.32361	10.4456
3.32148	10.3981
3.31936	10.2583
3.31723	10.2506
3.31511	10.2457
3.31299	10.1775
3.31088	10.1476
3.30876	10.161
3.30665	10.1538
3.30455	10.1271
3.30244	10.1413
3.30034	10.1158
3.29824	10.1727
3.29614	10.2055
3.29405	10.1589
3.29196	10.1464
3.28987	10.1483
3.28778	10.063
3.2857	10.0053
3.28362	9.99457
3.28154	9.99673
3.27946	10.007
3.27739	9.92667
3.27532	9.95613
3.27325	9.95055
3.27119	9.85317
3.26913	9.77445
3.26707	9.78284
3.26501	9.80614
3.26295	9.81367
3.2609	9.93146
3.25885	9.93807
3.2568	9.91552
3.25476	9.82535
3.25272	9.73347
3.25068	9.7499
3.24864	9.75077
3.24661	9.74376
3.24458	9.81035
3.24255	9.86588
3.24052	9.81043
3.2385	9.71502
3.23648	9.65527
3.23446	9.66459
3.23244	9.6316
3.23043	9.66447
3.22841	9.60016
3.2264	9.55244
3.2244	9.57244
3.22239	9.51124
3.22039	9.58726
3.21839	9.55115
3.2164	9.36594
3.2144	9.30244
3.21241	9.25404
3.21042	9.25643
3.20844	9.28636
3.20645	9.27185
3.20447	9.36802
3.20249	9.40114
3.20051	9.2648
3.19854	9.23941
3.19657	9.26884
3.1946	9.21846
3.19263	9.22458
3.19067	9.2271
3.1887	9.16925
3.18674	9.20204
3.18479	9.15081
3.18283	9.0545
3.18088	9.11155
3.17893	9.02721
3.17698	8.94111
3.17504	9.06978
3.17309	9.0418
3.17115	8.9967
3.16921	8.91058
3.16728	8.78702
3.16534	8.75891
3.16341	8.72886
3.16148	8.68212
3.15956	8.63925
3.15763	8.63439
3.15571	8.70795
3.15379	8.73982
3.15187	8.70123
3.14996	8.69543
3.14805	8.56782
3.14614	8.4089
3.14423	8.51487
3.14232	8.6302
3.14042	8.53059
3.13852	8.4192
3.13662	8.3905
3.13472	8.39074
3.13283	8.3842
3.13094	8.40117
3.12905	8.38822
3.12716	8.31812
3.12528	8.37922
3.12339	8.42823
3.12151	8.3091
3.11964	8.24194
3.11776	8.22417
3.11589	8.26896
3.11401	8.28208
3.11214	8.20324
3.11028	8.1558
3.10841	8.11724
3.10655	8.19609
3.10469	8.15282
3.10283	8.08435
3.10098	8.06336
3.09912	7.96018
3.09727	7.93889
3.09542	7.95126
3.09358	7.95299
3.09173	7.95547
3.08989	7.94568
3.08805	7.85249
3.08621	7.81226
3.08437	7.80197
3.08254	7.69484
3.08071	7.71606
3.07888	7.85799
3.07705	7.89306
3.07523	7.80168
3.0734	7.68148
3.07158	7.74691
3.06977	7.79528
3.06795	7.73482
3.06613	7.67741
3.06432	7.64012
3.06251	7.70528
3.0607	7.6087
3.0589	7.49418
3.0571	7.52126
3.05529	7.53877
3.05349	7.60085
3.0517	7.64824
3.0499	7.60102
3.04811	7.52326
3.04632	7.46343
3.04453	7.41984
3.04274	7.44039
3.04096	7.42267
3.03918	7.38428
3.0374	7.36016
3.03562	7.39949
3.03384	7.41321
3.03207	7.43495
3.03029	7.40792
3.02852	7.32883
3.02676	7.24353
3.02499	7.26601
3.02323	7.3699
3.02146	7.32056
3.0197	7.1786
3.01795	7.20135
3.01619	7.32948
3.01444	7.26916
3.01269	7.19174
3.01094	7.13744
3.00919	7.26172
3.00744	7.32739
3.0057	7.25052
3.00396	7.22614
3.00222	7.25613
3.00048	7.30684
2.99875	7.15647
2.99701	7.04236
2.99528	7.07479
2.99355	7.01173
2.99183	6.95431
2.9901	6.92229
2.98838	6.8789
2.98666	6.96091
2.98494	6.9828
2.98322	6.8705
2.9815	6.84614
2.97979	6.88515
2.97808	6.92203
2.97637	6.88598
2.97466	6.80228
2.97295	6.90703
2.97125	6.94198
2.96955	6.88304
2.96785	6.83222
2.96615	6.73017
2.96446	6.65823
2.96276	6.70724
2.96107	6.79361
2.95938	6.78686
2.95769	6.76054
2.95601	6.78743
2.95432	6.78919
2.95264	6.66793
2.95096	6.51761
2.94928	6.55061
2.9476	6.73557
2.94593	6.74759
2.94425	6.82404
2.94258	6.92005
2.94092	6.81648
2.93925	6.74041
2.93758	6.63427
2.93592	6.54156
2.93426	6.61547
2.9326	6.69955
2.93094	6.57646
2.92928	6.46899
2.92763	6.51366
2.92598	6.53972
2.92433	6.54591
2.92268	6.62868
2.92103	6.75665
2.91939	6.74343
2.91775	6.62085
2.9161	6.49273
2.91447	6.57318
2.91283	6.66577
2.91119	6.62824
2.90956	6.59571
2.90793	6.55465
2.9063	6.53975
2.90467	6.5691
2.90304	6.66828
2.90142	6.63664
2.89979	6.59947
2.89817	6.68646
2.89656	6.67438
2.89494	6.59912
2.89332	6.63933
2.89171	6.77446
2.8901	6.79268
2.88849	6.7115
2.88688	6.63443
2.88527	6.73646
2.88367	6.79744
2.88206	6.76576
2.88046	6.70927
2.87886	6.6725
2.87727	6.66555
2.87567	6.7375
2.87408	6.71253
2.87248	6.75817
2.87089	6.85135
2.8693	6.86272
2.86772	6.84559
2.86613	6.71425
2.86455	6.63998
2.86297	6.66874
2.86139	6.58063
2.85981	6.5342
2.85823	6.58867
2.85666	6.54693
2.85508	6.54404
2.85351	6.49735
2.85194	6.57625
2.85038	6.66043
2.84881	6.60191
2.84724	6.67167
2.84568	6.6158
2.84412	6.6617
2.84256	6.6941
2.841	6.57217
2.83945	6.52714
2.83789	6.58891
2.83634	6.72396
2.83479	6.66318
2.83324	6.54798
2.83169	6.46008
2.83015	6.3811
2.82861	6.33104
2.82706	6.26766
2.82552	6.22331
2.82398	6.18461
2.82245	6.22385
2.82091	6.35921
2.81938	6.42515
2.81784	6.32758
2.81631	6.22126
2.81479	6.15834
2.81326	6.12932
2.81173	6.20889
2.81021	6.24637
2.80869	6.2643
2.80716	6.30764
2.80565	6.26742
2.80413	6.33991
2.80261	6.35196
2.8011	6.35494
2.79959	6.44516
2.79808	6.47307
2.79657	6.47649
2.79506	6.41426
2.79355	6.35838
2.79205	6.34392
2.79055	6.22628
2.78904	6.26309
2.78754	6.46697
2.78605	6.49858
2.78455	6.51362
2.78306	6.53175
2.78156	6.48958
2.78007	6.5068
2.77858	6.71329
2.77709	6.73745
2.77561	6.6472
2.77412	6.84086
2.77264	7.04752
2.77116	6.99866
2.76968	6.78389
2.7682	6.67037
2.76672	6.59456
2.76524	6.32926
2.76377	6.12222
2.7623	6.20485
2.76083	6.35741
2.75936	6.73868
2.75789	6.92232
2.75642	6.89412
2.75496	6.87635
2.7535	6.6736
2.75203	6.37076
2.75057	6.01765
2.74912	5.88268
2.74766	6.04516
2.7462	6.49229
2.74475	6.99656
2.7433	7.22838
2.74185	7.19147
2.7404	7.15907
2.73895	6.8865
2.7375	6.52308
2.73606	6.51337
2.73462	7.05698
2.73318	7.50354
2.73174	7.64441
2.7303	7.67497
2.72886	7.49281
2.72742	7.41052
2.72599	7.68433
2.72456	8.22203
2.72313	8.41726
2.7217	8.62573
2.72027	8.8978
2.71884	8.7735
2.71742	8.86241
2.71599	9.01254
2.71457	9.07052
2.71315	9.11472
2.71173	9.22285
2.71032	9.28337
2.7089	9.27868
2.70748	9.33084
2.70607	9.38127
2.70466	9.40903
2.70325	9.51927
2.70184	9.69233
2.70043	9.83013
2.69903	9.81757
2.69762	9.96039
2.69622	10.0635
2.69482	10.0655
2.69342	10.12
2.69202	10.1139
2.69062	10.151
2.68923	10.1899
2.68783	10.2377
2.68644	10.2964
2.68505	10.373
2.68366	10.4384
2.68227	10.4892
2.68089	10.5263
2.6795	10.4885
2.67812	10.5624
2.67673	10.7754
2.67535	10.7082
2.67397	10.582
2.6726	10.5606
2.67122	10.8035
2.66984	10.8359
2.66847	10.6545
2.6671	10.845
2.66572	10.9079
2.66435	10.7013
2.66299	10.5296
2.66162	10.4943
2.66025	10.5182
2.65889	10.6142
2.65753	10.667
2.65616	10.5477
2.65481	10.4321
2.65345	10.5185
2.65209	10.6562
2.65073	10.7586
2.64938	10.6542
2.64803	10.4575
2.64667	10.4081
2.64532	10.5138
2.64397	10.4965
2.64263	10.4831
2.64128	10.5369
2.63994	10.5265
2.63859	10.4181
2.63725	10.4797
2.63591	10.5793
2.63457	10.5513
2.63323	10.5327
2.6319	10.5442
2.63056	10.6689
2.62923	10.6655
2.62789	10.6312
2.62656	10.6703
2.62523	10.6805
2.6239	10.5641
2.62258	10.5479
2.62125	10.6474
2.61993	10.6239
2.6186	10.5662
2.61728	10.744
2.61596	10.7345
2.61464	10.6992
2.61332	10.7712
2.61201	10.5235
2.61069	10.516
2.60938	10.5266
2.60807	10.5697
2.60675	10.6897
2.60544	10.6728
2.60414	10.6909
2.60283	10.5744
2.60152	10.5121
2.60022	10.5343
2.59891	10.5452
2.59761	10.501
2.59631	10.6552
2.59501	10.9002
2.59371	10.745
2.59242	10.5198
2.59112	10.4187
2.58983	10.4848
2.58853	10.509
2.58724	10.4725
2.58595	10.408
2.58466	10.4111
2.58338	10.4205
2.58209	10.429
2.5808	10.4705
2.57952	10.4251
2.57824	10.4237
2.57695	10.4152
2.57567	10.3981
2.5744	10.545
2.57312	10.547
2.57184	10.4507
2.57057	10.6267
2.56929	10.686
2.56802	10.4952
2.56675	10.4624
2.56548	10.5006
2.56421	10.5089
2.56294	10.5569
2.56168	10.5591
2.56041	10.5038
2.55915	10.4461
2.55789	10.3653
2.55662	10.4085
2.55536	10.4704
2.5541	10.3927
2.55285	10.457
2.55159	10.5756
2.55034	10.5036
2.54908	10.5024
2.54783	10.498
2.54658	10.392
2.54533	10.3843
2.54408	10.4249
2.54283	10.4858
2.54159	10.4332
2.54034	10.4619
2.5391	10.4524
2.53785	10.3876
2.53661	10.4597
2.53537	10.5393
2.53413	10.5036
2.53289	10.4434
2.53166	10.4241
2.53042	10.3915
2.52919	10.4112
2.52795	10.4252
2.52672	10.3383
2.52549	10.3683
2.52426	10.4184
2.52303	10.4573
2.52181	10.4872
2.52058	10.4209
2.51936	10.2494
2.51813	10.2969
2.51691	10.4395
2.51569	10.4841
2.51447	10.4943
2.51325	10.4569
2.51203	10.4785
2.51082	10.4305
2.5096	10.4215
2.50839	10.4584
2.50717	10.4645
2.50596	10.4423
2.50475	10.3623
2.50354	10.3581
2.50233	10.4471
2.50113	10.6369
2.49992	10.6654
2.49872	10.683
2.49751	10.6584
2.49631	10.4948
2.49511	10.3697
2.49391	10.449
2.49271	10.5439
2.49151	10.507
2.49031	10.4859
2.48912	10.4612
2.48792	10.5549
2.48673	10.6719
2.48554	10.5404
2.48435	10.429
2.48316	10.4208
2.48197	10.4741
2.48078	10.6464
2.4796	10.7237
2.47841	10.691
2.47723	10.5707
2.47604	10.465
2.47486	10.5414
2.47368	10.6426
2.4725	10.664
2.47132	10.6629
2.47014	10.6046
2.46897	10.5525
2.46779	10.5922
2.46662	10.5742
2.46545	10.5923
2.46427	10.6618
2.4631	10.7522
2.46193	10.6971
2.46077	10.6936
2.4596	10.8084
2.45843	10.8171
2.45727	10.7389
2.4561	10.6188
2.45494	10.5683
2.45378	10.7198
2.45262	10.8219
2.45146	10.7743
2.4503	10.5964
2.44914	10.6419
2.44799	10.6714
2.44683	10.8008
2.44568	10.8192
2.44452	10.7389
2.44337	10.7233
2.44222	10.7166
2.44107	10.6427
2.43992	10.6724
2.43877	10.7565
2.43763	10.6098
2.43648	10.7048
2.43534	10.8469
2.43419	10.7976
2.43305	10.7154
2.43191	10.7211
2.43077	10.7193
2.42963	10.6795
2.42849	10.5055
2.42736	10.6068
2.42622	10.8147
2.42509	10.8273
2.42395	10.8261
2.42282	10.8622
2.42169	10.87
2.42056	10.7268
2.41943	10.7149
2.4183	10.8515
2.41717	10.8535
2.41605	10.664
2.41492	10.7901
2.4138	10.8808
2.41267	10.8514
2.41155	10.9034
2.41043	10.9274
2.40931	10.8191
2.40819	10.8002
2.40707	10.8611
2.40595	10.8265
2.40484	10.9266
2.40372	11.0016
2.40261	10.9315
2.4015	10.9047
2.40039	10.9304
2.39928	10.8745
2.39817	10.8064
2.39706	10.7753
2.39595	10.7829
2.39484	10.8271
2.39374	10.9345
2.39263	11.0278
2.39153	10.9663
2.39043	10.6858
2.38932	10.6936
2.38822	10.8543
2.38712	10.7535
2.38603	10.6594
2.38493	10.8484
2.38383	11.0384
2.38274	11.0401
2.38164	10.9884
2.38055	10.9945
2.37946	11.0031
2.37836	10.9626
2.37727	10.9332
2.37618	11.0186
2.3751	11.0064
2.37401	11.0206
2.37292	11.1209
2.37184	11.0137
2.37075	10.8613
2.36967	10.9186
2.36859	11.0454
2.3675	11.1109
2.36642	11.1109
2.36534	11.1192
2.36427	11.0215
2.36319	10.8368
2.36211	10.6894
2.36104	10.7861
2.35996	10.9644
2.35889	10.9982
2.35781	10.9732
2.35674	10.9756
2.35567	10.9524
2.3546	10.8336
2.35353	10.7449
2.35247	10.7836
2.3514	10.803
2.35033	10.7857
2.34927	10.9445
2.3482	10.9813
2.34714	10.9342
2.34608	11.0112
2.34502	11.0277
2.34396	10.974
2.3429	10.9747
2.34184	11.0413
2.34078	11.0885
2.33973	10.9475
2.33867	10.8141
2.33762	10.8536
2.33656	10.9296
2.33551	10.8752
2.33446	10.8453
2.33341	11.0531
2.33236	11.1445
2.33131	10.9991
2.33026	10.9364
2.32922	10.9923
2.32817	11.0723
2.32712	11.0404
2.32608	11.0783
2.32504	11.2126
2.324	11.1416
2.32295	10.9328
2.32191	10.8749
2.32087	10.9555
2.31984	11.0777
2.3188	11.1506
2.31776	11.3451
2.31673	11.3369
2.31569	11.1803
2.31466	11.1126
2.31362	11.054
2.31259	10.9889
2.31156	11.1611
2.31053	11.3264
2.3095	11.317
2.30847	11.2216
2.30745	11.0979
2.30642	11.1004
2.3054	11.1448
2.30437	11.1304
2.30335	11.2644
2.30232	11.4607
2.3013	11.4914
2.30028	11.3575
2.29926	11.3807
2.29824	11.4071
2.29722	11.36
2.29621	11.3709
2.29519	11.5059
2.29417	11.5448
2.29316	11.5717
2.29215	11.5678
2.29113	11.4769
2.29012	11.4203
2.28911	11.489
2.2881	11.5414
2.28709	11.4857
2.28608	11.5848
2.28507	11.6351
2.28407	11.608
2.28306	11.7236
2.28206	11.7451
2.28105	11.6596
2.28005	11.6043
2.27905	11.636
2.27805	11.7038
2.27705	11.7139
2.27605	11.6653
2.27505	11.6455
2.27405	11.6402
2.27305	11.6781
2.27206	11.7924
2.27106	11.7167
2.27007	11.6845
2.26907	11.7663
2.26808	11.6519
2.26709	11.5071
2.2661	11.509
2.26511	11.5912
2.26412	11.5704
2.26313	11.6782
2.26214	11.7679
2.26116	11.679
2.26017	11.6644
2.25919	11.7689
2.2582	11.84
2.25722	11.7246
2.25624	11.585
2.25526	11.7899
2.25428	11.8065
2.2533	11.7461
2.25232	11.7857
2.25134	11.7758
2.25036	11.7718
2.24939	11.8692
2.24841	11.8397
2.24744	11.968
2.24646	12.0372
2.24549	12.0414
2.24452	12.163
2.24355	12.0811
2.24257	12.0429
2.24161	12.1545
2.24064	12.0785
2.23967	11.8921
2.2387	11.8837
2.23774	11.8907
2.23677	11.852
2.23581	12.0529
2.23484	12.2905
2.23388	12.3139
2.23292	12.2393
2.23196	12.2076
2.231	12.1913
2.23004	12.1005
2.22908	12.0139
2.22812	12.1252
2.22716	12.1435
2.22621	12.1722
2.22525	12.4911
2.2243	12.5
2.22334	12.278
2.22239	12.1799
2.22144	12.2166
2.22049	12.4101
2.21953	12.4186
2.21859	12.3411
2.21764	12.3095
2.21669	12.3241
2.21574	12.2757
2.21479	12.2654
2.21385	12.3309
2.2129	12.3302
2.21196	12.3411
2.21102	12.4981
2.21007	12.3927
2.20913	12.2442
2.20819	12.3236
2.20725	12.316
2.20631	12.3687
2.20537	12.359
2.20444	12.4053
2.2035	12.5497
2.20256	12.5971
2.20163	12.5308
2.20069	12.4653
2.19976	12.515
2.19883	12.5766
2.19789	12.4961
2.19696	12.4606
2.19603	12.4133
2.1951	12.2742
2.19417	12.2842
2.19325	12.371
2.19232	12.3576
2.19139	12.5304
2.19047	12.4717
2.18954	12.4126
2.18862	12.5864
2.18769	12.5725
2.18677	12.4791
2.18585	12.5036
2.18493	12.5545
2.18401	12.3418
2.18309	12.4149
2.18217	12.4865
2.18125	12.3337
2.18033	12.4162
2.17942	12.4349
2.1785	12.4807
2.17759	12.5527
2.17667	12.5534
2.17576	12.6599
2.17485	12.7233
2.17393	12.7008
2.17302	12.7015
2.17211	12.5608
2.1712	12.5564
2.17029	12.6995
2.16939	12.6214
2.16848	12.4729
2.16757	12.6697
2.16667	12.7942
2.16576	12.65
2.16486	12.4858
2.16395	12.5286
2.16305	12.6361
2.16215	12.6487
2.16125	12.6765
2.16035	12.5846
2.15945	12.713
2.15855	12.9684
2.15765	12.7913
2.15675	12.8168
2.15586	12.7303
2.15496	12.6205
2.15406	12.7924
2.15317	12.8107
2.15228	12.7262
2.15138	12.6699
2.15049	12.7837
2.1496	12.9255
2.14871	12.6343
2.14782	12.4161
2.14693	12.4357
2.14604	12.8119
2.14515	13.0507
2.14427	13.0196
2.14338	12.943
2.14249	12.6922
2.14161	12.7282
2.14072	12.7245
2.13984	12.8233
2.13896	12.9735
2.13808	12.8725
2.13719	12.9288
2.13631	12.919
2.13543	12.6721
2.13455	12.6039
2.13368	12.9435
2.1328	13.0246
2.13192	12.8086
2.13105	12.7232
2.13017	12.6311
2.1293	12.6369
2.12842	12.8643
2.12755	12.8501
2.12668	12.6443
2.1258	12.6772
2.12493	12.6826
2.12406	12.8857
2.12319	12.8867
2.12232	12.8629
2.12145	12.8987
2.12059	12.8283
2.11972	12.8973
2.11885	12.993
2.11799	12.7998
2.11712	12.6512
2.11626	12.6708
2.1154	12.9251
2.11453	12.9938
2.11367	12.7701
2.11281	12.7728
2.11195	12.9377
2.11109	12.9972
2.11023	12.9665
2.10937	12.9218
2.10851	12.8912
2.10766	12.9669
2.1068	13.0692
2.10594	12.9421
2.10509	12.8269
2.10423	12.9206
2.10338	13.1412
2.10253	13.0943
2.10168	12.9061
2.10082	12.9214
2.09997	12.8492
2.09912	12.9214
2.09827	12.9033
2.09742	12.9274
2.09658	13.114
2.09573	13.1278
2.09488	13.1086
2.09404	13.2844
2.09319	13.0548
2.09235	12.8836
2.0915	13.148
2.09066	13.289
2.08982	13.1839
2.08897	13.1046
2.08813	12.8921
2.08729	12.9419
2.08645	13.2606
2.08561	13.2816
2.08477	13.0778
2.08394	13.1517
2.0831	13.2641
2.08226	12.9326
2.08143	12.8302
2.08059	13.1057
2.07976	13.1341
2.07892	13.1349
2.07809	12.922
2.07726	12.7369
2.07643	12.8877
2.07559	13.0291
2.07476	13.1974
2.07393	13.3447
2.0731	13.3088
2.07228	13.2154
2.07145	12.7869
2.07062	12.8524
2.06979	13.2036
2.06897	13.5339
2.06814	13.3766
2.06732	13.2082
2.06649	13.2422
2.06567	13.0946
2.06485	13.0281
2.06403	12.9614
2.0632	12.9638
2.06238	13.0371
2.06156	13.0109
2.06074	12.8506
2.05993	12.9273
2.05911	13.1161
2.05829	13.0496
2.05747	13.1094
2.05666	13.245
2.05584	13.2963
2.05503	13.2103
2.05421	13.1386
2.0534	13.0807
2.05259	13.0686
2.05177	12.9524
2.05096	12.9824
2.05015	13.2856
2.04934	13.2735
2.04853	13.2483
2.04772	13.1448
2.04691	13.0512
2.04611	13.1703
2.0453	13.2731
2.04449	13.2564
2.04369	13.0585
2.04288	12.9484
2.04208	12.9669
2.04127	13.0719
2.04047	13.2336
2.03967	13.281
2.03886	13.362
2.03806	13.2818
2.03726	13.1654
2.03646	13.2021
2.03566	13.1901
2.03486	12.9749
2.03407	12.8635
2.03327	12.9205
2.03247	13.0539
2.03167	13.1177
2.03088	13.0778
2.03008	13.1412
2.02929	13.2753
2.0285	13.2364
2.0277	12.9713
2.02691	12.8983
2.02612	13.0178
2.02533	12.9315
2.02453	12.9571
2.02374	13.0373
2.02295	13.2491
2.02217	13.4743
2.02138	13.3442
2.02059	13.0987
2.0198	13.2469
2.01902	13.3794
2.01823	13.3738
2.01744	13.4291
2.01666	13.3468
2.01588	13.0424
2.01509	12.8519
2.01431	13.1573
2.01353	13.1659
2.01275	13.0197
2.01196	13.0132
2.01118	13.1047
2.0104	13.1023
2.00963	13.1919
2.00885	13.3789
2.00807	13.2058
2.00729	13.0944
2.00651	13.3587
2.00574	13.3623
2.00496	13.1832
2.00419	13.1259
2.00341	13.1086
2.00264	13.0025
2.00187	12.9753
2.00109	13.1459
2.00032	13.3739
