Name: Atacamite Cu_2Cl(OH)_3
Type: Mineral
Class: Halides
Subclass: 
Particle Size: 45-125um
Sample No.: H-4A
Owner: JPL
Wavelength range: IR
Origin: Chile, Atacama, Copiapo
Collected by Grieger's Inc.
Description: 





Measurement: Hemispherical reflectance
First Column: X
Second Column: Y
X Units:  Wavelength (micrometers)
Y Units:  Reflectance (percent)
First X Value: 15.3853
Last X Value: 2.00032
Number of X Values: 2256
Additional information: h04aa.txt
 
15.3853	1.24833
15.3397	1.11283
15.2945	0.992223
15.2495	0.911118
15.2048	0.92952
15.1603	1.00622
15.1161	1.18398
15.0722	1.66775
15.0285	1.87697
14.9851	1.69111
14.9419	1.36089
14.8989	1.14868
14.8563	1.27508
14.8138	1.37578
14.7716	1.49535
14.7296	1.33724
14.6879	1.19528
14.6464	1.16414
14.6052	1.22101
14.5641	1.44299
14.5233	1.44304
14.4828	1.26446
14.4424	1.30893
14.4023	1.51394
14.3624	1.43404
14.3227	1.27352
14.2833	1.38571
14.244	1.37391
14.205	1.26031
14.1662	1.21112
14.1276	1.27605
14.0892	1.31914
14.051	1.1522
14.0131	1.22301
13.9753	1.47584
13.9377	1.34204
13.9004	1.39942
13.8632	1.60991
13.8262	1.57555
13.7895	1.50341
13.7529	1.48241
13.7165	1.50945
13.6803	1.51507
13.6443	1.52676
13.6085	1.41993
13.5729	1.3387
13.5374	1.38361
13.5022	1.51056
13.4671	1.6094
13.4322	1.54427
13.3975	1.55347
13.363	1.53423
13.3286	1.55113
13.2944	1.58504
13.2604	1.64986
13.2266	1.7029
13.193	1.70775
13.1595	1.66867
13.1262	1.48748
13.093	1.41915
13.06	1.62426
13.0272	1.78681
12.9946	1.70623
12.9621	1.66412
12.9298	1.53233
12.8976	1.56456
12.8656	1.51451
12.8337	1.53587
12.8021	1.52252
12.7705	1.53333
12.7391	1.52244
12.7079	1.5422
12.6769	1.58997
12.6459	1.70349
12.6152	1.61229
12.5845	1.44235
12.5541	1.41565
12.5238	1.46403
12.4936	1.58256
12.4635	1.6321
12.4337	1.60506
12.4039	1.65297
12.3743	1.66403
12.3448	1.67438
12.3155	1.81349
12.2863	1.68376
12.2573	1.55915
12.2284	1.52834
12.1996	1.51564
12.171	1.49046
12.1425	1.42395
12.1141	1.56278
12.0859	1.66635
12.0578	1.57365
12.0298	1.53939
12.0019	1.67304
11.9742	1.85017
11.9466	2.04577
11.9192	1.93198
11.8918	1.9446
11.8646	2.19177
11.8375	2.16887
11.8106	2.06603
11.7837	2.1788
11.757	2.24968
11.7304	2.26046
11.7039	2.13687
11.6776	1.79329
11.6513	1.58655
11.6252	1.62027
11.5992	1.50851
11.5733	1.44311
11.5475	1.47976
11.5219	1.54182
11.4963	1.55166
11.4709	1.5785
11.4455	1.60674
11.4203	1.49733
11.3952	1.57436
11.3702	1.78289
11.3454	1.84277
11.3206	1.83459
11.2959	1.85475
11.2714	2.01528
11.2469	2.10412
11.2226	2.13953
11.1983	2.16809
11.1742	2.19168
11.1502	2.3045
11.1263	2.23004
11.1024	2.05948
11.0787	1.91256
11.0551	1.9773
11.0316	2.02443
11.0081	2.05143
10.9848	2.10464
10.9616	2.16917
10.9385	2.2676
10.9154	2.42588
10.8925	2.40759
10.8697	2.24714
10.8469	2.0717
10.8243	1.92709
10.8017	1.86128
10.7793	1.93102
10.7569	1.98546
10.7346	1.95758
10.7125	2.01257
10.6904	2.04385
10.6684	1.99867
10.6465	1.95174
10.6247	2.02924
10.6029	2.26253
10.5813	2.36478
10.5597	2.36542
10.5383	2.28169
10.5169	2.28389
10.4956	2.32586
10.4744	2.32785
10.4533	2.40834
10.4323	2.38954
10.4113	2.33016
10.3904	2.47576
10.3697	2.57956
10.349	2.58366
10.3284	2.68541
10.3078	2.81005
10.2874	2.83555
10.267	2.81567
10.2467	2.93085
10.2265	3.03448
10.2064	3.26602
10.1863	3.63311
10.1663	3.89199
10.1464	3.93895
10.1266	3.86205
10.1069	3.83287
10.0872	3.86246
10.0676	3.85554
10.0481	3.8271
10.0287	3.992
10.0093	4.22219
9.99005	4.41814
9.97084	4.49648
9.95169	4.65965
9.93263	4.87047
9.91364	5.01303
9.89472	5.15826
9.87587	5.30999
9.8571	5.4626
9.83839	5.70905
9.81976	5.81485
9.80119	5.86285
9.78271	5.94068
9.76428	6.0048
9.74592	6.20539
9.72764	6.45155
9.70943	6.57022
9.69128	6.69589
9.6732	6.74852
9.65518	6.77027
9.63724	6.83661
9.61935	7.04932
9.60155	7.10195
9.5838	7.08461
9.56611	7.17792
9.5485	7.16534
9.53094	7.12854
9.51345	7.04032
9.49604	6.98439
9.47867	6.91169
9.46137	6.73389
9.44414	6.55814
9.42697	6.3248
9.40986	6.01537
9.39281	5.65104
9.37583	5.39412
9.35891	4.99564
9.34204	4.67192
9.32524	4.49085
9.3085	4.21598
9.29182	4.07598
9.27519	3.8344
9.25863	3.50235
9.24213	3.28593
9.22568	3.15771
9.2093	2.98581
9.19297	2.71852
9.17669	2.61023
9.16048	2.52625
9.14433	2.2417
9.12823	2.13207
9.11218	2.18623
9.0962	2.06114
9.08027	1.90104
9.06439	1.97592
9.04858	1.93731
9.03281	1.65419
9.0171	1.50401
9.00145	1.39978
8.98585	1.45749
8.9703	1.52611
8.9548	1.42978
8.93937	1.32606
8.92398	1.39583
8.90865	1.4026
8.89337	1.35556
8.87814	1.41369
8.86296	1.30639
8.84784	1.20521
8.83277	1.1161
8.81774	1.07078
8.80277	1.14597
8.78786	1.26552
8.77298	1.234
8.75816	1.18709
8.7434	1.15056
8.72868	1.16214
8.714	1.03222
8.69938	0.837671
8.68481	0.795151
8.67029	0.963213
8.65581	1.01616
8.64139	0.979872
8.62701	1.05795
8.61268	1.12952
8.5984	0.976393
8.58416	0.791132
8.56997	0.896988
8.55583	0.991265
8.54174	0.959971
8.52769	0.859313
8.51368	0.846568
8.49973	0.863981
8.48582	0.980674
8.47195	1.19631
8.45813	1.22118
8.44436	1.0542
8.43062	1.00134
8.41693	1.09562
8.4033	1.12375
8.3897	1.07544
8.37614	1.06297
8.36264	0.981262
8.34917	0.807685
8.33574	0.896172
8.32236	1.08705
8.30903	1.17784
8.29573	1.22537
8.28248	1.27782
8.26927	1.29159
8.2561	1.38272
8.24298	1.46182
8.2299	1.42786
8.21685	1.25594
8.20385	1.22462
8.19089	1.41613
8.17797	1.54909
8.16509	1.39706
8.15225	1.41824
8.13946	1.59137
8.1267	1.51173
8.11398	1.47445
8.10131	1.62751
8.08867	1.78399
8.07606	1.7266
8.0635	1.57509
8.05099	1.52247
8.0385	1.64739
8.02606	1.73234
8.01366	1.77352
8.00129	1.841
7.98896	1.87701
7.97667	1.80104
7.96442	1.74854
7.9522	1.74091
7.94002	1.80891
7.92788	1.90061
7.91578	1.85102
7.90371	1.82243
7.89168	1.90707
7.87969	2.01843
7.86773	1.94702
7.85581	1.91665
7.84392	1.95428
7.83207	1.9683
7.82026	1.9724
7.80849	1.94178
7.79674	1.90029
7.78503	1.93106
7.77337	2.10892
7.76173	2.20307
7.75012	2.14401
7.73856	2.07202
7.72703	2.06726
7.71553	2.05763
7.70406	2.01745
7.69263	2.02608
7.68123	2.06581
7.66987	2.04957
7.65855	1.99103
7.64725	2.08172
7.63598	2.22612
7.62475	2.18313
7.61356	2.15553
7.60239	2.14365
7.59126	2.20189
7.58017	2.31535
7.5691	2.46327
7.55806	2.48734
7.54707	2.48827
7.5361	2.51136
7.52516	2.44774
7.51425	2.43478
7.50338	2.47052
7.49253	2.49019
7.48172	2.53718
7.47094	2.58268
7.46019	2.49552
7.44947	2.41436
7.43879	2.44
7.42813	2.45861
7.4175	2.48278
7.4069	2.50193
7.39634	2.48263
7.3858	2.47516
7.37529	2.52972
7.36482	2.67614
7.35437	2.77351
7.34396	2.65791
7.33357	2.61652
7.32321	2.73515
7.31288	2.81722
7.30258	2.83405
7.29231	2.84761
7.28207	2.81042
7.27185	2.78519
7.26167	2.80539
7.25152	2.78011
7.24139	2.73075
7.23129	2.6584
7.22122	2.63368
7.21117	2.64585
7.20116	2.7308
7.19117	2.84473
7.18121	2.84628
7.17128	2.77925
7.16137	2.82503
7.1515	2.87933
7.14164	2.81785
7.13182	2.81755
7.12203	2.79716
7.11225	2.76085
7.10251	2.75437
7.0928	2.79673
7.08311	2.89313
7.07344	2.88793
7.06381	2.8019
7.0542	2.7574
7.04461	2.71841
7.03506	2.73968
7.02552	2.79108
7.01601	2.87042
7.00653	2.81957
6.99708	2.83735
6.98765	2.93211
6.97824	2.93508
6.96886	2.92385
6.95951	2.94576
6.95018	3.03668
6.94087	2.98765
6.9316	2.91606
6.92234	2.92673
6.91311	2.88625
6.90391	2.84156
6.89473	2.88528
6.88557	2.94519
6.87644	2.94837
6.86733	2.9313
6.85824	2.84798
6.84918	2.85061
6.84015	2.92314
6.83114	2.88218
6.82215	2.96908
6.81319	3.06104
6.80424	2.98271
6.79532	2.83236
6.78643	2.85609
6.77756	3.07102
6.76871	3.21317
6.75989	3.21564
6.75109	3.1709
6.74231	3.22354
6.73355	3.28277
6.72482	3.25993
6.71611	3.18611
6.70742	3.14868
6.69875	3.23362
6.69011	3.25284
6.68149	3.16649
6.67289	3.13598
6.66431	3.22226
6.65576	3.26399
6.64722	3.13542
6.63871	3.0029
6.63022	3.05443
6.62175	3.1435
6.61331	3.13298
6.60488	3.14127
6.59648	3.18788
6.5881	3.1912
6.57974	3.1485
6.5714	3.14379
6.56308	3.20474
6.55478	3.30008
6.54651	3.25197
6.53825	3.20265
6.53001	3.22463
6.5218	3.15783
6.51361	3.20001
6.50544	3.21849
6.49729	3.02405
6.48915	2.92275
6.48104	2.95205
6.47295	3.0086
6.46488	3.14989
6.45683	3.19579
6.4488	3.13891
6.44079	3.0633
6.4328	2.97551
6.42482	2.91231
6.41687	2.80793
6.40894	2.81313
6.40103	2.84551
6.39314	2.81443
6.38526	2.78805
6.37741	2.71316
6.36957	2.65476
6.36176	2.6759
6.35396	2.59657
6.34618	2.41365
6.33843	2.36081
6.33069	2.39007
6.32297	2.3094
6.31527	2.28017
6.30758	2.25906
6.29992	2.16923
6.29227	2.08939
6.28465	2.1441
6.27704	2.12907
6.26945	2.01866
6.26188	1.92341
6.25432	1.93479
6.24679	1.9314
6.23927	1.84805
6.23177	1.81218
6.22429	1.75013
6.21683	1.63817
6.20938	1.61166
6.20195	1.53306
6.19454	1.45864
6.18715	1.48966
6.17978	1.52926
6.17242	1.48396
6.16508	1.40899
6.15776	1.29995
6.15045	1.2655
6.14317	1.30583
6.1359	1.40415
6.12864	1.40944
6.12141	1.31282
6.11419	1.18175
6.10699	1.1964
6.0998	1.26118
6.09263	1.23474
6.08549	1.16619
6.07835	1.18205
6.07123	1.22929
6.06413	1.21025
6.05705	1.09475
6.04998	1.08908
6.04293	1.17513
6.0359	1.23554
6.02888	1.20185
6.02187	1.18879
6.01489	1.14482
6.00792	1.09446
6.00096	1.18475
5.99403	1.16122
5.98711	1.08897
5.9802	1.21322
5.97331	1.21568
5.96644	1.20185
5.95958	1.29176
5.95274	1.34194
5.94591	1.36869
5.9391	1.41464
5.9323	1.33994
5.92552	1.35231
5.91876	1.36254
5.91201	1.36534
5.90528	1.45576
5.89856	1.44699
5.89186	1.40579
5.88517	1.4284
5.8785	1.50682
5.87184	1.58751
5.8652	1.61565
5.85857	1.71231
5.85196	1.77898
5.84536	1.80072
5.83878	1.75441
5.83221	1.7257
5.82566	1.80941
5.81912	1.87737
5.81259	1.86198
5.80608	1.92607
5.79959	2.03003
5.79311	2.11032
5.78665	2.16339
5.78019	2.22644
5.77376	2.29029
5.76734	2.28182
5.76093	2.29525
5.75453	2.40299
5.74815	2.44463
5.74179	2.45765
5.73543	2.54835
5.7291	2.6539
5.72277	2.70166
5.71646	2.68895
5.71017	2.66554
5.70389	2.75157
5.69762	2.75236
5.69136	2.76949
5.68513	2.77302
5.6789	2.80137
5.67268	2.83606
5.66648	2.87796
5.6603	2.95914
5.65413	2.97694
5.64797	2.90579
5.64182	2.8663
5.63569	3.02267
5.62957	3.09053
5.62347	3.08497
5.61737	3.08656
5.61129	3.03589
5.60522	2.97411
5.59917	3.07088
5.59313	3.20483
5.5871	3.12975
5.58109	3.0161
5.57509	3.05939
5.5691	3.07728
5.56312	3.11476
5.55716	3.1557
5.55121	3.15451
5.54528	3.20068
5.53935	3.18365
5.53344	3.14109
5.52754	3.17038
5.52166	3.18464
5.51578	3.26096
5.50992	3.3423
5.50407	3.38115
5.49823	3.31216
5.49241	3.24211
5.4866	3.26711
5.4808	3.27773
5.47501	3.33756
5.46923	3.35579
5.46347	3.36752
5.45772	3.42082
5.45198	3.40784
5.44625	3.41081
5.44054	3.44679
5.43484	3.39114
5.42914	3.29849
5.42347	3.37762
5.4178	3.47139
5.41214	3.47975
5.4065	3.43081
5.40087	3.46285
5.39525	3.51487
5.38964	3.53916
5.38404	3.6234
5.37846	3.65334
5.37288	3.63004
5.36732	3.5956
5.36177	3.6517
5.35623	3.69427
5.35071	3.7671
5.34519	3.81585
5.33968	3.7712
5.33419	3.7698
5.32871	3.88041
5.32324	3.93081
5.31778	3.92556
5.31233	3.91851
5.30689	3.88377
5.30147	3.91722
5.29605	3.91082
5.29065	3.93532
5.28525	4.02597
5.27987	3.98691
5.2745	3.95202
5.26914	4.02145
5.26379	4.11403
5.25845	4.16102
5.25312	4.18961
5.24781	4.18248
5.2425	4.1679
5.23721	4.1423
5.23192	4.20531
5.22665	4.30636
5.22138	4.32425
5.21613	4.25364
5.21089	4.21096
5.20566	4.27471
5.20044	4.30936
5.19522	4.23745
5.19002	4.23614
5.18483	4.22093
5.17965	4.20956
5.17448	4.21833
5.16933	4.20691
5.16418	4.15188
5.15904	4.08557
5.15391	4.07181
5.14879	4.09935
5.14368	4.16481
5.13859	4.21237
5.1335	4.18328
5.12842	4.12537
5.12335	4.17029
5.1183	4.21129
5.11325	4.1736
5.10821	4.11325
5.10318	4.11441
5.09817	4.20969
5.09316	4.2878
5.08816	4.27623
5.08317	4.34244
5.07819	4.5311
5.07322	4.6299
5.06826	4.67626
5.06331	4.62488
5.05837	4.55768
5.05344	4.74952
5.04852	4.89545
5.04361	4.92747
5.03871	4.93307
5.03382	4.90807
5.02894	4.90883
5.02406	4.99576
5.0192	5.06455
5.01435	5.17923
5.0095	5.23544
5.00467	5.29364
4.99984	5.428
4.99502	5.50122
4.99021	5.55292
4.98542	5.56163
4.98063	5.63512
4.97585	5.74007
4.97108	5.73071
4.96632	5.69595
4.96156	5.76592
4.95682	5.84456
4.95209	5.8542
4.94736	5.84684
4.94264	5.8676
4.93794	5.87652
4.93324	5.86145
4.92855	5.9533
4.92387	6.05362
4.9192	6.04432
4.91453	6.0283
4.90988	5.9981
4.90524	6.03752
4.9006	6.07419
4.89597	6.10658
4.89135	6.07177
4.88674	6.01604
4.88214	6.02526
4.87755	6.06971
4.87296	6.09882
4.86839	6.12191
4.86382	6.14812
4.85926	6.15167
4.85471	6.14075
4.85017	6.13822
4.84564	6.15163
4.84111	6.19956
4.8366	6.19561
4.83209	6.19449
4.82759	6.18181
4.8231	6.11086
4.81862	6.14933
4.81415	6.21298
4.80968	6.26115
4.80522	6.2261
4.80077	6.20693
4.79633	6.25052
4.7919	6.32074
4.78747	6.34421
4.78306	6.28589
4.77865	6.27462
4.77425	6.36552
4.76986	6.40824
4.76547	6.38508
4.7611	6.38643
4.75673	6.41779
4.75237	6.47945
4.74802	6.44979
4.74367	6.43135
4.73934	6.51366
4.73501	6.56918
4.73069	6.53122
4.72638	6.55737
4.72207	6.5656
4.71777	6.57059
4.71348	6.61146
4.7092	6.62066
4.70493	6.58448
4.70066	6.57734
4.69641	6.7477
4.69216	6.86072
4.68791	6.8432
4.68368	6.88559
4.67945	6.93347
4.67523	7.06796
4.67102	7.19978
4.66682	7.21403
4.66262	7.16085
4.65843	7.11184
4.65425	7.12251
4.65007	7.13339
4.64591	7.19194
4.64175	7.32426
4.6376	7.47491
4.63345	7.49553
4.62932	7.53031
4.62519	7.59251
4.62106	7.57293
4.61695	7.55838
4.61284	7.55765
4.60874	7.67017
4.60465	7.80962
4.60056	7.82312
4.59648	7.86836
4.59241	7.88618
4.58835	7.88347
4.58429	7.90515
4.58024	7.94975
4.5762	8.00039
4.57216	8.04995
4.56814	8.07565
4.56411	8.13515
4.5601	8.24252
4.55609	8.26206
4.55209	8.22516
4.5481	8.24743
4.54411	8.31044
4.54013	8.37806
4.53616	8.43459
4.5322	8.47685
4.52824	8.48606
4.52429	8.59206
4.52034	8.73179
4.51641	8.69712
4.51247	8.56865
4.50855	8.55985
4.50463	8.63132
4.50072	8.7988
4.49682	8.92863
4.49292	8.88213
4.48903	8.85553
4.48515	8.88129
4.48127	8.93435
4.4774	8.99364
4.47354	9.09926
4.46968	9.1177
4.46584	9.08234
4.46199	9.09102
4.45815	9.14664
4.45432	9.21753
4.4505	9.34348
4.44668	9.3503
4.44287	9.35179
4.43907	9.40048
4.43527	9.40976
4.43148	9.4429
4.4277	9.48551
4.42392	9.53271
4.42015	9.69059
4.41638	9.72898
4.41262	9.65273
4.40887	9.76325
4.40513	9.82882
4.40139	9.79099
4.39765	9.78844
4.39393	9.81121
4.39021	9.83739
4.38649	9.93671
4.38278	10.0695
4.37908	10.1662
4.37539	10.1725
4.3717	10.1352
4.36801	10.1648
4.36434	10.2277
4.36067	10.3142
4.357	10.3895
4.35335	10.4048
4.34969	10.4276
4.34605	10.4429
4.34241	10.3733
4.33877	10.5064
4.33514	10.6499
4.33152	10.5929
4.32791	10.556
4.3243	10.6331
4.32069	10.7206
4.3171	10.7711
4.31351	10.8714
4.30992	10.9612
4.30634	11.0514
4.30277	11.1893
4.2992	11.1457
4.29564	11.135
4.29208	11.152
4.28853	11.2271
4.28499	11.3396
4.28145	11.3393
4.27792	11.2812
4.27439	11.3654
4.27087	11.3998
4.26735	11.3637
4.26384	11.4305
4.26034	11.5281
4.25684	11.6052
4.25335	11.6503
4.24986	11.7062
4.24638	11.7053
4.24291	11.7665
4.23944	11.8722
4.23598	11.8986
4.23252	11.8904
4.22906	12.0277
4.22562	12.1233
4.22218	12.0982
4.21874	12.0591
4.21531	12.0509
4.21189	12.0219
4.20847	12.0044
4.20506	12.0375
4.20165	12.0803
4.19825	12.0493
4.19485	12.0422
4.19146	12.0314
4.18807	12.0687
4.18469	12.0713
4.18132	12.1038
4.17795	12.2003
4.17458	12.2191
4.17123	12.2213
4.16787	12.2476
4.16453	12.3347
4.16118	12.3156
4.15785	12.2718
4.15451	12.3105
4.15119	12.2827
4.14787	12.2739
4.14455	12.3112
4.14124	12.3207
4.13794	12.4363
4.13464	12.4611
4.13134	12.4052
4.12805	12.4135
4.12477	12.4734
4.12149	12.4232
4.11822	12.383
4.11495	12.4195
4.11168	12.4495
4.10843	12.4809
4.10517	12.5352
4.10192	12.5295
4.09868	12.593
4.09545	12.6735
4.09221	12.6396
4.08899	12.6351
4.08576	12.5615
4.08255	12.4842
4.07933	12.5405
4.07613	12.6153
4.07292	12.6142
4.06973	12.6166
4.06654	12.5751
4.06335	12.5558
4.06017	12.5902
4.05699	12.6618
4.05382	12.7136
4.05065	12.7873
4.04749	12.7724
4.04433	12.6537
4.04118	12.7171
4.03803	12.7333
4.03489	12.664
4.03175	12.4239
4.02862	11.901
4.02549	11.4552
4.02237	11.5626
4.01925	12.0321
4.01614	12.3916
4.01303	12.622
4.00993	12.7522
4.00683	12.7653
4.00373	12.7172
4.00064	12.7616
3.99756	12.7945
3.99448	12.7736
3.9914	12.7667
3.98833	12.6605
3.98527	12.63
3.98221	12.6368
3.97915	12.6543
3.9761	12.6658
3.97305	12.6041
3.97001	12.4935
3.96697	12.4577
3.96394	12.4689
3.96091	12.389
3.95789	12.3055
3.95487	12.2882
3.95186	12.2345
3.94885	12.1778
3.94584	12.1452
3.94284	12.0191
3.93984	11.994
3.93685	12.0634
3.93386	12.0446
3.93088	11.848
3.9279	11.5706
3.92493	11.4187
3.92196	11.5455
3.919	11.7581
3.91604	11.8608
3.91308	11.8661
3.91013	11.9344
3.90718	12.0651
3.90424	12.1697
3.9013	12.1581
3.89837	12.114
3.89544	12.0836
3.89252	12.0706
3.8896	11.9923
3.88668	11.9183
3.88377	11.9207
3.88086	11.9511
3.87796	11.9813
3.87506	12.018
3.87217	11.9625
3.86928	11.8949
3.86639	11.8842
3.86351	11.8827
3.86064	11.9093
3.85776	11.9021
3.8549	11.8297
3.85203	11.7873
3.84917	11.8322
3.84631	11.77
3.84346	11.7632
3.84062	11.7524
3.83777	11.6653
3.83494	11.5952
3.8321	11.4981
3.82927	11.4515
3.82644	11.4838
3.82362	11.4632
3.82081	11.3931
3.81799	11.4188
3.81518	11.385
3.81238	11.4283
3.80958	11.4488
3.80678	11.4088
3.80399	11.3319
3.8012	11.2451
3.79841	11.2129
3.79563	11.1937
3.79286	11.1329
3.79008	11.0242
3.78731	10.998
3.78455	10.9393
3.78179	10.8213
3.77903	10.7888
3.77628	10.7726
3.77353	10.7726
3.77079	10.6781
3.76805	10.5845
3.76531	10.507
3.76258	10.4015
3.75985	10.3567
3.75713	10.3122
3.7544	10.2189
3.75169	10.1847
3.74898	10.2053
3.74627	10.1657
3.74356	10.1391
3.74086	10.0718
3.73816	9.96947
3.73547	9.88336
3.73278	9.92365
3.7301	9.97826
3.72741	9.85638
3.72474	9.70186
3.72206	9.69924
3.71939	9.67528
3.71673	9.67268
3.71406	9.55802
3.71141	9.42327
3.70875	9.37059
3.7061	9.34139
3.70345	9.29803
3.70081	9.2682
3.69817	9.21886
3.69553	9.11723
3.6929	8.9179
3.69027	8.92162
3.68765	8.88107
3.68503	8.80076
3.68241	8.74567
3.6798	8.66566
3.67719	8.58814
3.67458	8.54105
3.67198	8.49186
3.66938	8.37702
3.66678	8.27338
3.66419	8.19659
3.66161	8.21545
3.65902	8.25611
3.65644	8.20686
3.65387	8.11822
3.65129	7.97267
3.64872	7.9169
3.64616	7.86973
3.64359	7.76841
3.64103	7.62166
3.63848	7.59134
3.63593	7.56989
3.63338	7.51521
3.63084	7.43514
3.6283	7.38789
3.62576	7.35246
3.62322	7.17757
3.62069	7.09633
3.61817	7.13629
3.61564	7.10442
3.61312	7.0107
3.61061	6.9846
3.6081	6.97822
3.60559	7.01893
3.60308	7.05535
3.60058	6.9575
3.59808	6.79105
3.59558	6.69263
3.59309	6.62961
3.59061	6.60908
3.58812	6.54996
3.58564	6.45764
3.58316	6.3636
3.58069	6.35524
3.57822	6.30091
3.57575	6.25721
3.57328	6.2499
3.57082	6.24207
3.56836	6.05085
3.56591	5.88142
3.56346	5.90515
3.56101	5.87738
3.55857	5.7805
3.55613	5.66811
3.55369	5.52815
3.55126	5.4377
3.54883	5.2783
3.5464	5.1069
3.54397	5.05265
3.54155	5.01502
3.53914	5.0801
3.53672	4.96425
3.53431	4.72108
3.5319	4.70825
3.5295	4.66629
3.5271	4.56343
3.5247	4.50898
3.52231	4.38969
3.51991	4.36595
3.51753	4.34734
3.51514	4.25455
3.51276	4.17613
3.51038	4.19751
3.50801	4.17506
3.50563	4.14916
3.50327	4.17066
3.5009	4.162
3.49854	4.12566
3.49618	4.13439
3.49382	4.15728
3.49147	4.19756
3.48912	4.17495
3.48677	4.05104
3.48443	4.06082
3.48209	4.13525
3.47975	4.17507
3.47742	4.15946
3.47509	4.12277
3.47276	4.1256
3.47044	3.99641
3.46812	3.94238
3.4658	4.04273
3.46348	4.05325
3.46117	3.96728
3.45886	3.87188
3.45656	3.88094
3.45425	3.97553
3.45195	3.90286
3.44966	3.80637
3.44736	3.83626
3.44507	3.84286
3.44279	3.72046
3.4405	3.65204
3.43822	3.74096
3.43594	3.74687
3.43367	3.73359
3.43139	3.69556
3.42912	3.69207
3.42686	3.68561
3.42459	3.57502
3.42233	3.49095
3.42007	3.61188
3.41782	3.59814
3.41557	3.48448
3.41332	3.50469
3.41108	3.45484
3.40883	3.35905
3.40659	3.23857
3.40435	3.15273
3.40212	3.18544
3.39989	3.22078
3.39766	3.11936
3.39544	3.14016
3.39322	3.22123
3.391	3.13922
3.38878	3.07656
3.38657	3.06287
3.38436	3.02661
3.38215	3.04729
3.37994	3.02191
3.37774	2.97845
3.37554	2.94674
3.37335	2.90561
3.37115	2.89947
3.36896	2.83364
3.36678	2.7169
3.36459	2.61743
3.36241	2.52808
3.36023	2.55649
3.35805	2.65105
3.35588	2.67578
3.35371	2.65616
3.35154	2.59277
3.34938	2.49272
3.34721	2.46696
3.34505	2.49685
3.3429	2.53181
3.34074	2.49109
3.33859	2.51258
3.33644	2.58041
3.3343	2.59108
3.33215	2.64296
3.33001	2.66628
3.32788	2.60273
3.32574	2.49427
3.32361	2.49426
3.32148	2.49855
3.31936	2.42294
3.31723	2.40116
3.31511	2.3298
3.31299	2.28655
3.31088	2.30183
3.30876	2.28113
3.30665	2.36674
3.30455	2.31853
3.30244	2.27515
3.30034	2.3104
3.29824	2.24717
3.29614	2.19417
3.29405	2.32234
3.29196	2.31481
3.28987	2.20428
3.28778	2.1375
3.2857	2.07434
3.28362	2.07542
3.28154	2.10552
3.27946	2.12119
3.27739	2.10815
3.27532	2.17988
3.27325	2.14271
3.27119	2.12642
3.26913	2.14334
3.26707	2.14577
3.26501	2.14143
3.26295	2.10261
3.2609	2.05568
3.25885	1.96636
3.2568	1.98734
3.25476	2.04445
3.25272	2.05071
3.25068	2.0673
3.24864	1.94449
3.24661	1.88421
3.24458	1.90673
3.24255	1.95892
3.24052	2.05374
3.2385	2.00855
3.23648	1.90571
3.23446	1.88711
3.23244	1.98737
3.23043	2.01144
3.22841	1.9397
3.2264	1.95519
3.2244	1.95528
3.22239	1.89747
3.22039	1.94987
3.21839	1.94552
3.2164	1.84876
3.2144	1.82698
3.21241	1.83697
3.21042	1.93429
3.20844	2.04021
3.20645	1.97215
3.20447	1.85518
3.20249	1.86678
3.20051	1.92424
3.19854	1.87303
3.19657	1.84267
3.1946	1.81457
3.19263	1.7043
3.19067	1.63567
3.1887	1.71435
3.18674	1.81903
3.18479	1.80344
3.18283	1.76873
3.18088	1.75847
3.17893	1.74218
3.17698	1.66461
3.17504	1.70874
3.17309	1.75158
3.17115	1.71267
3.16921	1.6618
3.16728	1.6718
3.16534	1.64976
3.16341	1.69364
3.16148	1.70735
3.15956	1.62303
3.15763	1.6734
3.15571	1.78858
3.15379	1.756
3.15187	1.78047
3.14996	1.93368
3.14805	1.83623
3.14614	1.67581
3.14423	1.67975
3.14232	1.77935
3.14042	1.73484
3.13852	1.61658
3.13662	1.60492
3.13472	1.57511
3.13283	1.68946
3.13094	1.88596
3.12905	1.83117
3.12716	1.61494
3.12528	1.57436
3.12339	1.56473
3.12151	1.53287
3.11964	1.5737
3.11776	1.72942
3.11589	1.82702
3.11401	1.73073
3.11214	1.58914
3.11028	1.62623
3.10841	1.72376
3.10655	1.60328
3.10469	1.67356
3.10283	1.87775
3.10098	1.83479
3.09912	1.68903
3.09727	1.70445
3.09542	1.71086
3.09358	1.70007
3.09173	1.6553
3.08989	1.64723
3.08805	1.71753
3.08621	1.77917
3.08437	1.7076
3.08254	1.61554
3.08071	1.67058
3.07888	1.684
3.07705	1.63477
3.07523	1.70103
3.0734	1.73864
3.07158	1.80989
3.06977	1.81878
3.06795	1.69194
3.06613	1.6963
3.06432	1.77011
3.06251	1.75679
3.0607	1.73301
3.0589	1.75947
3.0571	1.72254
3.05529	1.71607
3.05349	1.72859
3.0517	1.75055
3.0499	1.81951
3.04811	1.74822
3.04632	1.68964
3.04453	1.72149
3.04274	1.82505
3.04096	1.85545
3.03918	1.85631
3.0374	1.87457
3.03562	1.9606
3.03384	1.9841
3.03207	1.9179
3.03029	1.95416
3.02852	1.97495
3.02676	1.94094
3.02499	2.06252
3.02323	2.09612
3.02146	1.95315
3.0197	1.99412
3.01795	2.11807
3.01619	2.18313
3.01444	2.16509
3.01269	2.20903
3.01094	2.3072
3.00919	2.47623
3.00744	2.74034
3.0057	2.87857
3.00396	2.95301
3.00222	3.06337
3.00048	3.1285
2.99875	3.299
2.99701	3.45231
2.99528	3.5087
2.99355	3.69958
2.99183	3.6144
2.9901	3.70476
2.98838	3.86389
2.98666	3.8674
2.98494	3.81727
2.98322	3.6259
2.9815	3.40424
2.97979	3.31898
2.97808	2.97913
2.97637	2.74107
2.97466	2.62841
2.97295	2.32497
2.97125	1.91937
2.96955	1.80904
2.96785	1.79787
2.96615	1.65558
2.96446	1.40514
2.96276	1.35984
2.96107	1.35433
2.95938	1.16255
2.95769	0.946695
2.95601	0.750608
2.95432	0.933969
2.95264	1.18793
2.95096	1.14567
2.94928	1.06236
2.9476	1.07636
2.94593	1.15518
2.94425	1.29017
2.94258	1.30609
2.94092	1.26473
2.93925	1.12604
2.93758	1.0491
2.93592	1.31383
2.93426	1.36088
2.9326	1.24798
2.93094	1.42949
2.92928	1.48023
2.92763	1.37342
2.92598	1.40045
2.92433	1.5264
2.92268	1.61474
2.92103	1.55074
2.91939	1.6168
2.91775	1.66571
2.9161	1.65056
2.91447	1.6366
2.91283	1.71644
2.91119	1.89748
2.90956	1.9093
2.90793	2.02679
2.9063	2.06794
2.90467	2.01998
2.90304	2.24263
2.90142	2.38597
2.89979	2.41148
2.89817	2.28915
2.89656	2.00186
2.89494	1.8664
2.89332	1.77726
2.89171	1.66978
2.8901	1.49667
2.88849	1.23398
2.88688	1.08373
2.88527	1.04137
2.88367	0.887018
2.88206	0.832296
2.88046	0.969745
2.87886	1.04091
2.87727	0.954572
2.87567	0.92266
2.87408	0.916163
2.87248	0.873035
2.87089	0.922936
2.8693	0.87918
2.86772	0.950511
2.86613	0.936772
2.86455	0.969691
2.86297	0.933347
2.86139	0.758894
2.85981	0.765674
2.85823	1.02368
2.85666	1.04462
2.85508	0.927305
2.85351	0.867349
2.85194	0.995493
2.85038	1.03374
2.84881	0.985052
2.84724	0.882759
2.84568	0.921238
2.84412	0.864498
2.84256	1.01288
2.841	1.31849
2.83945	1.19461
2.83789	1.00694
2.83634	1.11975
2.83479	1.16972
2.83324	1.03416
2.83169	1.00312
2.83015	1.08079
2.82861	1.15531
2.82706	1.00926
2.82552	0.934886
2.82398	1.08539
2.82245	1.07926
2.82091	0.996611
2.81938	1.11327
2.81784	1.32189
2.81631	1.3488
2.81479	1.19286
2.81326	1.20892
2.81173	1.22293
2.81021	1.08009
2.80869	1.10065
2.80716	1.25999
2.80565	1.15066
2.80413	1.122
2.80261	1.22653
2.8011	1.257
2.79959	1.25473
2.79808	1.23503
2.79657	1.21421
2.79506	1.28595
2.79355	1.3014
2.79205	1.28833
2.79055	1.27777
2.78904	1.17335
2.78754	1.1162
2.78605	1.05706
2.78455	1.11639
2.78306	1.327
2.78156	1.38058
2.78007	1.24396
2.77858	1.12993
2.77709	1.2795
2.77561	1.39774
2.77412	1.3473
2.77264	1.37274
2.77116	1.53308
2.76968	1.60027
2.7682	1.52596
2.76672	1.56235
2.76524	1.5709
2.76377	1.53145
2.7623	1.39627
2.76083	1.4169
2.75936	1.68144
2.75789	1.78936
2.75642	1.73046
2.75496	1.60437
2.7535	1.82406
2.75203	2.1629
2.75057	2.12197
2.74912	1.98656
2.74766	1.85508
2.7462	1.98926
2.74475	2.23213
2.7433	2.10115
2.74185	2.04236
2.7404	2.22456
2.73895	2.25031
2.7375	2.21471
2.73606	2.32599
2.73462	2.4587
2.73318	2.5253
2.73174	2.66055
2.7303	2.76347
2.72886	2.9238
2.72742	2.90057
2.72599	2.79936
2.72456	2.81739
2.72313	2.89937
2.7217	3.08495
2.72027	3.24113
2.71884	3.27439
2.71742	3.21207
2.71599	3.21621
2.71457	3.38043
2.71315	3.46905
2.71173	3.45388
2.71032	3.49917
2.7089	3.61559
2.70748	3.72055
2.70607	3.96937
2.70466	4.10041
2.70325	4.04594
2.70184	4.059
2.70043	4.33681
2.69903	4.49396
2.69762	4.7327
2.69622	4.87839
2.69482	5.04445
2.69342	5.21199
2.69202	5.50595
2.69062	5.74945
2.68923	5.8492
2.68783	6.12602
2.68644	6.50641
2.68505	6.74584
2.68366	6.97575
2.68227	7.17135
2.68089	7.33665
2.6795	7.42011
2.67812	7.59231
2.67673	7.81277
2.67535	8.16239
2.67397	8.41834
2.6726	8.46867
2.67122	8.30135
2.66984	8.63118
2.66847	9.0881
2.6671	8.95717
2.66572	8.98274
2.66435	9.39795
2.66299	9.88867
2.66162	10.069
2.66025	10.0966
2.65889	10.3068
2.65753	10.5389
2.65616	10.6255
2.65481	10.8632
2.65345	10.9709
2.65209	11.0324
2.65073	11.3421
2.64938	11.4643
2.64803	11.4666
2.64667	11.4931
2.64532	11.5442
2.64397	11.661
2.64263	11.7234
2.64128	11.8062
2.63994	11.8658
2.63859	11.7983
2.63725	11.7099
2.63591	11.7497
2.63457	11.8301
2.63323	11.9282
2.6319	11.8429
2.63056	11.6153
2.62923	11.8403
2.62789	12.0367
2.62656	12.2391
2.62523	12.6194
2.6239	12.8034
2.62258	12.9599
2.62125	12.9345
2.61993	13.0179
2.6186	13.1349
2.61728	12.8752
2.61596	13.0939
2.61464	13.3567
2.61332	13.3834
2.61201	13.5523
2.61069	13.4988
2.60938	13.3504
2.60807	13.4255
2.60675	13.3053
2.60544	13.1991
2.60414	13.4403
2.60283	13.6578
2.60152	13.7396
2.60022	13.8373
2.59891	14.0795
2.59761	14.1397
2.59631	13.6564
2.59501	13.0058
2.59371	13.5433
2.59242	14.3009
2.59112	14.6374
2.58983	14.6582
2.58853	14.4885
2.58724	14.449
2.58595	14.8206
2.58466	14.752
2.58338	14.6727
2.58209	14.9101
2.5808	15.0991
2.57952	15.5056
2.57824	15.5592
2.57695	15.4588
2.57567	15.5304
2.5744	15.6281
2.57312	15.7718
2.57184	16.1255
2.57057	16.0047
2.56929	15.8397
2.56802	16.104
2.56675	16.2956
2.56548	16.2171
2.56421	15.9805
2.56294	15.8389
2.56168	15.8055
2.56041	16.0517
2.55915	16.2423
2.55789	16.2493
2.55662	16.2353
2.55536	16.1845
2.5541	16.1733
2.55285	16.1725
2.55159	16.2495
2.55034	16.5815
2.54908	16.9921
2.54783	17.2234
2.54658	17.3656
2.54533	17.5015
2.54408	17.5541
2.54283	17.7052
2.54159	17.9414
2.54034	18.1953
2.5391	18.503
2.53785	18.6883
2.53661	18.7137
2.53537	18.8644
2.53413	19.1486
2.53289	19.2612
2.53166	19.353
2.53042	19.5467
2.52919	19.7179
2.52795	19.7903
2.52672	19.894
2.52549	20.209
2.52426	20.3752
2.52303	20.3098
2.52181	20.4229
2.52058	20.7383
2.51936	21.0271
2.51813	21.1571
2.51691	21.4933
2.51569	21.7994
2.51447	21.882
2.51325	22.0387
2.51203	22.1817
2.51082	22.3781
2.5096	22.5389
2.50839	22.6791
2.50717	22.8166
2.50596	22.9974
2.50475	23.1314
2.50354	23.079
2.50233	23.1069
2.50113	23.2929
2.49992	23.4495
2.49872	23.4441
2.49751	23.4101
2.49631	23.5415
2.49511	23.5778
2.49391	23.5961
2.49271	23.4573
2.49151	23.3172
2.49031	23.3322
2.48912	23.4597
2.48792	23.485
2.48673	23.1674
2.48554	22.9511
2.48435	22.8201
2.48316	22.5434
2.48197	22.272
2.48078	22.0342
2.4796	21.7995
2.47841	21.483
2.47723	21.082
2.47604	20.8463
2.47486	20.4487
2.47368	19.8535
2.4725	19.2908
2.47132	18.8193
2.47014	18.467
2.46897	18.1424
2.46779	17.9279
2.46662	17.7173
2.46545	17.817
2.46427	18.2096
2.4631	18.7897
2.46193	19.4129
2.46077	20.2925
2.4596	21.2517
2.45843	22.0492
2.45727	22.6438
2.4561	23.265
2.45494	23.9108
2.45378	24.2982
2.45262	24.6316
2.45146	25.0905
2.4503	25.5621
2.44914	25.6829
2.44799	25.7483
2.44683	25.9575
2.44568	26.194
2.44452	26.4075
2.44337	26.5487
2.44222	26.8135
2.44107	27.1817
2.43992	27.3362
2.43877	27.5081
2.43763	27.6574
2.43648	27.7898
2.43534	27.9386
2.43419	28.2549
2.43305	28.3799
2.43191	28.4108
2.43077	28.5297
2.42963	28.5743
2.42849	28.5999
2.42736	28.7149
2.42622	28.8699
2.42509	28.9188
2.42395	28.9352
2.42282	28.9646
2.42169	28.9916
2.42056	29.0893
2.41943	29.1381
2.4183	29.0722
2.41717	29.0382
2.41605	29.0605
2.41492	29.0525
2.4138	29.0482
2.41267	29.1042
2.41155	29.0678
2.41043	28.969
2.40931	28.8115
2.40819	28.7821
2.40707	28.7369
2.40595	28.5276
2.40484	28.4339
2.40372	28.4403
2.40261	28.3571
2.4015	28.2265
2.40039	28.1418
2.39928	28.3082
2.39817	28.4257
2.39706	28.5456
2.39595	28.618
2.39484	28.7094
2.39374	28.8872
2.39263	29.1617
2.39153	29.3418
2.39043	29.4522
2.38932	29.5657
2.38822	29.6804
2.38712	29.6429
2.38603	29.5831
2.38493	29.5326
2.38383	29.4914
2.38274	29.4096
2.38164	29.2145
2.38055	29.0854
2.37946	29.0118
2.37836	28.9479
2.37727	28.8535
2.37618	28.9083
2.3751	29.0675
2.37401	29.1415
2.37292	29.1667
2.37184	29.3597
2.37075	29.5442
2.36967	29.6381
2.36859	29.7422
2.3675	29.9051
2.36642	30.0231
2.36534	30.2574
2.36427	30.4285
2.36319	30.4542
2.36211	30.45
2.36104	30.5086
2.35996	30.5404
2.35889	30.5427
2.35781	30.5102
2.35674	30.4991
2.35567	30.5323
2.3546	30.7378
2.35353	30.9462
2.35247	30.8925
2.3514	30.6882
2.35033	30.5799
2.34927	30.7001
2.3482	30.7422
2.34714	30.5284
2.34608	30.2699
2.34502	29.948
2.34396	29.6203
2.3429	29.5481
2.34184	29.5909
2.34078	29.4355
2.33973	29.1542
2.33867	29.0395
2.33762	29.075
2.33656	29.2249
2.33551	29.6082
2.33446	29.9188
2.33341	30.1112
2.33236	30.6127
2.33131	31.181
2.33026	31.5258
2.32922	31.8729
2.32817	32.2239
2.32712	32.5817
2.32608	32.868
2.32504	33.087
2.324	33.2282
2.32295	33.3634
2.32191	33.3434
2.32087	33.1338
2.31984	33.1124
2.3188	33.2692
2.31776	33.2738
2.31673	33.2005
2.31569	33.212
2.31466	33.163
2.31362	33.2398
2.31259	33.5052
2.31156	33.6644
2.31053	33.6824
2.3095	33.7429
2.30847	33.8167
2.30745	33.8893
2.30642	33.9921
2.3054	33.8856
2.30437	34.0511
2.30335	34.3753
2.30232	34.5182
2.3013	34.3587
2.30028	34.4567
2.29926	34.662
2.29824	34.7956
2.29722	34.9648
2.29621	35.0926
2.29519	35.041
2.29417	34.9421
2.29316	34.8622
2.29215	34.7714
2.29113	34.7498
2.29012	34.8476
2.28911	34.6647
2.2881	34.4111
2.28709	34.2856
2.28608	34.0535
2.28507	33.9112
2.28407	33.7356
2.28306	33.5585
2.28206	33.5352
2.28105	33.6835
2.28005	33.6523
2.27905	33.5219
2.27805	33.4213
2.27705	33.5839
2.27605	33.7463
2.27505	33.6558
2.27405	33.602
2.27305	33.8626
2.27206	33.9476
2.27106	33.8434
2.27007	33.7469
2.26907	33.6677
2.26808	33.6219
2.26709	33.5521
2.2661	33.5336
2.26511	33.4898
2.26412	33.5194
2.26313	33.6452
2.26214	33.5914
2.26116	33.4491
2.26017	33.2671
2.25919	33.1015
2.2582	33.1377
2.25722	33.1905
2.25624	33.2016
2.25526	33.1632
2.25428	33.2049
2.2533	33.4691
2.25232	33.6301
2.25134	33.6662
2.25036	33.9467
2.24939	34.1617
2.24841	34.3001
2.24744	34.6288
2.24646	34.9933
2.24549	35.3496
2.24452	35.5641
2.24355	35.6832
2.24257	36.2064
2.24161	36.7583
2.24064	36.9926
2.23967	37.3281
2.2387	37.8975
2.23774	38.2189
2.23677	38.5868
2.23581	39.0645
2.23484	39.36
2.23388	39.6227
2.23292	39.8581
2.23196	40.0304
2.231	40.3576
2.23004	40.6741
2.22908	40.8439
2.22812	40.9041
2.22716	41.0212
2.22621	41.2988
2.22525	41.3458
2.2243	41.4169
2.22334	41.6511
2.22239	41.8425
2.22144	41.8886
2.22049	41.9901
2.21953	41.9915
2.21859	42.0437
2.21764	42.1557
2.21669	42.1223
2.21574	41.9273
2.21479	41.8198
2.21385	41.7947
2.2129	41.6656
2.21196	41.5773
2.21102	41.6145
2.21007	41.565
2.20913	41.3553
2.20819	41.404
2.20725	41.4894
2.20631	41.6785
2.20537	41.9023
2.20444	42.0331
2.2035	42.1713
2.20256	42.295
2.20163	42.3543
2.20069	42.3728
2.19976	42.4539
2.19883	42.6077
2.19789	42.7427
2.19696	42.7554
2.19603	42.5947
2.1951	42.5951
2.19417	42.8054
2.19325	42.9231
2.19232	42.982
2.19139	43.1612
2.19047	43.1916
2.18954	43.24
2.18862	43.2906
2.18769	43.39
2.18677	43.5577
2.18585	43.689
2.18493	43.6677
2.18401	43.4623
2.18309	43.3286
2.18217	43.3988
2.18125	43.5828
2.18033	43.5952
2.17942	43.3385
2.1785	43.2369
2.17759	43.3877
2.17667	43.3521
2.17576	43.2348
2.17485	43.1486
2.17393	43.0669
2.17302	42.9713
2.17211	42.7015
2.1712	42.3621
2.17029	42.068
2.16939	41.7411
2.16848	41.575
2.16757	41.295
2.16667	40.849
2.16576	40.5908
2.16486	40.1386
2.16395	39.5563
2.16305	39.0435
2.16215	38.5874
2.16125	38.0865
2.16035	37.8739
2.15945	37.7896
2.15855	37.7146
2.15765	37.9223
2.15675	38.3033
2.15586	38.6695
2.15496	39.029
2.15406	39.5174
2.15317	39.9171
2.15228	40.4028
2.15138	41.0622
2.15049	41.3728
2.1496	41.7808
2.14871	42.3331
2.14782	42.7976
2.14693	43.2277
2.14604	43.6517
2.14515	44.0944
2.14427	44.5109
2.14338	44.7814
2.14249	44.9553
2.14161	45.2928
2.14072	45.7121
2.13984	45.8548
2.13896	45.9913
2.13808	46.281
2.13719	46.3946
2.13631	46.5669
2.13543	46.8849
2.13455	47.0834
2.13368	47.0408
2.1328	47.0384
2.13192	47.1559
2.13105	47.236
2.13017	47.3737
2.1293	47.4104
2.12842	47.4384
2.12755	47.5902
2.12668	47.6451
2.1258	47.7001
2.12493	47.617
2.12406	47.4975
2.12319	47.5514
2.12232	47.5364
2.12145	47.5338
2.12059	47.5371
2.11972	47.5932
2.11885	47.5665
2.11799	47.5577
2.11712	47.6693
2.11626	47.6632
2.1154	47.6092
2.11453	47.6603
2.11367	47.5162
2.11281	47.453
2.11195	47.7312
2.11109	47.7105
2.11023	47.466
2.10937	47.3756
2.10851	47.3597
2.10766	47.3028
2.1068	47.1691
2.10594	47.0238
2.10509	47.0505
2.10423	47.0862
2.10338	47.289
2.10253	47.1979
2.10168	46.8697
2.10082	46.7029
2.09997	46.835
2.09912	47.1047
2.09827	47.1524
2.09742	47.067
2.09658	47.0733
2.09573	47.0003
2.09488	46.8421
2.09404	47.0693
2.09319	47.2332
2.09235	47.1755
2.0915	47.1622
2.09066	47.2901
2.08982	47.1936
2.08897	47.0792
2.08813	47.0065
2.08729	46.9466
2.08645	46.7951
2.08561	46.7438
2.08477	46.7997
2.08394	46.9953
2.0831	46.7892
2.08226	46.4006
2.08143	46.6627
2.08059	46.8923
2.07976	46.9497
2.07892	46.662
2.07809	46.3684
2.07726	46.2972
2.07643	46.445
2.07559	46.4938
2.07476	46.6979
2.07393	46.9133
2.0731	46.6308
2.07228	46.4535
2.07145	46.3389
2.07062	46.0773
2.06979	46.2428
2.06897	46.1801
2.06814	46.2408
2.06732	46.0537
2.06649	45.6581
2.06567	45.6047
2.06485	45.7889
2.06403	45.6839
2.0632	45.4759
2.06238	45.6238
2.06156	45.5825
2.06074	45.3852
2.05993	45.3863
2.05911	45.3038
2.05829	45.0414
2.05747	44.8251
2.05666	44.9014
2.05584	45.1539
2.05503	44.9661
2.05421	44.7274
2.0534	44.7655
2.05259	44.7463
2.05177	44.5316
2.05096	44.3876
2.05015	44.3728
2.04934	44.239
2.04853	44.1013
2.04772	44.0315
2.04691	43.8538
2.04611	43.7596
2.0453	43.7052
2.04449	43.5998
2.04369	43.4605
2.04288	43.3085
2.04208	43.3057
2.04127	43.3888
2.04047	43.2341
2.03967	42.9746
2.03886	42.7531
2.03806	42.6166
2.03726	42.3334
2.03646	42.032
2.03566	41.947
2.03486	41.9197
2.03407	41.8215
2.03327	41.7608
2.03247	41.4837
2.03167	41.0592
2.03088	40.6693
2.03008	40.7499
2.02929	40.7925
2.0285	40.47
2.0277	40.5109
2.02691	40.6866
2.02612	40.5116
2.02533	40.2647
2.02453	40.1271
2.02374	39.8461
2.02295	39.5614
2.02217	39.6108
2.02138	39.7138
2.02059	39.5301
2.0198	39.2813
2.01902	39.155
2.01823	38.9987
2.01744	38.8502
2.01666	38.7783
2.01588	38.7105
2.01509	38.6771
2.01431	38.4425
2.01353	38.1749
2.01275	37.9812
2.01196	37.73
2.01118	37.5274
2.0104	37.2184
2.00963	36.8859
2.00885	36.4565
2.00807	36.3546
2.00729	36.2399
2.00651	35.9063
2.00574	35.6835
2.00496	35.3121
2.00419	34.7699
2.00341	34.2896
2.00264	33.9834
2.00187	33.7053
2.00109	33.4702
2.00032	33.294
