Name: Serpentine
Type: Rock
Class: Metamorphic
Subclass: 
Particle Size: Solid surface
Sample No.: Ward99.txt
Owner: JPL
Wavelength range:  VNIR SWIR IR 
Origin: Ward's Collection of American Rocks.  Sample locality - Cardiff, harford County, Maryland.  Collected by - JPL.
Collected by:  Ward's Natural Science
Description: A dark greenish gray serpentine rock with bright green areas
mottled with dark gray.  Slicken-sides are common.  Magnesite is
abundant.  Picrolite is sometimes present.  Magnetite, pyrite and
pyrrhotite are often present.  Geologic age - Pre-Cambrian


Measurement: Hemispherical reflectance
First Column: X
Second Column: Y
X Units: Wavelength (micrometers)
Y Units: Reflectance (percent)
First X Value: 2.500
Last X Value: 0.400
Number of X Values: 2101
Additional information: None

2.500  11.034960
2.499  10.637039
2.498  11.084748
2.497  10.994593
2.496  10.652230
2.495  10.984062
2.494  11.045787
2.493  10.998657
2.492  11.246030
2.491  11.010473
2.490  11.347154
2.489  11.136308
2.488  11.250599
2.487  11.243022
2.486  11.421520
2.485  11.157573
2.484  11.493671
2.483  11.329296
2.482  11.542641
2.481  11.259418
2.480  11.646527
2.479  11.446145
2.478  11.542857
2.477  11.471290
2.476  11.895048
2.475  11.634719
2.474  11.917746
2.473  11.756214
2.472  11.687799
2.471  11.583093
2.470  11.747703
2.469  11.624594
2.468  11.888154
2.467  11.741531
2.466  11.746297
2.465  11.602865
2.464  11.863406
2.463  11.633562
2.462  11.781607
2.461  11.627890
2.460  11.656149
2.459  11.746841
2.458  11.718913
2.457  11.653179
2.456  11.842656
2.455  11.548533
2.454  11.620973
2.453  11.581169
2.452  11.748072
2.451  11.719805
2.450  11.802372
2.449  11.672917
2.448  11.812669
2.447  11.701287
2.446  11.803242
2.445  11.666071
2.444  11.823472
2.443  11.784537
2.442  11.803214
2.441  11.679631
2.440  11.745193
2.439  11.605733
2.438  11.837561
2.437  11.642421
2.436  12.003215
2.435  11.800291
2.434  11.942562
2.433  11.782085
2.432  11.805696
2.431  11.853210
2.430  11.937909
2.429  11.858004
2.428  11.936774
2.427  11.771509
2.426  11.962239
2.425  11.864507
2.424  11.977221
2.423  11.852185
2.422  12.068036
2.421  12.005501
2.420  12.065414
2.419  12.120652
2.418  12.210666
2.417  12.112115
2.416  12.224757
2.415  12.206829
2.414  12.236728
2.413  12.162763
2.412  12.283920
2.411  12.263577
2.410  12.295441
2.409  12.241743
2.408  12.272667
2.407  12.276006
2.406  12.303453
2.405  12.209504
2.404  12.297408
2.403  12.222181
2.402  12.253222
2.401  12.285028
2.400  12.306578
2.399  12.294163
2.398  12.358344
2.397  12.319005
2.396  12.307902
2.395  12.201643
2.394  12.237609
2.393  12.208867
2.392  12.204501
2.391  12.239963
2.390  12.211218
2.389  12.120759
2.388  12.152992
2.387  12.193811
2.386  12.212895
2.385  12.176600
2.384  12.148079
2.383  12.069539
2.382  12.147721
2.381  12.257426
2.380  12.325693
2.379  12.382158
2.378  12.434691
2.377  12.449633
2.376  12.511252
2.375  12.635169
2.374  12.767454
2.373  12.780451
2.372  12.808990
2.371  12.868280
2.370  13.005139
2.369  13.009650
2.368  13.026457
2.367  13.039277
2.366  13.136382
2.365  13.180997
2.364  13.233122
2.363  13.262480
2.362  13.249356
2.361  13.259380
2.360  13.284586
2.359  13.299452
2.358  13.275500
2.357  13.246274
2.356  13.188562
2.355  13.132693
2.354  13.032689
2.353  12.900203
2.352  12.840318
2.351  12.765931
2.350  12.652308
2.349  12.556387
2.348  12.468879
2.347  12.297729
2.346  12.043999
2.345  11.941309
2.344  11.799845
2.343  11.668096
2.342  11.578176
2.341  11.446414
2.340  11.263380
2.339  11.158378
2.338  11.031441
2.337  10.906056
2.336  10.790911
2.335  10.670277
2.334  10.579817
2.333  10.522324
2.332  10.446246
2.331  10.414299
2.330  10.296921
2.329  10.234479
2.328  10.208341
2.327  10.187333
2.326  10.086450
2.325  10.152159
2.324  10.136092
2.323  10.101539
2.322  10.119021
2.321  10.178107
2.320  10.183986
2.319  10.256991
2.318  10.209477
2.317  10.326890
2.316  10.391763
2.315  10.500318
2.314  10.555665
2.313  10.585831
2.312  10.676584
2.311  10.754750
2.310  10.736669
2.309  10.940095
2.308  10.995938
2.307  11.162747
2.306  11.108283
2.305  11.256542
2.304  11.321448
2.303  11.475119
2.302  11.496883
2.301  11.697366
2.300  11.826330
2.299  11.896894
2.298  11.943173
2.297  12.093509
2.296  12.129925
2.295  12.260889
2.294  12.369276
2.293  12.489455
2.292  12.533187
2.291  12.530811
2.290  12.621356
2.289  12.765622
2.288  12.752437
2.287  12.846327
2.286  12.873579
2.285  12.952582
2.284  12.999672
2.283  13.189342
2.282  13.230336
2.281  13.333863
2.280  13.389646
2.279  13.507590
2.278  13.587355
2.277  13.815410
2.276  13.789053
2.275  14.023092
2.274  14.028402
2.273  14.155160
2.272  14.204632
2.271  14.326432
2.270  14.394202
2.269  14.611837
2.268  14.580930
2.267  14.672088
2.266  14.748777
2.265  14.923864
2.264  14.896261
2.263  15.096299
2.262  15.140320
2.261  15.306418
2.260  15.280425
2.259  15.459282
2.258  15.451745
2.257  15.560742
2.256  15.571824
2.255  15.667740
2.254  15.716891
2.253  15.807260
2.252  15.859728
2.251  15.956511
2.250  15.893380
2.249  16.159619
2.248  16.102655
2.247  16.246254
2.246  16.285185
2.245  16.402154
2.244  16.391872
2.243  16.528872
2.242  16.530661
2.241  16.723127
2.240  16.823782
2.239  16.903786
2.238  16.950028
2.237  17.120873
2.236  17.223566
2.235  17.463890
2.234  17.388999
2.233  17.636794
2.232  17.751489
2.231  17.898147
2.230  18.018891
2.229  18.188236
2.228  18.295664
2.227  18.443572
2.226  18.488579
2.225  18.775485
2.224  18.799395
2.223  18.831340
2.222  19.006421
2.221  19.105733
2.220  19.232580
2.219  19.409133
2.218  19.416947
2.217  19.537676
2.216  19.534304
2.215  19.731952
2.214  19.739110
2.213  19.891536
2.212  19.756684
2.211  19.810775
2.210  19.935737
2.209  20.019548
2.208  19.963938
2.207  20.123248
2.206  20.040022
2.205  20.181882
2.204  20.019704
2.203  20.294454
2.202  20.269007
2.201  20.320295
2.200  20.268752
2.199  20.393403
2.198  20.198731
2.197  20.412280
2.196  20.368102
2.195  20.481213
2.194  20.371333
2.193  20.546560
2.192  20.450901
2.191  20.537515
2.190  20.343570
2.189  20.491857
2.188  20.456688
2.187  20.539761
2.186  20.489206
2.185  20.543066
2.184  20.440055
2.183  20.562339
2.182  20.423773
2.181  20.617798
2.180  20.551537
2.179  20.498862
2.178  20.482456
2.177  20.592520
2.176  20.462958
2.175  20.587258
2.174  20.453034
2.173  20.458063
2.172  20.529471
2.171  20.504146
2.170  20.480836
2.169  20.500988
2.168  20.442959
2.167  20.452897
2.166  20.386927
2.165  20.446660
2.164  20.344512
2.163  20.438443
2.162  20.273279
2.161  20.351373
2.160  20.255335
2.159  20.269686
2.158  20.248400
2.157  20.307276
2.156  20.210107
2.155  20.189567
2.154  20.174288
2.153  20.160415
2.152  20.103492
2.151  20.130630
2.150  19.948699
2.149  20.038285
2.148  19.939111
2.147  19.957274
2.146  19.919918
2.145  19.944247
2.144  19.861338
2.143  19.867837
2.142  19.801666
2.141  19.804059
2.140  19.751354
2.139  19.726062
2.138  19.594867
2.137  19.651168
2.136  19.522706
2.135  19.587646
2.134  19.479518
2.133  19.553572
2.132  19.463397
2.131  19.560488
2.130  19.501322
2.129  19.552927
2.128  19.455567
2.127  19.473072
2.126  19.517828
2.125  19.595354
2.124  19.532072
2.123  19.646357
2.122  19.588576
2.121  19.584599
2.120  19.659466
2.119  19.703567
2.118  19.664383
2.117  19.718549
2.116  19.714270
2.115  19.737004
2.114  19.610157
2.113  19.747768
2.112  19.705578
2.111  19.633192
2.110  19.636952
2.109  19.702339
2.108  19.597482
2.107  19.584025
2.106  19.546704
2.105  19.547840
2.104  19.512495
2.103  19.567516
2.102  19.607925
2.101  19.557911
2.100  19.481990
2.099  19.530035
2.098  19.541932
2.097  19.598751
2.096  19.648604
2.095  19.726583
2.094  19.760984
2.093  19.762933
2.092  19.812899
2.091  19.870683
2.090  19.920195
2.089  20.070178
2.088  20.114309
2.087  20.223648
2.086  20.309812
2.085  20.365848
2.084  20.414105
2.083  20.537227
2.082  20.634131
2.081  20.755214
2.080  20.855118
2.079  20.934204
2.078  20.987524
2.077  21.021597
2.076  21.049176
2.075  21.113625
2.074  21.207243
2.073  21.252747
2.072  21.327675
2.071  21.378516
2.070  21.333110
2.069  21.396981
2.068  21.426438
2.067  21.395578
2.066  21.374571
2.065  21.454029
2.064  21.558286
2.063  21.487284
2.062  21.472867
2.061  21.428658
2.060  21.389338
2.059  21.394209
2.058  21.334266
2.057  21.298452
2.056  21.306087
2.055  21.280469
2.054  21.294088
2.053  21.265138
2.052  21.283070
2.051  21.201147
2.050  21.212208
2.049  21.184544
2.048  21.133633
2.047  21.107856
2.046  21.070980
2.045  20.950759
2.044  20.995036
2.043  20.961051
2.042  20.847631
2.041  20.783078
2.040  20.725478
2.039  20.689517
2.038  20.677877
2.037  20.651746
2.036  20.615082
2.035  20.526627
2.034  20.579113
2.033  20.504979
2.032  20.512212
2.031  20.388654
2.030  20.457317
2.029  20.336650
2.028  20.377684
2.027  20.299290
2.026  20.327271
2.025  20.288247
2.024  20.265029
2.023  20.212432
2.022  20.158931
2.021  20.106540
2.020  20.140686
2.019  20.009286
2.018  20.107268
2.017  20.013184
2.016  19.997912
2.015  19.944757
2.014  19.945032
2.013  19.821159
2.012  19.840317
2.011  19.784100
2.010  19.808895
2.009  19.717490
2.008  19.709287
2.007  19.632964
2.006  19.681823
2.005  19.572581
2.004  19.532010
2.003  19.502442
2.002  19.586523
2.001  19.418101
2.000  19.460238
1.999  19.413421
1.998  19.364843
1.997  19.265444
1.996  19.315036
1.995  19.157312
1.994  19.192113
1.993  19.190212
1.992  19.212659
1.991  19.102205
1.990  19.048349
1.989  19.046499
1.988  19.018616
1.987  18.960845
1.986  18.990862
1.985  18.896874
1.984  18.977389
1.983  18.796175
1.982  19.008655
1.981  18.843070
1.980  18.919847
1.979  18.846128
1.978  18.934482
1.977  18.852208
1.976  18.942997
1.975  18.834444
1.974  18.940702
1.973  18.771377
1.972  18.906809
1.971  18.804988
1.970  18.915558
1.969  18.817667
1.968  18.889089
1.967  18.816689
1.966  18.929119
1.965  18.875788
1.964  18.890013
1.963  18.877371
1.962  18.998568
1.961  18.912638
1.960  18.978812
1.959  18.878739
1.958  19.014450
1.957  18.985835
1.956  19.053857
1.955  18.797748
1.954  19.125344
1.953  18.992503
1.952  19.112587
1.951  18.977539
1.950  19.051904
1.949  19.030142
1.948  19.121360
1.947  19.043020
1.946  19.220634
1.945  18.995860
1.944  19.077909
1.943  19.041912
1.942  19.129386
1.941  19.066237
1.940  19.080670
1.939  18.998449
1.938  19.063756
1.937  19.020476
1.936  19.129935
1.935  19.122991
1.934  19.109328
1.933  19.015224
1.932  19.175406
1.931  19.081166
1.930  19.178242
1.929  19.207268
1.928  19.068468
1.927  18.996502
1.926  19.039105
1.925  19.055156
1.924  19.163868
1.923  19.033979
1.922  19.182206
1.921  18.990160
1.920  19.111335
1.919  19.102433
1.918  19.142843
1.917  19.229030
1.916  19.218239
1.915  19.224583
1.914  19.260999
1.913  19.279965
1.912  19.425429
1.911  19.428933
1.910  19.521063
1.909  19.523073
1.908  19.661866
1.907  19.617371
1.906  19.743117
1.905  19.744533
1.904  19.985747
1.903  20.012457
1.902  20.268636
1.901  20.277325
1.900  20.550050
1.899  20.601913
1.898  20.890451
1.897  21.021763
1.896  21.177988
1.895  21.262954
1.894  21.522254
1.893  21.599341
1.892  21.764295
1.891  21.850959
1.890  21.982490
1.889  22.059691
1.888  22.219728
1.887  22.210667
1.886  22.562513
1.885  22.526615
1.884  22.558671
1.883  22.717459
1.882  22.782499
1.881  22.856557
1.880  22.872904
1.879  23.039444
1.878  23.085211
1.877  23.016018
1.876  23.006275
1.875  23.100199
1.874  23.129068
1.873  23.131267
1.872  23.148979
1.871  23.227948
1.870  23.298925
1.869  23.353756
1.868  23.481318
1.867  23.483123
1.866  23.622923
1.865  23.610228
1.864  23.654965
1.863  23.579902
1.862  23.656642
1.861  23.557421
1.860  23.654224
1.859  23.611753
1.858  23.680359
1.857  23.639278
1.856  23.653801
1.855  23.647939
1.854  23.660867
1.853  23.589881
1.852  23.662537
1.851  23.674181
1.850  23.725150
1.849  23.657419
1.848  23.742268
1.847  23.698619
1.846  23.733875
1.845  23.763392
1.844  23.747123
1.843  23.753158
1.842  23.758434
1.841  23.743480
1.840  23.802390
1.839  23.735408
1.838  23.789060
1.837  23.808177
1.836  23.845427
1.835  23.771739
1.834  23.900031
1.833  23.900308
1.832  23.939732
1.831  23.889714
1.830  23.916205
1.829  23.893332
1.828  23.905344
1.827  23.825116
1.826  23.866938
1.825  23.871906
1.824  23.915378
1.823  23.875763
1.822  23.924711
1.821  23.831463
1.820  23.853080
1.819  23.877055
1.818  23.885111
1.817  23.787960
1.816  23.833111
1.815  23.858613
1.814  23.872347
1.813  23.916777
1.812  23.941823
1.811  23.903747
1.810  23.878883
1.809  23.862114
1.808  23.840004
1.807  23.881767
1.806  23.926586
1.805  23.858690
1.804  23.898269
1.803  23.955008
1.802  23.948202
1.801  23.885798
1.800  23.928432
1.799  23.947240
1.798  23.992126
1.797  23.961222
1.796  23.905601
1.795  23.930229
1.794  23.923475
1.793  23.926502
1.792  23.948257
1.791  23.893756
1.790  23.941123
1.789  23.939298
1.788  23.871373
1.787  23.906137
1.786  23.908350
1.785  23.868793
1.784  23.889548
1.783  23.885935
1.782  23.888052
1.781  23.845747
1.780  23.812135
1.779  23.803687
1.778  23.803279
1.777  23.846378
1.776  23.830765
1.775  23.813279
1.774  23.817882
1.773  23.821945
1.772  23.792404
1.771  23.769673
1.770  23.788129
1.769  23.767751
1.768  23.756967
1.767  23.791896
1.766  23.758390
1.765  23.755943
1.764  23.734267
1.763  23.732037
1.762  23.720284
1.761  23.716099
1.760  23.695220
1.759  23.729750
1.758  23.706253
1.757  23.723450
1.756  23.722105
1.755  23.706493
1.754  23.724971
1.753  23.757655
1.752  23.703945
1.751  23.697619
1.750  23.729598
1.749  23.757644
1.748  23.717704
1.747  23.739803
1.746  23.678759
1.745  23.700085
1.744  23.755739
1.743  23.760494
1.742  23.661813
1.741  23.684763
1.740  23.641526
1.739  23.710471
1.738  23.736368
1.737  23.703503
1.736  23.694575
1.735  23.692561
1.734  23.647760
1.733  23.701313
1.732  23.650685
1.731  23.672251
1.730  23.682584
1.729  23.653714
1.728  23.600589
1.727  23.629378
1.726  23.569642
1.725  23.680625
1.724  23.562023
1.723  23.617698
1.722  23.624192
1.721  23.681832
1.720  23.591603
1.719  23.635732
1.718  23.628143
1.717  23.634507
1.716  23.616506
1.715  23.586177
1.714  23.510707
1.713  23.615679
1.712  23.540243
1.711  23.558595
1.710  23.564074
1.709  23.630038
1.708  23.540211
1.707  23.615891
1.706  23.575956
1.705  23.497847
1.704  23.496128
1.703  23.591581
1.702  23.569087
1.701  23.563299
1.700  23.514849
1.699  23.606385
1.698  23.475953
1.697  23.507232
1.696  23.478032
1.695  23.462866
1.694  23.386754
1.693  23.546323
1.692  23.450447
1.691  23.488883
1.690  23.448903
1.689  23.544097
1.688  23.425032
1.687  23.483423
1.686  23.399860
1.685  23.499432
1.684  23.430666
1.683  23.521723
1.682  23.376272
1.681  23.573770
1.680  23.329690
1.679  23.449024
1.678  23.315635
1.677  23.494538
1.676  23.362131
1.675  23.432995
1.674  23.324525
1.673  23.351714
1.672  23.288108
1.671  23.394225
1.670  23.320297
1.669  23.340340
1.668  23.115187
1.667  23.393970
1.666  23.229181
1.665  23.430122
1.664  23.237579
1.663  23.338289
1.662  23.287701
1.661  23.331530
1.660  23.242132
1.659  23.318328
1.658  23.204490
1.657  23.265007
1.656  23.211931
1.655  23.338753
1.654  23.157627
1.653  23.246340
1.652  23.089952
1.651  23.180121
1.650  23.148042
1.649  23.195410
1.648  23.099074
1.647  23.150292
1.646  23.102698
1.645  23.176844
1.644  23.007725
1.643  23.143832
1.642  23.081843
1.641  22.963851
1.640  23.052936
1.639  23.146841
1.638  22.961666
1.637  23.097736
1.636  22.881930
1.635  22.927847
1.634  22.960395
1.633  23.024527
1.632  22.903807
1.631  23.054299
1.630  22.854527
1.629  23.032398
1.628  22.868203
1.627  22.899889
1.626  22.840776
1.625  22.894060
1.624  22.764079
1.623  22.844807
1.622  22.803110
1.621  22.838487
1.620  22.887597
1.619  22.872461
1.618  22.711862
1.617  22.778766
1.616  22.666627
1.615  22.827365
1.614  22.687910
1.613  22.741535
1.612  22.683598
1.611  22.655566
1.610  22.596065
1.609  22.658990
1.608  22.666444
1.607  22.579423
1.606  22.552124
1.605  22.635003
1.604  22.534808
1.603  22.589234
1.602  22.513868
1.601  22.564736
1.600  22.545175
1.599  22.580354
1.598  22.451922
1.597  22.543921
1.596  22.399641
1.595  22.426582
1.594  22.376557
1.593  22.460905
1.592  22.367506
1.591  22.437236
1.590  22.406611
1.589  22.405649
1.588  22.351250
1.587  22.422631
1.586  22.290466
1.585  22.298661
1.584  22.233692
1.583  22.302824
1.582  22.194420
1.581  22.316671
1.580  22.176894
1.579  22.245072
1.578  22.235142
1.577  22.131562
1.576  22.052243
1.575  22.124019
1.574  22.117046
1.573  22.055341
1.572  22.004556
1.571  22.100196
1.570  22.016075
1.569  22.048102
1.568  21.983154
1.567  22.046399
1.566  22.020109
1.565  22.037108
1.564  21.922242
1.563  21.968760
1.562  21.909329
1.561  21.945239
1.560  21.884755
1.559  21.912611
1.558  21.841858
1.557  21.940513
1.556  21.860961
1.555  21.818920
1.554  21.769626
1.553  21.793709
1.552  21.764821
1.551  21.743223
1.550  21.664900
1.549  21.742666
1.548  21.716493
1.547  21.667866
1.546  21.657138
1.545  21.644594
1.544  21.564105
1.543  21.588868
1.542  21.533226
1.541  21.571453
1.540  21.517101
1.539  21.500269
1.538  21.546946
1.537  21.549026
1.536  21.492862
1.535  21.500200
1.534  21.442553
1.533  21.424457
1.532  21.355157
1.531  21.372380
1.530  21.332801
1.529  21.359629
1.528  21.388314
1.527  21.359230
1.526  21.297153
1.525  21.311453
1.524  21.284936
1.523  21.237113
1.522  21.212295
1.521  21.220331
1.520  21.186701
1.519  21.160340
1.518  21.085456
1.517  21.128961
1.516  21.089545
1.515  21.059553
1.514  21.049322
1.513  21.078656
1.512  21.079112
1.511  21.037370
1.510  20.948523
1.509  20.919032
1.508  20.937988
1.507  20.951803
1.506  20.927181
1.505  20.902622
1.504  20.915576
1.503  20.942741
1.502  20.853895
1.501  20.827909
1.500  20.792950
1.499  20.751451
1.498  20.744387
1.497  20.734557
1.496  20.728786
1.495  20.698024
1.494  20.729994
1.493  20.712446
1.492  20.632011
1.491  20.621327
1.490  20.668312
1.489  20.677003
1.488  20.629089
1.487  20.533060
1.486  20.516889
1.485  20.493265
1.484  20.485603
1.483  20.435082
1.482  20.454086
1.481  20.387468
1.480  20.393142
1.479  20.396112
1.478  20.375032
1.477  20.327870
1.476  20.309611
1.475  20.272976
1.474  20.239123
1.473  20.216905
1.472  20.245262
1.471  20.235687
1.470  20.238691
1.469  20.164268
1.468  20.206200
1.467  20.081257
1.466  20.068881
1.465  20.058235
1.464  20.057420
1.463  20.015890
1.462  20.010920
1.461  19.973618
1.460  19.976300
1.459  19.932603
1.458  19.963107
1.457  19.897225
1.456  19.837443
1.455  19.775012
1.454  19.832806
1.453  19.834794
1.452  19.814475
1.451  19.726700
1.450  19.719041
1.449  19.643975
1.448  19.625002
1.447  19.561099
1.446  19.562742
1.445  19.560622
1.444  19.521648
1.443  19.512466
1.442  19.507561
1.441  19.423685
1.440  19.385182
1.439  19.312704
1.438  19.354248
1.437  19.229550
1.436  19.278306
1.435  19.213715
1.434  19.132323
1.433  19.079234
1.432  19.120867
1.431  18.991912
1.430  19.021848
1.429  18.925848
1.428  18.948797
1.427  18.849290
1.426  18.895136
1.425  18.801295
1.424  18.841560
1.423  18.653876
1.422  18.686213
1.421  18.606640
1.420  18.611134
1.419  18.454972
1.418  18.418941
1.417  18.335004
1.416  18.277642
1.415  18.125241
1.414  18.026062
1.413  17.864405
1.412  17.719370
1.411  17.583107
1.410  17.474908
1.409  17.179192
1.408  17.098832
1.407  16.744642
1.406  16.670757
1.405  16.351264
1.404  16.320655
1.403  16.100716
1.402  16.036245
1.401  15.764996
1.400  15.683666
1.399  15.474282
1.398  15.455636
1.397  15.235163
1.396  15.200146
1.395  14.891480
1.394  14.714406
1.393  14.332789
1.392  14.331585
1.391  14.209255
1.390  14.463979
1.389  14.569228
1.388  14.956387
1.387  14.906201
1.386  15.052389
1.385  15.005923
1.384  15.213931
1.383  15.517520
1.382  16.280197
1.381  16.984582
1.380  17.733792
1.379  17.949760
1.378  18.360314
1.377  18.335711
1.376  18.509102
1.375  18.391047
1.374  18.388545
1.373  18.351561
1.372  18.390596
1.371  18.174337
1.370  18.282777
1.369  18.192141
1.368  18.233843
1.367  18.056374
1.366  18.138750
1.365  17.910186
1.364  18.136577
1.363  17.929992
1.362  18.060915
1.361  17.893588
1.360  18.040038
1.359  18.044222
1.358  18.149912
1.357  18.055985
1.356  18.242773
1.355  17.971446
1.354  18.218677
1.353  18.181003
1.352  18.378123
1.351  18.211360
1.350  18.281138
1.349  18.223068
1.348  18.338012
1.347  18.199351
1.346  18.170340
1.345  18.149054
1.344  18.208765
1.343  18.047613
1.342  18.210862
1.341  18.095952
1.340  18.163493
1.339  18.107539
1.338  18.071947
1.337  17.952337
1.336  18.060170
1.335  18.031912
1.334  17.999922
1.333  17.962021
1.332  17.971218
1.331  17.828204
1.330  17.974767
1.329  17.839178
1.328  17.966302
1.327  17.764438
1.326  17.888185
1.325  17.779553
1.324  17.803114
1.323  17.750234
1.322  17.762769
1.321  17.721678
1.320  17.792886
1.319  17.679669
1.318  17.753468
1.317  17.625124
1.316  17.653656
1.315  17.474774
1.314  17.602593
1.313  17.493824
1.312  17.579101
1.311  17.459354
1.310  17.511096
1.309  17.423323
1.308  17.507119
1.307  17.388840
1.306  17.430034
1.305  17.300758
1.304  17.352274
1.303  17.354320
1.302  17.331376
1.301  17.272121
1.300  17.278391
1.299  17.212625
1.298  17.191485
1.297  17.140403
1.296  17.194433
1.295  17.144631
1.294  17.097128
1.293  17.041197
1.292  16.995657
1.291  16.941134
1.290  16.977798
1.289  16.937464
1.288  16.935129
1.287  16.887927
1.286  16.839858
1.285  16.719155
1.284  16.810468
1.283  16.769378
1.282  16.805401
1.281  16.727476
1.280  16.774464
1.279  16.710934
1.278  16.681216
1.277  16.647945
1.276  16.718632
1.275  16.680058
1.274  16.695598
1.273  16.660270
1.272  16.669801
1.271  16.600074
1.270  16.634066
1.269  16.559509
1.268  16.585332
1.267  16.556648
1.266  16.565012
1.265  16.540208
1.264  16.526588
1.263  16.444898
1.262  16.520611
1.261  16.484789
1.260  16.505906
1.259  16.415847
1.258  16.434515
1.257  16.383827
1.256  16.408653
1.255  16.367367
1.254  16.402100
1.253  16.341760
1.252  16.360838
1.251  16.362490
1.250  16.372585
1.249  16.236498
1.248  16.249885
1.247  16.241195
1.246  16.221274
1.245  16.172049
1.244  16.182745
1.243  16.069341
1.242  16.157251
1.241  16.100984
1.240  16.030290
1.239  16.004905
1.238  16.059252
1.237  16.069661
1.236  16.039777
1.235  15.991215
1.234  16.010755
1.233  15.927896
1.232  15.893897
1.231  15.894147
1.230  15.859269
1.229  15.795038
1.228  15.853521
1.227  15.836989
1.226  15.823942
1.225  15.778447
1.224  15.788689
1.223  15.765543
1.222  15.697237
1.221  15.715754
1.220  15.741188
1.219  15.687014
1.218  15.674575
1.217  15.688416
1.216  15.648181
1.215  15.653939
1.214  15.628202
1.213  15.570843
1.212  15.588147
1.211  15.575994
1.210  15.525618
1.209  15.514607
1.208  15.488505
1.207  15.472968
1.206  15.516047
1.205  15.539049
1.204  15.451938
1.203  15.416694
1.202  15.379659
1.201  15.392107
1.200  15.407383
1.199  15.380021
1.198  15.319859
1.197  15.320624
1.196  15.267550
1.195  15.309106
1.194  15.247462
1.193  15.262802
1.192  15.258532
1.191  15.235193
1.190  15.154706
1.189  15.131491
1.188  15.073925
1.187  15.173093
1.186  15.183531
1.185  15.137057
1.184  15.070256
1.183  15.058367
1.182  15.059819
1.181  15.056023
1.180  15.050950
1.179  15.081153
1.178  15.025592
1.177  15.024681
1.176  14.975099
1.175  14.985265
1.174  14.956584
1.173  14.973466
1.172  14.916369
1.171  14.919374
1.170  14.939727
1.169  14.956328
1.168  14.850010
1.167  14.864848
1.166  14.834973
1.165  14.889086
1.164  14.838270
1.163  14.861045
1.162  14.848986
1.161  14.816286
1.160  14.800867
1.159  14.865069
1.158  14.766165
1.157  14.768338
1.156  14.735328
1.155  14.809042
1.154  14.725920
1.153  14.783528
1.152  14.697257
1.151  14.716307
1.150  14.752953
1.149  14.726128
1.148  14.676019
1.147  14.695950
1.146  14.690487
1.145  14.658877
1.144  14.620666
1.143  14.660617
1.142  14.590702
1.141  14.632087
1.140  14.561223
1.139  14.591225
1.138  14.557692
1.137  14.595814
1.136  14.560002
1.135  14.587375
1.134  14.560481
1.133  14.591581
1.132  14.544107
1.131  14.584282
1.130  14.502702
1.129  14.609819
1.128  14.558189
1.127  14.540788
1.126  14.429376
1.125  14.541527
1.124  14.439457
1.123  14.527520
1.122  14.434844
1.121  14.588327
1.120  14.444553
1.119  14.500750
1.118  14.512637
1.117  14.553859
1.116  14.471034
1.115  14.428798
1.114  14.445654
1.113  14.501199
1.112  14.415103
1.111  14.518238
1.110  14.435002
1.109  14.423226
1.108  14.444487
1.107  14.512117
1.106  14.389434
1.105  14.494964
1.104  14.451821
1.103  14.507291
1.102  14.377296
1.101  14.468060
1.100  14.359390
1.099  14.518060
1.098  14.399424
1.097  14.494891
1.096  14.404681
1.095  14.413607
1.094  14.380401
1.093  14.498391
1.092  14.368888
1.091  14.509993
1.090  14.366968
1.089  14.551074
1.088  14.412918
1.087  14.498133
1.086  14.416115
1.085  14.566090
1.084  14.478695
1.083  14.635946
1.082  14.364896
1.081  14.508928
1.080  14.423824
1.079  14.515488
1.078  14.365753
1.077  14.538902
1.076  14.394946
1.075  14.532363
1.074  14.440504
1.073  14.650188
1.072  14.359934
1.071  14.675888
1.070  14.320795
1.069  14.600097
1.068  14.447794
1.067  14.533913
1.066  14.466907
1.065  14.612543
1.064  14.499864
1.063  14.520391
1.062  14.485859
1.061  14.586927
1.060  14.503633
1.059  14.634927
1.058  14.484012
1.057  14.626727
1.056  14.576832
1.055  14.572728
1.054  14.468564
1.053  14.658002
1.052  14.501467
1.051  14.603430
1.050  14.485370
1.049  14.661011
1.048  14.556640
1.047  14.653336
1.046  14.592750
1.045  14.561254
1.044  14.713646
1.043  14.692343
1.042  14.504543
1.041  14.703926
1.040  14.567875
1.039  14.641633
1.038  14.622226
1.037  14.718474
1.036  14.709636
1.035  14.735695
1.034  14.635860
1.033  14.668694
1.032  14.635051
1.031  14.782307
1.030  14.673354
1.029  14.782233
1.028  14.688807
1.027  14.751445
1.026  14.733291
1.025  14.748858
1.024  14.702387
1.023  14.734415
1.022  14.674825
1.021  14.698656
1.020  14.650153
1.019  14.716300
1.018  14.676634
1.017  14.752917
1.016  14.727272
1.015  14.749271
1.014  14.713206
1.013  14.784913
1.012  14.718244
1.011  14.740057
1.010  14.753360
1.009  14.790634
1.008  14.731316
1.007  14.805318
1.006  14.713392
1.005  14.812196
1.004  14.698808
1.003  14.827846
1.002  14.739725
1.001  14.760568
1.000  14.740050
0.999  14.784679
0.998  14.731145
0.997  14.831248
0.996  14.694845
0.995  14.780019
0.994  14.768355
0.993  14.840370
0.992  14.726237
0.991  14.730939
0.990  14.751725
0.989  14.766708
0.988  14.684452
0.987  14.740577
0.986  14.695736
0.985  14.732315
0.984  14.753853
0.983  14.790565
0.982  14.719982
0.981  14.662273
0.980  14.681280
0.979  14.776739
0.978  14.649267
0.977  14.666575
0.976  14.664627
0.975  14.719724
0.974  14.714813
0.973  14.704450
0.972  14.670849
0.971  14.734055
0.970  14.634550
0.969  14.641771
0.968  14.593080
0.967  14.618374
0.966  14.585450
0.965  14.593535
0.964  14.568732
0.963  14.534866
0.962  14.551106
0.961  14.565529
0.960  14.494978
0.959  14.473133
0.958  14.483410
0.957  14.470982
0.956  14.362189
0.955  14.433453
0.954  14.455103
0.953  14.418851
0.952  14.408438
0.951  14.430220
0.950  14.412603
0.949  14.419186
0.948  14.327154
0.947  14.382777
0.946  14.344412
0.945  14.333137
0.944  14.333151
0.943  14.335505
0.942  14.366935
0.941  14.360575
0.940  14.352966
0.939  14.338309
0.938  14.287631
0.937  14.306119
0.936  14.309485
0.935  14.249130
0.934  14.233093
0.933  14.270882
0.932  14.224577
0.931  14.236548
0.930  14.260443
0.929  14.270406
0.928  14.266810
0.927  14.156367
0.926  14.217217
0.925  14.240749
0.924  14.208653
0.923  14.196287
0.922  14.205031
0.921  14.152015
0.920  14.105985
0.919  14.153903
0.918  14.139489
0.917  14.071193
0.916  14.166792
0.915  14.152952
0.914  14.091608
0.913  14.080949
0.912  14.110413
0.911  14.119881
0.910  14.162883
0.909  14.127014
0.908  14.146173
0.907  14.050051
0.906  14.064545
0.905  14.040280
0.904  14.035546
0.903  14.054292
0.902  14.143226
0.901  14.115681
0.900  14.135301
0.899  14.106943
0.898  14.124332
0.897  14.015154
0.896  14.061753
0.895  14.075807
0.894  14.144086
0.893  14.028149
0.892  14.081210
0.891  14.060783
0.890  14.152319
0.889  14.079505
0.888  14.126845
0.887  14.102283
0.886  14.108571
0.885  14.006302
0.884  14.049249
0.883  14.022777
0.882  14.140918
0.881  14.145291
0.880  14.142393
0.879  14.101478
0.878  14.100106
0.877  14.109987
0.876  14.117191
0.875  14.128912
0.874  14.161753
0.873  14.145757
0.872  14.224536
0.871  14.142720
0.870  14.247962
0.869  14.144223
0.868  14.208992
0.867  14.192665
0.866  14.236044
0.865  14.239624
0.864  14.301233
0.863  14.256989
0.862  14.281106
0.861  14.198986
0.860  14.647181
0.859  14.747558
0.858  14.772301
0.857  14.784894
0.856  14.788045
0.855  14.809409
0.854  14.853333
0.853  14.851510
0.852  14.904373
0.851  14.906563
0.850  14.931779
0.849  14.969240
0.848  14.988430
0.847  15.018178
0.846  15.041142
0.845  15.034394
0.844  15.069339
0.843  15.080704
0.842  15.123271
0.841  15.124431
0.840  15.160664
0.839  15.187021
0.838  15.198059
0.837  15.221207
0.836  15.231271
0.835  15.256730
0.834  15.254119
0.833  15.275323
0.832  15.287922
0.831  15.316249
0.830  15.318891
0.829  15.314162
0.828  15.340947
0.827  15.353208
0.826  15.363783
0.825  15.374811
0.824  15.384084
0.823  15.390402
0.822  15.397347
0.821  15.393599
0.820  15.391873
0.819  15.416025
0.818  15.427550
0.817  15.421256
0.816  15.418768
0.815  15.417616
0.814  15.424415
0.813  15.431330
0.812  15.406507
0.811  15.425204
0.810  15.426901
0.809  15.409038
0.808  15.408130
0.807  15.390813
0.806  15.381086
0.805  15.369913
0.804  15.357851
0.803  15.355124
0.802  15.337496
0.801  15.325598
0.800  15.322094
0.799  15.304290
0.798  15.282550
0.797  15.270361
0.796  15.244962
0.795  15.223785
0.794  15.188121
0.793  15.191185
0.792  15.161947
0.791  15.137467
0.790  15.135704
0.789  15.111927
0.788  15.089139
0.787  15.059864
0.786  15.039161
0.785  15.006017
0.784  14.972249
0.783  14.962977
0.782  14.948976
0.781  14.926405
0.780  14.895980
0.779  14.855827
0.778  14.826809
0.777  14.814770
0.776  14.779483
0.775  14.766069
0.774  14.735551
0.773  14.706767
0.772  14.679807
0.771  14.661750
0.770  14.640826
0.769  14.618552
0.768  14.598357
0.767  14.573170
0.766  14.559672
0.765  14.527563
0.764  14.510194
0.763  14.495343
0.762  14.460537
0.761  14.457348
0.760  14.441970
0.759  14.413423
0.758  14.391668
0.757  14.369754
0.756  14.365051
0.755  14.346705
0.754  14.330970
0.753  14.322381
0.752  14.315586
0.751  14.297547
0.750  14.293316
0.749  14.272126
0.748  14.268755
0.747  14.263415
0.746  14.252552
0.745  14.244711
0.744  14.226209
0.743  14.228046
0.742  14.229274
0.741  14.219830
0.740  14.215840
0.739  14.214576
0.738  14.213471
0.737  14.207951
0.736  14.206753
0.735  14.205251
0.734  14.211941
0.733  14.205391
0.732  14.196919
0.731  14.202311
0.730  14.203625
0.729  14.199128
0.728  14.202187
0.727  14.212242
0.726  14.214118
0.725  14.220442
0.724  14.220906
0.723  14.229302
0.722  14.234846
0.721  14.245417
0.720  14.248817
0.719  14.264278
0.718  14.271808
0.717  14.272126
0.716  14.284653
0.715  14.289739
0.714  14.297927
0.713  14.313157
0.712  14.321597
0.711  14.336831
0.710  14.351500
0.709  14.363252
0.708  14.381187
0.707  14.399811
0.706  14.412435
0.705  14.421352
0.704  14.432891
0.703  14.448166
0.702  14.468021
0.701  14.486659
0.700  14.501056
0.699  14.523859
0.698  14.541396
0.697  14.560930
0.696  14.577796
0.695  14.592786
0.694  14.613206
0.693  14.640420
0.692  14.656258
0.691  14.678211
0.690  14.700185
0.689  14.721495
0.688  14.741793
0.687  14.760245
0.686  14.786643
0.685  14.805588
0.684  14.835352
0.683  14.863075
0.682  14.883847
0.681  14.905729
0.680  14.934375
0.679  14.961444
0.678  14.989641
0.677  15.014592
0.676  15.038848
0.675  15.066225
0.674  15.091892
0.673  15.124688
0.672  15.150729
0.671  15.173541
0.670  15.202316
0.669  15.229809
0.668  15.257356
0.667  15.289738
0.666  15.324172
0.665  15.351376
0.664  15.378073
0.663  15.406620
0.662  15.442564
0.661  15.477650
0.660  15.508673
0.659  15.540685
0.658  15.566163
0.657  15.601244
0.656  15.637457
0.655  15.669509
0.654  15.703611
0.653  15.739472
0.652  15.775071
0.651  15.811897
0.650  15.849933
0.649  15.886742
0.648  15.924790
0.647  15.961336
0.646  15.994200
0.645  16.028180
0.644  16.065715
0.643  16.103619
0.642  16.142044
0.641  16.178299
0.640  16.215294
0.639  16.257856
0.638  16.300066
0.637  16.339568
0.636  16.376920
0.635  16.412965
0.634  16.455041
0.633  16.500563
0.632  16.539624
0.631  16.577198
0.630  16.619881
0.629  16.660292
0.628  16.702247
0.627  16.743678
0.626  16.785774
0.625  16.823965
0.624  16.861257
0.623  16.899510
0.622  16.941394
0.621  16.985872
0.620  17.024548
0.619  17.067968
0.618  17.111521
0.617  17.148959
0.616  17.183217
0.615  17.221612
0.614  17.261446
0.613  17.300075
0.612  17.343828
0.611  17.385697
0.610  17.426688
0.609  17.463834
0.608  17.502737
0.607  17.541347
0.606  17.558764
0.605  17.580559
0.604  17.622119
0.603  17.663688
0.602  17.699095
0.601  17.736448
0.600  17.774527
0.599  17.812817
0.598  17.853605
0.597  17.892933
0.596  17.930779
0.595  17.972349
0.594  18.009729
0.593  18.043624
0.592  18.082502
0.591  18.118181
0.590  18.152320
0.589  18.184981
0.588  18.217515
0.587  18.247047
0.586  18.279873
0.585  18.311026
0.584  18.337648
0.583  18.368628
0.582  18.403139
0.581  18.433910
0.580  18.459369
0.579  18.488664
0.578  18.515321
0.577  18.543237
0.576  18.575012
0.575  18.600644
0.574  18.627379
0.573  18.652917
0.572  18.675395
0.571  18.702149
0.570  18.726457
0.569  18.748200
0.568  18.768165
0.567  18.788953
0.566  18.812091
0.565  18.829455
0.564  18.854463
0.563  18.876832
0.562  18.893989
0.561  18.886290
0.560  18.891422
0.559  18.903513
0.558  18.915302
0.557  18.930834
0.556  18.941561
0.555  18.951436
0.554  18.961216
0.553  18.969345
0.552  18.971941
0.551  18.978139
0.550  18.981476
0.549  18.981990
0.548  18.988567
0.547  18.989672
0.546  18.988410
0.545  18.991606
0.544  18.991239
0.543  18.987663
0.542  18.983594
0.541  18.980660
0.540  18.974508
0.539  18.974192
0.538  18.968514
0.537  18.965279
0.536  18.959623
0.535  18.953934
0.534  18.955969
0.533  18.950417
0.532  18.948301
0.531  18.944928
0.530  18.946259
0.529  18.952693
0.528  18.944229
0.527  18.944298
0.526  18.947055
0.525  18.946336
0.524  18.949565
0.523  18.947841
0.522  18.942502
0.521  18.942211
0.520  18.938356
0.519  18.926486
0.518  18.917250
0.517  18.902447
0.516  18.889283
0.515  18.870445
0.514  18.847567
0.513  18.816396
0.512  18.792240
0.511  18.761114
0.510  18.720768
0.509  18.676439
0.508  18.636922
0.507  18.585129
0.506  18.533887
0.505  18.476356
0.504  18.413635
0.503  18.345913
0.502  18.281782
0.501  18.196739
0.500  18.136365
0.499  18.052110
0.498  17.972713
0.497  17.900967
0.496  17.831770
0.495  17.762807
0.494  17.753447
0.493  17.695343
0.492  17.670168
0.491  17.631381
0.490  17.595889
0.489  17.562223
0.488  17.513662
0.487  17.476942
0.486  17.429713
0.485  17.378565
0.484  17.327614
0.483  17.271874
0.482  17.230245
0.481  17.187494
0.480  17.165650
0.479  17.137899
0.478  17.110972
0.477  17.074848
0.476  17.036778
0.475  16.991131
0.474  16.928057
0.473  16.880049
0.472  16.820473
0.471  16.764185
0.470  16.704020
0.469  16.655034
0.468  16.595821
0.467  16.539257
0.466  16.490597
0.465  16.447151
0.464  16.389656
0.463  16.351014
0.462  16.313279
0.461  16.282790
0.460  16.254115
0.459  16.230538
0.458  16.206760
0.457  16.188233
0.456  16.179824
0.455  16.155805
0.454  16.148590
0.453  16.133178
0.452  16.113163
0.451  16.104408
0.450  16.090309
0.449  16.086976
0.448  16.071553
0.447  16.057488
0.446  16.045412
0.445  16.045239
0.444  16.039215
0.443  16.034080
0.442  16.044794
0.441  16.051716
0.440  16.048697
0.439  16.041412
0.438  16.035757
0.437  16.011061
0.436  15.999897
0.435  15.972949
0.434  15.945384
0.433  15.924647
0.432  15.905211
0.431  15.879042
0.430  15.859248
0.429  15.845669
0.428  15.823732
0.427  15.800831
0.426  15.781876
0.425  15.758744
0.424  15.740073
0.423  15.712003
0.422  15.688602
0.421  15.658444
0.420  15.628284
0.419  15.599980
0.418  15.573136
0.417  15.547350
0.416  15.520115
0.415  15.503718
0.414  15.481652
0.413  15.466579
0.412  15.450830
0.411  15.432911
0.410  15.421047
0.409  15.411633
0.408  15.390762
0.407  15.377543
0.406  15.368785
0.405  15.368039
0.404  15.360189
0.403  15.353973
0.402  15.346399
0.401  15.339770
0.400  15.330967
