Name: Magnesiochromite MgCr_2O_4
Type: Mineral
Class: Oxides
Subclass: 
Particle Size: 0-45um
Sample No.: O-8A
Owner: JPL
Wavelength range: IR
Origin: Canada, Quebec, Coleraine Township
Collected by Ward's
Description: 





Measurement: Hemispherical reflectance
First Column: X
Second Column: Y
X Units:  Wavelength (micrometers)
Y Units:  Reflectance (percent)
First X Value: 15.3853
Last X Value: 2.00032
Number of X Values: 2256
Additional information: o08aa.txt
 
15.3853	12.618
15.3397	12.7289
15.2945	12.8089
15.2495	12.642
15.2048	12.3552
15.1603	12.315
15.1161	12.2167
15.0722	12.0758
15.0285	11.9181
14.9851	11.8474
14.9419	11.8079
14.8989	11.7682
14.8563	11.6493
14.8138	11.5291
14.7716	11.5366
14.7296	11.433
14.6879	11.2428
14.6464	11.1718
14.6052	11.0157
14.5641	10.7743
14.5233	10.7861
14.4828	10.7734
14.4424	10.3943
14.4023	10.0838
14.3624	9.90788
14.3227	9.89971
14.2833	9.77125
14.244	9.65178
14.205	9.61897
14.1662	9.58908
14.1276	9.50724
14.0892	9.19597
14.051	8.75093
14.0131	8.72852
13.9753	8.75201
13.9377	8.67093
13.9004	8.4607
13.8632	8.23051
13.8262	7.96991
13.7895	7.8753
13.7529	7.93965
13.7165	7.89265
13.6803	7.64379
13.6443	7.4898
13.6085	7.33157
13.5729	7.17521
13.5374	7.09015
13.5022	6.98375
13.4671	6.6931
13.4322	6.43219
13.3975	6.07835
13.363	5.63265
13.3286	5.20216
13.2944	4.65139
13.2604	4.09302
13.2266	3.54374
13.193	3.2003
13.1595	2.90141
13.1262	2.53582
13.093	2.40129
13.06	2.13302
13.0272	1.80703
12.9946	1.49183
12.9621	1.33921
12.9298	1.26123
12.8976	0.941471
12.8656	0.68853
12.8337	0.725414
12.8021	0.836177
12.7705	0.846369
12.7391	0.814289
12.7079	0.685084
12.6769	0.569164
12.6459	0.723031
12.6152	0.894648
12.5845	0.904701
12.5541	0.651513
12.5238	0.647158
12.4936	0.759038
12.4635	0.817499
12.4337	0.798925
12.4039	0.842984
12.3743	0.99236
12.3448	0.972717
12.3155	0.991733
12.2863	1.05276
12.2573	1.10205
12.2284	1.05868
12.1996	1.19591
12.171	1.31329
12.1425	1.46481
12.1141	1.52728
12.0859	1.43102
12.0578	1.42316
12.0298	1.38932
12.0019	1.43549
11.9742	1.60915
11.9466	1.69337
11.9192	1.70596
11.8918	1.68217
11.8646	1.78271
11.8375	2.06874
11.8106	2.09201
11.7837	2.08005
11.757	2.2346
11.7304	2.45282
11.7039	2.49673
11.6776	2.56132
11.6513	2.63133
11.6252	2.57631
11.5992	2.65204
11.5733	2.74808
11.5475	2.60175
11.5219	2.58453
11.4963	2.81048
11.4709	2.98244
11.4455	3.02771
11.4203	3.01618
11.3952	3.15514
11.3702	3.31916
11.3454	3.45507
11.3206	3.52179
11.2959	3.51104
11.2714	3.57264
11.2469	3.64452
11.2226	3.68421
11.1983	3.71847
11.1742	3.82511
11.1502	4.0311
11.1263	4.06589
11.1024	4.0486
11.0787	4.14242
11.0551	4.23014
11.0316	4.15989
11.0081	4.19455
10.9848	4.33289
10.9616	4.37664
10.9385	4.40067
10.9154	4.42833
10.8925	4.43468
10.8697	4.46221
10.8469	4.46437
10.8243	4.45317
10.8017	4.53866
10.7793	4.50367
10.7569	4.52972
10.7346	4.54779
10.7125	4.52065
10.6904	4.50533
10.6684	4.43654
10.6465	4.40934
10.6247	4.3882
10.6029	4.36285
10.5813	4.48281
10.5597	4.58886
10.5383	4.63951
10.5169	4.70929
10.4956	4.86363
10.4744	4.89695
10.4533	4.91707
10.4323	4.92204
10.4113	5.06451
10.3904	5.18823
10.3697	5.31924
10.349	5.3582
10.3284	5.43735
10.3078	5.61396
10.2874	5.70973
10.267	5.75505
10.2467	5.84734
10.2265	5.94197
10.2064	5.94197
10.1863	5.94545
10.1663	6.23892
10.1464	6.44751
10.1266	6.43373
10.1069	6.27782
10.0872	6.222
10.0676	6.37341
10.0481	6.51134
10.0287	6.68805
10.0093	6.6838
9.99005	6.68069
9.97084	6.87895
9.95169	7.06058
9.93263	7.10103
9.91364	7.12596
9.89472	7.28829
9.87587	7.62346
9.8571	7.83758
9.83839	7.97385
9.81976	8.17207
9.80119	8.29546
9.78271	8.50968
9.76428	8.76364
9.74592	8.96755
9.72764	9.05612
9.70943	9.16998
9.69128	9.19558
9.6732	9.28411
9.65518	9.39335
9.63724	9.38008
9.61935	9.37653
9.60155	9.35081
9.5838	9.39016
9.56611	9.52132
9.5485	9.55601
9.53094	9.46887
9.51345	9.46362
9.49604	9.48591
9.47867	9.52272
9.46137	9.62846
9.44414	9.69492
9.42697	9.71884
9.40986	9.856
9.39281	10.1057
9.37583	10.2905
9.35891	10.2226
9.34204	10.4038
9.32524	10.7613
9.3085	10.9395
9.29182	11.0484
9.27519	11.3319
9.25863	11.5379
9.24213	11.6694
9.22568	11.8857
9.2093	12.259
9.19297	12.5101
9.17669	12.7406
9.16048	13.0716
9.14433	13.5467
9.12823	14.2202
9.11218	14.892
9.0962	15.46
9.08027	16.0753
9.06439	16.8484
9.04858	17.6262
9.03281	18.3315
9.0171	18.8842
9.00145	19.2884
8.98585	19.6665
8.9703	20.2081
8.9548	20.5522
8.93937	20.7869
8.92398	21.0355
8.90865	21.2585
8.89337	21.5557
8.87814	21.8452
8.86296	21.9844
8.84784	22.1389
8.83277	22.3222
8.81774	22.5184
8.80277	22.599
8.78786	22.6275
8.77298	22.8223
8.75816	23.0341
8.7434	23.1321
8.72868	23.3344
8.714	23.5311
8.69938	23.6285
8.68481	23.6797
8.67029	23.7706
8.65581	23.8478
8.64139	24.066
8.62701	24.2368
8.61268	24.3897
8.5984	24.6955
8.58416	24.8905
8.56997	24.9102
8.55583	25.1083
8.54174	25.2739
8.52769	25.3853
8.51368	25.6894
8.49973	26.0416
8.48582	26.3304
8.47195	26.5875
8.45813	26.7666
8.44436	27.1681
8.43062	27.5342
8.41693	27.7584
8.4033	28.1544
8.3897	28.6741
8.37614	28.968
8.36264	29.3521
8.34917	29.6836
8.33574	29.9942
8.32236	30.3774
8.30903	30.6944
8.29573	31.0035
8.28248	31.2828
8.26927	31.4671
8.2561	31.7405
8.24298	32.1297
8.2299	32.4657
8.21685	32.5943
8.20385	32.8056
8.19089	32.9296
8.17797	32.9872
8.16509	33.1774
8.15225	33.257
8.13946	33.4127
8.1267	33.5068
8.11398	33.5573
8.10131	33.7206
8.08867	33.7665
8.07606	33.5582
8.0635	33.4303
8.05099	33.3779
8.0385	33.2286
8.02606	33.147
8.01366	33.1933
8.00129	33.0916
7.98896	32.9283
7.97667	32.8212
7.96442	32.8179
7.9522	32.7825
7.94002	32.768
7.92788	32.756
7.91578	32.6716
7.90371	32.7573
7.89168	32.9305
7.87969	32.9724
7.86773	32.9762
7.85581	32.9802
7.84392	33.0605
7.83207	33.229
7.82026	33.3365
7.80849	33.3773
7.79674	33.4884
7.78503	33.5778
7.77337	33.5978
7.76173	33.6242
7.75012	33.7056
7.73856	33.8415
7.72703	33.9681
7.71553	34.0479
7.70406	34.1224
7.69263	34.3072
7.68123	34.4976
7.66987	34.5946
7.65855	34.6995
7.64725	34.7598
7.63598	34.8456
7.62475	35.0811
7.61356	35.23
7.60239	35.3236
7.59126	35.4902
7.58017	35.617
7.5691	35.7535
7.55806	35.8675
7.54707	35.9406
7.5361	36.1679
7.52516	36.3684
7.51425	36.3335
7.50338	36.3171
7.49253	36.3448
7.48172	36.3726
7.47094	36.5061
7.46019	36.558
7.44947	36.5344
7.43879	36.5071
7.42813	36.5213
7.4175	36.5275
7.4069	36.5228
7.39634	36.5912
7.3858	36.711
7.37529	36.7667
7.36482	36.8315
7.35437	36.9182
7.34396	37.0117
7.33357	37.1027
7.32321	37.2592
7.31288	37.3872
7.30258	37.5005
7.29231	37.6594
7.28207	37.8039
7.27185	37.9734
7.26167	38.1975
7.25152	38.2781
7.24139	38.3564
7.23129	38.5856
7.22122	38.8153
7.21117	38.9473
7.20116	39.1021
7.19117	39.2857
7.18121	39.427
7.17128	39.5749
7.16137	39.7604
7.1515	39.991
7.14164	40.1107
7.13182	40.1897
7.12203	40.3196
7.11225	40.4223
7.10251	40.604
7.0928	40.7511
7.08311	40.8709
7.07344	40.9672
7.06381	41.1643
7.0542	41.3602
7.04461	41.4386
7.03506	41.5451
7.02552	41.8003
7.01601	41.9974
7.00653	42.0956
6.99708	42.2008
6.98765	42.355
6.97824	42.512
6.96886	42.6474
6.95951	42.7862
6.95018	42.8485
6.94087	42.9042
6.9316	42.976
6.92234	43.1158
6.91311	43.3071
6.90391	43.5232
6.89473	43.711
6.88557	43.8129
6.87644	43.9628
6.86733	44.1553
6.85824	44.2617
6.84918	44.365
6.84015	44.4439
6.83114	44.5046
6.82215	44.5076
6.81319	44.5102
6.80424	44.6106
6.79532	44.8114
6.78643	44.9782
6.77756	45.015
6.76871	45.0204
6.75989	44.9695
6.75109	44.9644
6.74231	45.0369
6.73355	45.1114
6.72482	45.1846
6.71611	45.1985
6.70742	45.232
6.69875	45.2124
6.69011	45.2402
6.68149	45.3348
6.67289	45.3969
6.66431	45.4296
6.65576	45.4371
6.64722	45.5012
6.63871	45.6035
6.63022	45.5025
6.62175	45.438
6.61331	45.461
6.60488	45.4791
6.59648	45.5768
6.5881	45.5796
6.57974	45.5168
6.5714	45.5398
6.56308	45.4362
6.55478	45.3466
6.54651	45.3134
6.53825	45.257
6.53001	45.2219
6.5218	45.2022
6.51361	45.1298
6.50544	45.1654
6.49729	45.2587
6.48915	45.165
6.48104	44.95
6.47295	44.8132
6.46488	44.7228
6.45683	44.6391
6.4488	44.5641
6.44079	44.4395
6.4328	44.3494
6.42482	44.3375
6.41687	44.3353
6.40894	44.085
6.40103	43.7617
6.39314	43.6173
6.38526	43.5365
6.37741	43.401
6.36957	43.2521
6.36176	43.1173
6.35396	43.0054
6.34618	42.9263
6.33843	42.8275
6.33069	42.6697
6.32297	42.5752
6.31527	42.6051
6.30758	42.5722
6.29992	42.5058
6.29227	42.5886
6.28465	42.6538
6.27704	42.672
6.26945	42.8175
6.26188	42.9815
6.25432	43.0666
6.24679	43.1267
6.23927	43.1814
6.23177	43.202
6.22429	43.2688
6.21683	43.4197
6.20938	43.5684
6.20195	43.6778
6.19454	43.7145
6.18715	43.8603
6.17978	43.9104
6.17242	43.9564
6.16508	44.0597
6.15776	44.1902
6.15045	44.2053
6.14317	44.2259
6.1359	44.3093
6.12864	44.4073
6.12141	44.6229
6.11419	44.8155
6.10699	44.75
6.0998	44.7242
6.09263	44.8245
6.08549	44.9405
6.07835	45.1108
6.07123	45.294
6.06413	45.4353
6.05705	45.6411
6.04998	45.8931
6.04293	45.9699
6.0359	45.9901
6.02888	46.15
6.02187	46.417
6.01489	46.6396
6.00792	46.7147
6.00096	46.865
5.99403	47.1284
5.98711	47.276
5.9802	47.3954
5.97331	47.615
5.96644	47.8317
5.95958	47.9472
5.95274	48.0233
5.94591	48.1771
5.9391	48.4663
5.9323	48.6627
5.92552	48.7095
5.91876	48.7464
5.91201	48.8242
5.90528	48.9261
5.89856	49.1264
5.89186	49.2825
5.88517	49.4183
5.8785	49.5288
5.87184	49.5437
5.8652	49.6388
5.85857	49.7463
5.85196	49.8587
5.84536	50.0132
5.83878	50.1823
5.83221	50.3095
5.82566	50.4668
5.81912	50.5907
5.81259	50.5669
5.80608	50.6091
5.79959	50.7592
5.79311	50.9309
5.78665	51.0097
5.78019	51.1229
5.77376	51.2674
5.76734	51.3712
5.76093	51.3744
5.75453	51.3487
5.74815	51.4269
5.74179	51.5133
5.73543	51.5638
5.7291	51.6281
5.72277	51.7001
5.71646	51.7082
5.71017	51.7884
5.70389	51.9116
5.69762	51.972
5.69136	51.9507
5.68513	52.0193
5.6789	52.113
5.67268	52.1235
5.66648	52.1546
5.6603	52.2106
5.65413	52.2353
5.64797	52.2991
5.64182	52.3946
5.63569	52.4384
5.62957	52.4372
5.62347	52.4621
5.61737	52.4699
5.61129	52.4654
5.60522	52.4932
5.59917	52.5237
5.59313	52.5458
5.5871	52.5836
5.58109	52.6426
5.57509	52.6812
5.5691	52.609
5.56312	52.5746
5.55716	52.5768
5.55121	52.6485
5.54528	52.7254
5.53935	52.7595
5.53344	52.7354
5.52754	52.7679
5.52166	52.8344
5.51578	52.8708
5.50992	52.8852
5.50407	52.9068
5.49823	52.8879
5.49241	52.8593
5.4866	52.9341
5.4808	53.0516
5.47501	53.0374
5.46923	53.0381
5.46347	53.0825
5.45772	53.1245
5.45198	53.1624
5.44625	53.2227
5.44054	53.2604
5.43484	53.2532
5.42914	53.283
5.42347	53.3536
5.4178	53.3706
5.41214	53.4251
5.4065	53.4205
5.40087	53.4254
5.39525	53.4853
5.38964	53.5637
5.38404	53.5853
5.37846	53.5951
5.37288	53.6495
5.36732	53.7217
5.36177	53.7336
5.35623	53.7549
5.35071	53.8078
5.34519	53.821
5.33968	53.8426
5.33419	53.8979
5.32871	53.9588
5.32324	53.9734
5.31778	53.9249
5.31233	53.8969
5.30689	53.9432
5.30147	53.9833
5.29605	54.0001
5.29065	54.0552
5.28525	54.0987
5.27987	54.1401
5.2745	54.1437
5.26914	54.1292
5.26379	54.1576
5.25845	54.1649
5.25312	54.1732
5.24781	54.1608
5.2425	54.1641
5.23721	54.2346
5.23192	54.272
5.22665	54.2532
5.22138	54.2185
5.21613	54.2302
5.21089	54.2636
5.20566	54.2671
5.20044	54.2553
5.19522	54.2337
5.19002	54.23
5.18483	54.258
5.17965	54.2382
5.17448	54.2495
5.16933	54.2904
5.16418	54.282
5.15904	54.2199
5.15391	54.2237
5.14879	54.2969
5.14368	54.3219
5.13859	54.3308
5.1335	54.2674
5.12842	54.2135
5.12335	54.1919
5.1183	54.2252
5.11325	54.2161
5.10821	54.2054
5.10318	54.2286
5.09817	54.1705
5.09316	54.1663
5.08816	54.2166
5.08317	54.2286
5.07819	54.2316
5.07322	54.1796
5.06826	54.1358
5.06331	54.1149
5.05837	54.1499
5.05344	54.1788
5.04852	54.1678
5.04361	54.225
5.03871	54.2666
5.03382	54.209
5.02894	54.1506
5.02406	54.1307
5.0192	54.1193
5.01435	54.0994
5.0095	54.1358
5.00467	54.1068
4.99984	54.1403
4.99502	54.1289
4.99021	54.1068
4.98542	54.1627
4.98063	54.142
4.97585	54.0574
4.97108	54.1155
4.96632	54.2218
4.96156	54.2348
4.95682	54.2166
4.95209	54.2088
4.94736	54.1671
4.94264	54.1384
4.93794	54.1526
4.93324	54.1416
4.92855	54.1923
4.92387	54.2605
4.9192	54.2196
4.91453	54.2334
4.90988	54.262
4.90524	54.297
4.9006	54.2773
4.89597	54.2229
4.89135	54.2212
4.88674	54.2284
4.88214	54.2434
4.87755	54.2713
4.87296	54.2472
4.86839	54.2131
4.86382	54.1861
4.85926	54.1926
4.85471	54.1844
4.85017	54.1566
4.84564	54.1633
4.84111	54.1021
4.8366	54.0686
4.83209	54.095
4.82759	54.08
4.8231	54.0865
4.81862	54.0806
4.81415	54.0617
4.80968	54.0375
4.80522	53.9871
4.80077	54.0148
4.79633	53.9893
4.7919	53.9838
4.78747	53.9859
4.78306	53.9066
4.77865	53.8324
4.77425	53.8357
4.76986	53.8174
4.76547	53.8226
4.7611	53.8049
4.75673	53.7664
4.75237	53.7062
4.74802	53.654
4.74367	53.6334
4.73934	53.6392
4.73501	53.6864
4.73069	53.6851
4.72638	53.6982
4.72207	53.6681
4.71777	53.4986
4.71348	53.4348
4.7092	53.4145
4.70493	53.4022
4.70066	53.3531
4.69641	53.2939
4.69216	53.2742
4.68791	53.2578
4.68368	53.2081
4.67945	53.1362
4.67523	53.1355
4.67102	53.1222
4.66682	53.078
4.66262	53.1003
4.65843	53.0396
4.65425	52.9597
4.65007	52.8802
4.64591	52.8235
4.64175	52.7587
4.6376	52.6557
4.63345	52.6896
4.62932	52.6629
4.62519	52.5504
4.62106	52.5504
4.61695	52.5057
4.61284	52.4488
4.60874	52.3834
4.60465	52.2387
4.60056	52.1949
4.59648	52.2299
4.59241	52.1772
4.58835	52.1103
4.58429	52.0239
4.58024	51.932
4.5762	51.8534
4.57216	51.785
4.56814	51.7168
4.56411	51.684
4.5601	51.5571
4.55609	51.4313
4.55209	51.413
4.5481	51.3564
4.54411	51.2897
4.54013	51.2371
4.53616	51.1588
4.5322	51.1182
4.52824	51.1164
4.52429	50.9634
4.52034	50.8344
4.51641	50.7993
4.51247	50.7013
4.50855	50.5143
4.50463	50.4024
4.50072	50.3948
4.49682	50.3596
4.49292	50.2422
4.48903	50.1412
4.48515	50.017
4.48127	49.9281
4.4774	49.8536
4.47354	49.774
4.46968	49.6642
4.46584	49.5382
4.46199	49.476
4.45815	49.4607
4.45432	49.3246
4.4505	49.1663
4.44668	49.0538
4.44287	48.9209
4.43907	48.85
4.43527	48.8087
4.43148	48.6998
4.4277	48.5733
4.42392	48.5149
4.42015	48.4293
4.41638	48.3031
4.41262	48.1412
4.40887	47.9789
4.40513	47.9173
4.40139	47.8696
4.39765	47.7302
4.39393	47.5936
4.39021	47.5074
4.38649	47.4017
4.38278	47.2773
4.37908	47.1519
4.37539	47.0434
4.3717	46.9219
4.36801	46.8149
4.36434	46.6522
4.36067	46.4863
4.357	46.3626
4.35335	46.2551
4.34969	46.1275
4.34605	46.033
4.34241	45.9454
4.33877	45.8
4.33514	45.5665
4.33152	45.3818
4.32791	45.2286
4.3243	45.0051
4.32069	44.859
4.3171	44.7356
4.31351	44.5437
4.30992	44.3057
4.30634	44.028
4.30277	43.7876
4.2992	43.5357
4.29564	43.2592
4.29208	43.0238
4.28853	42.8703
4.28499	42.7506
4.28145	42.5617
4.27792	42.4702
4.27439	42.401
4.27087	42.2974
4.26735	42.2893
4.26384	42.3684
4.26034	42.4549
4.25684	42.4199
4.25335	42.1363
4.24986	41.6729
4.24638	41.2061
4.24291	40.9178
4.23944	40.6819
4.23598	40.4488
4.23252	40.4155
4.22906	40.3734
4.22562	40.3035
4.22218	40.3443
4.21874	40.4212
4.21531	40.4855
4.21189	40.5605
4.20847	40.64
4.20506	40.6493
4.20165	40.6265
4.19825	40.6305
4.19485	40.5517
4.19146	40.4392
4.18807	40.3273
4.18469	40.1312
4.18132	39.9329
4.17795	39.8691
4.17458	39.7327
4.17123	39.5213
4.16787	39.3903
4.16453	39.3171
4.16118	39.1741
4.15785	39.014
4.15451	38.8733
4.15119	38.7555
4.14787	38.6653
4.14455	38.556
4.14124	38.3868
4.13794	38.1128
4.13464	37.9258
4.13134	37.7983
4.12805	37.6593
4.12477	37.5519
4.12149	37.4701
4.11822	37.3239
4.11495	37.2004
4.11168	37.0463
4.10843	36.853
4.10517	36.7136
4.10192	36.6133
4.09868	36.5
4.09545	36.4123
4.09221	36.2367
4.08899	36.0107
4.08576	35.8358
4.08255	35.7183
4.07933	35.637
4.07613	35.514
4.07292	35.4066
4.06973	35.2736
4.06654	35.0725
4.06335	34.9352
4.06017	34.8291
4.05699	34.6321
4.05382	34.3777
4.05065	34.2512
4.04749	34.1481
4.04433	33.9768
4.04118	33.8605
4.03803	33.7682
4.03489	33.6886
4.03175	33.5137
4.02862	33.3614
4.02549	33.2632
4.02237	33.1002
4.01925	32.9492
4.01614	32.7535
4.01303	32.5749
4.00993	32.497
4.00683	32.3951
4.00373	32.1963
4.00064	32.098
3.99756	32.0515
3.99448	32.0017
3.9914	31.8155
3.98833	31.6097
3.98527	31.4478
3.98221	31.2599
3.97915	31.1594
3.9761	31.0402
3.97305	30.8844
3.97001	30.7331
3.96697	30.5471
3.96394	30.3474
3.96091	30.1683
3.95789	30.0855
3.95487	30.0416
3.95186	29.9975
3.94885	29.8597
3.94584	29.6504
3.94284	29.5236
3.93984	29.3976
3.93685	29.233
3.93386	29.0237
3.93088	28.8993
3.9279	28.8516
3.92493	28.7747
3.92196	28.6495
3.919	28.5339
3.91604	28.2948
3.91308	28.1436
3.91013	28.0761
3.90718	27.9592
3.90424	27.7936
3.9013	27.6643
3.89837	27.5435
3.89544	27.3643
3.89252	27.2147
3.8896	27.1611
3.88668	27.0693
3.88377	26.93
3.88086	26.766
3.87796	26.6309
3.87506	26.5292
3.87217	26.39
3.86928	26.1463
3.86639	25.9803
3.86351	25.9113
3.86064	25.8032
3.85776	25.6442
3.8549	25.5698
3.85203	25.5827
3.84917	25.4636
3.84631	25.3198
3.84346	25.1519
3.84062	25.007
3.83777	24.855
3.83494	24.6943
3.8321	24.6653
3.82927	24.5054
3.82644	24.3754
3.82362	24.3304
3.82081	24.2108
3.81799	24.0324
3.81518	23.878
3.81238	23.7848
3.80958	23.6577
3.80678	23.522
3.80399	23.4773
3.8012	23.3537
3.79841	23.1857
3.79563	23.0487
3.79286	23.0024
3.79008	22.9441
3.78731	22.8106
3.78455	22.6839
3.78179	22.549
3.77903	22.4003
3.77628	22.2677
3.77353	22.185
3.77079	22.1135
3.76805	21.9487
3.76531	21.7685
3.76258	21.6323
3.75985	21.5681
3.75713	21.5247
3.7544	21.4608
3.75169	21.3944
3.74898	21.3594
3.74627	21.2941
3.74356	21.1075
3.74086	20.8574
3.73816	20.7118
3.73547	20.6421
3.73278	20.5624
3.7301	20.4684
3.72741	20.3864
3.72474	20.2883
3.72206	20.2299
3.71939	20.1071
3.71673	19.8786
3.71406	19.7962
3.71141	19.7752
3.70875	19.7245
3.7061	19.6789
3.70345	19.5616
3.70081	19.3796
3.69817	19.2911
3.69553	19.2348
3.6929	19.1367
3.69027	19.0444
3.68765	18.9529
3.68503	18.8292
3.68241	18.75
3.6798	18.5961
3.67719	18.4871
3.67458	18.4429
3.67198	18.3404
3.66938	18.238
3.66678	18.1473
3.66419	18.0867
3.66161	18.0116
3.65902	17.8834
3.65644	17.7454
3.65387	17.68
3.65129	17.5851
3.64872	17.5511
3.64616	17.4673
3.64359	17.3097
3.64103	17.1843
3.63848	17.0877
3.63593	16.9949
3.63338	16.9729
3.63084	16.9225
3.6283	16.8507
3.62576	16.7931
3.62322	16.7099
3.62069	16.6111
3.61817	16.4952
3.61564	16.402
3.61312	16.3731
3.61061	16.31
3.6081	16.2008
3.60559	16.0541
3.60308	15.9561
3.60058	15.9486
3.59808	15.8664
3.59558	15.7332
3.59309	15.6191
3.59061	15.5311
3.58812	15.4693
3.58564	15.4521
3.58316	15.3677
3.58069	15.2542
3.57822	15.1693
3.57575	15.1791
3.57328	15.1017
3.57082	14.9722
3.56836	14.9287
3.56591	14.8981
3.56346	14.8118
3.56101	14.6573
3.55857	14.5187
3.55613	14.4944
3.55369	14.5676
3.55126	14.5796
3.54883	14.447
3.5464	14.2701
3.54397	14.2083
3.54155	14.16
3.53914	14.117
3.53672	14.0644
3.53431	14.0297
3.5319	14.001
3.5295	13.8966
3.5271	13.6885
3.5247	13.5679
3.52231	13.5248
3.51991	13.5317
3.51753	13.553
3.51514	13.4577
3.51276	13.3172
3.51038	13.2283
3.50801	13.2098
3.50563	13.2284
3.50327	13.1242
3.5009	13.0313
3.49854	13.0154
3.49618	13.0255
3.49382	13.0177
3.49147	12.9552
3.48912	12.8617
3.48677	12.751
3.48443	12.6795
3.48209	12.6225
3.47975	12.5295
3.47742	12.4736
3.47509	12.5208
3.47276	12.3878
3.47044	12.2526
3.46812	12.2491
3.4658	12.2892
3.46348	12.2117
3.46117	12.0767
3.45886	12
3.45656	11.9826
3.45425	12.0146
3.45195	11.9572
3.44966	11.8051
3.44736	11.7449
3.44507	11.7589
3.44279	11.7236
3.4405	11.6052
3.43822	11.63
3.43594	11.6214
3.43367	11.4909
3.43139	11.3728
3.42912	11.4084
3.42686	11.5309
3.42459	11.512
3.42233	11.33
3.42007	11.2118
3.41782	11.2196
3.41557	11.2127
3.41332	11.1889
3.41108	11.1658
3.40883	10.9544
3.40659	10.8799
3.40435	10.9353
3.40212	10.8756
3.39989	10.7762
3.39766	10.6265
3.39544	10.6456
3.39322	10.6915
3.391	10.6755
3.38878	10.6019
3.38657	10.5246
3.38436	10.3835
3.38215	10.3695
3.37994	10.4538
3.37774	10.4282
3.37554	10.2497
3.37335	10.2628
3.37115	10.3899
3.36896	10.3789
3.36678	10.2207
3.36459	10.1652
3.36241	10.1759
3.36023	10.0985
3.35805	10.0124
3.35588	9.97155
3.35371	9.9195
3.35154	9.90826
3.34938	9.95829
3.34721	9.89182
3.34505	9.81445
3.3429	9.7793
3.34074	9.67497
3.33859	9.59245
3.33644	9.70965
3.3343	9.76096
3.33215	9.68027
3.33001	9.61782
3.32788	9.5542
3.32574	9.57913
3.32361	9.52376
3.32148	9.3886
3.31936	9.31605
3.31723	9.26409
3.31511	9.21452
3.31299	9.2113
3.31088	9.21487
3.30876	9.16522
3.30665	9.1636
3.30455	9.23099
3.30244	9.14042
3.30034	9.13974
3.29824	9.22393
3.29614	9.06609
3.29405	8.97164
3.29196	9.09335
3.28987	9.07072
3.28778	9.00485
3.2857	8.86762
3.28362	8.88401
3.28154	8.97171
3.27946	8.95987
3.27739	8.92057
3.27532	8.87143
3.27325	8.76863
3.27119	8.66252
3.26913	8.72065
3.26707	8.76069
3.26501	8.68568
3.26295	8.59681
3.2609	8.59563
3.25885	8.63964
3.2568	8.5689
3.25476	8.39938
3.25272	8.32304
3.25068	8.40979
3.24864	8.58234
3.24661	8.56126
3.24458	8.42941
3.24255	8.43672
3.24052	8.38104
3.2385	8.3693
3.23648	8.32666
3.23446	8.29042
3.23244	8.2536
3.23043	8.1107
3.22841	8.05596
3.2264	8.06557
3.2244	8.02165
3.22239	7.94807
3.22039	7.9696
3.21839	8.15291
3.2164	8.2565
3.2144	8.13974
3.21241	8.02547
3.21042	8.05721
3.20844	8.18737
3.20645	8.11891
3.20447	7.98935
3.20249	7.9448
3.20051	7.88645
3.19854	7.88638
3.19657	7.8855
3.1946	7.95927
3.19263	7.91608
3.19067	7.84423
3.1887	7.84411
3.18674	7.88282
3.18479	7.83448
3.18283	7.78266
3.18088	7.76107
3.17893	7.7125
3.17698	7.77999
3.17504	7.75621
3.17309	7.72275
3.17115	7.64185
3.16921	7.50371
3.16728	7.4617
3.16534	7.51402
3.16341	7.4711
3.16148	7.49293
3.15956	7.5535
3.15763	7.49117
3.15571	7.42481
3.15379	7.48977
3.15187	7.61211
3.14996	7.57393
3.14805	7.52938
3.14614	7.47115
3.14423	7.42834
3.14232	7.47126
3.14042	7.45389
3.13852	7.38472
3.13662	7.38799
3.13472	7.34469
3.13283	7.26083
3.13094	7.25164
3.12905	7.36075
3.12716	7.33254
3.12528	7.26324
3.12339	7.30432
3.12151	7.31946
3.11964	7.31958
3.11776	7.4163
3.11589	7.37996
3.11401	7.22276
3.11214	7.08088
3.11028	7.07434
3.10841	7.10475
3.10655	7.10985
3.10469	7.04271
3.10283	6.98413
3.10098	7.03982
3.09912	7.19403
3.09727	7.24062
3.09542	7.22033
3.09358	7.14761
3.09173	7.06684
3.08989	7.01221
3.08805	7.03916
3.08621	6.94434
3.08437	6.88178
3.08254	6.96933
3.08071	6.97659
3.07888	6.96539
3.07705	7.0068
3.07523	6.9394
3.0734	6.903
3.07158	6.8932
3.06977	6.89387
3.06795	6.918
3.06613	6.91853
3.06432	6.95536
3.06251	6.89004
3.0607	6.783
3.0589	6.81921
3.0571	6.84537
3.05529	6.89635
3.05349	6.84781
3.0517	6.78883
3.0499	6.8053
3.04811	6.89679
3.04632	6.88352
3.04453	6.82094
3.04274	6.71163
3.04096	6.64385
3.03918	6.58432
3.0374	6.59436
3.03562	6.52579
3.03384	6.60303
3.03207	6.70842
3.03029	6.72727
3.02852	6.69977
3.02676	6.64967
3.02499	6.67489
3.02323	6.7141
3.02146	6.72264
3.0197	6.68052
3.01795	6.60911
3.01619	6.55703
3.01444	6.6253
3.01269	6.73411
3.01094	6.64577
3.00919	6.49726
3.00744	6.48835
3.0057	6.60158
3.00396	6.57335
3.00222	6.56707
3.00048	6.65133
2.99875	6.54185
2.99701	6.3536
2.99528	6.33077
2.99355	6.36966
2.99183	6.34056
2.9901	6.40598
2.98838	6.45982
2.98666	6.31288
2.98494	6.183
2.98322	6.39132
2.9815	6.45473
2.97979	6.36861
2.97808	6.35601
2.97637	6.22357
2.97466	6.27903
2.97295	6.4404
2.97125	6.38126
2.96955	6.23049
2.96785	6.18237
2.96615	6.3001
2.96446	6.35817
2.96276	6.25561
2.96107	6.3038
2.95938	6.39976
2.95769	6.3534
2.95601	6.2744
2.95432	6.12693
2.95264	6.079
2.95096	6.0373
2.94928	6.05587
2.9476	6.2995
2.94593	6.33656
2.94425	6.2615
2.94258	6.26228
2.94092	6.24075
2.93925	6.16362
2.93758	6.02355
2.93592	6.03235
2.93426	6.07232
2.9326	6.09323
2.93094	6.09828
2.92928	6.09107
2.92763	6.15323
2.92598	6.16973
2.92433	6.19089
2.92268	6.2293
2.92103	6.2268
2.91939	6.12785
2.91775	6.02134
2.9161	6.05286
2.91447	6.08254
2.91283	6.04118
2.91119	6.00312
2.90956	5.98149
2.90793	5.95207
2.9063	5.86309
2.90467	5.96656
2.90304	6.15786
2.90142	6.08246
2.89979	5.9828
2.89817	5.92931
2.89656	5.7782
2.89494	5.77868
2.89332	5.94429
2.89171	5.96413
2.8901	6.05118
2.88849	6.11313
2.88688	6.16565
2.88527	6.19012
2.88367	6.06058
2.88206	6.0688
2.88046	6.13747
2.87886	6.07483
2.87727	6.02026
2.87567	5.9518
2.87408	5.8652
2.87248	5.84869
2.87089	5.92971
2.8693	6.08638
2.86772	6.15723
2.86613	6.17097
2.86455	6.09791
2.86297	5.99932
2.86139	6.00567
2.85981	6.01546
2.85823	6.0803
2.85666	6.081
2.85508	5.95577
2.85351	5.9682
2.85194	5.82584
2.85038	5.87833
2.84881	5.90474
2.84724	5.79829
2.84568	5.88834
2.84412	5.90056
2.84256	6.04472
2.841	5.97689
2.83945	5.8166
2.83789	5.88075
2.83634	5.93391
2.83479	5.95975
2.83324	6.12266
2.83169	6.10365
2.83015	5.95803
2.82861	5.94115
2.82706	6.05209
2.82552	5.94024
2.82398	5.819
2.82245	5.78124
2.82091	5.6121
2.81938	5.71451
2.81784	5.82907
2.81631	5.63805
2.81479	5.81879
2.81326	5.98128
2.81173	5.96666
2.81021	5.93058
2.80869	6.00699
2.80716	5.87525
2.80565	5.50553
2.80413	5.50757
2.80261	5.90901
2.8011	5.85456
2.79959	5.72281
2.79808	5.73828
2.79657	5.80465
2.79506	6.01337
2.79355	5.84025
2.79205	5.72967
2.79055	5.78895
2.78904	5.9755
2.78754	5.86857
2.78605	5.72541
2.78455	5.74519
2.78306	5.73925
2.78156	5.73984
2.78007	5.86651
2.77858	5.99541
2.77709	5.92908
2.77561	5.80038
2.77412	5.71172
2.77264	5.73811
2.77116	5.96931
2.76968	5.86148
2.7682	5.67634
2.76672	5.78628
2.76524	5.91788
2.76377	5.93409
2.7623	5.92942
2.76083	5.91201
2.75936	5.95296
2.75789	6.05399
2.75642	6.14436
2.75496	6.04177
2.7535	5.78862
2.75203	5.67356
2.75057	5.87128
2.74912	6.0378
2.74766	5.95571
2.7462	5.90527
2.74475	6.0118
2.7433	6.0121
2.74185	5.84556
2.7404	5.94254
2.73895	6.10898
2.7375	6.04441
2.73606	5.94969
2.73462	5.93128
2.73318	5.94051
2.73174	5.97393
2.7303	6.01549
2.72886	5.99337
2.72742	5.99395
2.72599	5.94165
2.72456	6.02094
2.72313	6.0435
2.7217	5.95889
2.72027	5.89671
2.71884	5.90595
2.71742	5.89926
2.71599	6.0519
2.71457	6.01224
2.71315	5.8998
2.71173	6.04139
2.71032	6.25545
2.7089	6.43367
2.70748	6.38237
2.70607	6.27656
2.70466	6.33106
2.70325	6.47984
2.70184	6.46233
2.70043	6.54419
2.69903	6.68371
2.69762	6.84777
2.69622	6.9485
2.69482	6.92078
2.69342	6.85688
2.69202	6.89583
2.69062	6.88098
2.68923	6.65836
2.68783	6.7168
2.68644	6.79043
2.68505	6.90751
2.68366	7.05661
2.68227	7.06646
2.68089	6.96082
2.6795	6.98303
2.67812	7.04982
2.67673	7.07341
2.67535	6.98133
2.67397	6.94502
2.6726	6.8758
2.67122	6.80242
2.66984	6.90693
2.66847	6.9242
2.6671	6.86904
2.66572	6.8707
2.66435	6.99739
2.66299	7.2052
2.66162	7.06732
2.66025	6.85141
2.65889	6.87971
2.65753	6.8894
2.65616	6.83249
2.65481	6.83682
2.65345	6.96399
2.65209	7.12087
2.65073	7.08414
2.64938	7.04803
2.64803	7.07935
2.64667	7.1465
2.64532	7.0547
2.64397	6.968
2.64263	6.99892
2.64128	7.02178
2.63994	6.99367
2.63859	7.02512
2.63725	6.89869
2.63591	6.68934
2.63457	6.78458
2.63323	7.02297
2.6319	7.07059
2.63056	7.10544
2.62923	7.02619
2.62789	6.87078
2.62656	6.73175
2.62523	6.83417
2.6239	6.7914
2.62258	6.78941
2.62125	6.8355
2.61993	6.84857
2.6186	6.88033
2.61728	6.90256
2.61596	6.94577
2.61464	7.01911
2.61332	7.02766
2.61201	6.97573
2.61069	7.02989
2.60938	6.95292
2.60807	6.95022
2.60675	7.07515
2.60544	6.93376
2.60414	6.79918
2.60283	6.73927
2.60152	6.63028
2.60022	6.59399
2.59891	6.66618
2.59761	6.79804
2.59631	6.84023
2.59501	6.78702
2.59371	6.662
2.59242	6.66096
2.59112	6.74502
2.58983	6.73134
2.58853	6.78482
2.58724	6.99112
2.58595	7.04355
2.58466	6.9206
2.58338	6.86743
2.58209	6.88817
2.5808	6.85892
2.57952	6.72646
2.57824	6.57506
2.57695	6.70373
2.57567	6.8404
2.5744	6.7861
2.57312	6.7558
2.57184	6.70878
2.57057	6.66135
2.56929	6.76809
2.56802	6.84338
2.56675	6.92285
2.56548	6.80596
2.56421	6.73574
2.56294	6.72759
2.56168	6.62076
2.56041	6.67898
2.55915	6.6819
2.55789	6.65319
2.55662	6.84915
2.55536	6.78777
2.5541	6.67102
2.55285	6.73838
2.55159	6.82749
2.55034	6.84022
2.54908	6.89033
2.54783	6.94502
2.54658	6.81798
2.54533	6.76085
2.54408	6.80454
2.54283	6.84765
2.54159	6.87717
2.54034	6.79964
2.5391	6.64833
2.53785	6.74315
2.53661	6.87306
2.53537	6.79622
2.53413	6.73554
2.53289	6.69718
2.53166	6.66125
2.53042	6.57477
2.52919	6.57952
2.52795	6.69206
2.52672	6.75846
2.52549	6.65977
2.52426	6.39171
2.52303	6.43342
2.52181	6.63169
2.52058	6.72979
2.51936	6.66701
2.51813	6.75123
2.51691	6.78003
2.51569	6.63871
2.51447	6.50529
2.51325	6.52847
2.51203	6.58739
2.51082	6.65549
2.5096	6.71657
2.50839	6.69276
2.50717	6.64103
2.50596	6.55909
2.50475	6.47793
2.50354	6.57205
2.50233	6.58837
2.50113	6.4726
2.49992	6.24896
2.49872	6.33001
2.49751	6.60075
2.49631	6.71404
2.49511	6.50695
2.49391	6.51221
2.49271	6.56647
2.49151	6.49897
2.49031	6.50555
2.48912	6.66372
2.48792	6.66589
2.48673	6.49806
2.48554	6.39521
2.48435	6.3246
2.48316	6.391
2.48197	6.44977
2.48078	6.43609
2.4796	6.4235
2.47841	6.4184
2.47723	6.4037
2.47604	6.53146
2.47486	6.61251
2.47368	6.58683
2.4725	6.48757
2.47132	6.37654
2.47014	6.32788
2.46897	6.3207
2.46779	6.44008
2.46662	6.56174
2.46545	6.56083
2.46427	6.5276
2.4631	6.48564
2.46193	6.54403
2.46077	6.5932
2.4596	6.31848
2.45843	6.15142
2.45727	6.40379
2.4561	6.44101
2.45494	6.40038
2.45378	6.54906
2.45262	6.56234
2.45146	6.47051
2.4503	6.39145
2.44914	6.27497
2.44799	6.32717
2.44683	6.38421
2.44568	6.19857
2.44452	6.12788
2.44337	6.3811
2.44222	6.34375
2.44107	6.28972
2.43992	6.29512
2.43877	6.19587
2.43763	6.17572
2.43648	6.20724
2.43534	6.40313
2.43419	6.50582
2.43305	6.32559
2.43191	6.26428
2.43077	6.14238
2.42963	6.10519
2.42849	6.1491
2.42736	6.15054
2.42622	6.25206
2.42509	6.38473
2.42395	6.42532
2.42282	6.50123
2.42169	6.47409
2.42056	6.27283
2.41943	6.25152
2.4183	6.29586
2.41717	6.10642
2.41605	6.18541
2.41492	6.31182
2.4138	6.32707
2.41267	6.28133
2.41155	6.28392
2.41043	6.26286
2.40931	6.11627
2.40819	6.04944
2.40707	6.27075
2.40595	6.39113
2.40484	6.26007
2.40372	6.18588
2.40261	6.30818
2.4015	6.16034
2.40039	6.01863
2.39928	6.04098
2.39817	6.14212
2.39706	6.28085
2.39595	6.37209
2.39484	6.37799
2.39374	6.25387
2.39263	6.20097
2.39153	6.14621
2.39043	5.95129
2.38932	6.05756
2.38822	6.15777
2.38712	6.05381
2.38603	5.93012
2.38493	5.98541
2.38383	6.08682
2.38274	6.14289
2.38164	6.07263
2.38055	6.13328
2.37946	6.24399
2.37836	6.23428
2.37727	6.10111
2.37618	6.04158
2.3751	6.07181
2.37401	5.95925
2.37292	5.93697
2.37184	5.96839
2.37075	5.95203
2.36967	6.12325
2.36859	6.26909
2.3675	6.24618
2.36642	6.08812
2.36534	6.09495
2.36427	6.17535
2.36319	6.08537
2.36211	5.99714
2.36104	5.95999
2.35996	5.90543
2.35889	6.06645
2.35781	6.15253
2.35674	6.08838
2.35567	6.03984
2.3546	6.0086
2.35353	5.96149
2.35247	6.11383
2.3514	6.02568
2.35033	5.86728
2.34927	5.95365
2.3482	5.99251
2.34714	6.02342
2.34608	5.99825
2.34502	5.88757
2.34396	5.87728
2.3429	5.73011
2.34184	5.65347
2.34078	5.83098
2.33973	6.10535
2.33867	6.20526
2.33762	6.16201
2.33656	6.29737
2.33551	6.21052
2.33446	5.87951
2.33341	5.72006
2.33236	5.82823
2.33131	6.11544
2.33026	6.08793
2.32922	5.88236
2.32817	5.84517
2.32712	5.86236
2.32608	5.81624
2.32504	5.80522
2.324	5.83964
2.32295	6.04184
2.32191	6.01533
2.32087	5.89784
2.31984	5.83166
2.3188	5.96448
2.31776	6.09758
2.31673	6.03489
2.31569	5.86685
2.31466	5.97915
2.31362	6.01201
2.31259	5.88361
2.31156	5.92872
2.31053	5.92514
2.3095	5.72995
2.30847	5.72624
2.30745	5.89888
2.30642	5.97406
2.3054	6.0108
2.30437	5.69906
2.30335	5.52726
2.30232	5.65488
2.3013	5.86056
2.30028	6.04999
2.29926	6.14799
2.29824	6.00297
2.29722	5.92247
2.29621	5.96899
2.29519	5.9267
2.29417	5.85769
2.29316	5.89322
2.29215	5.89159
2.29113	5.88154
2.29012	5.91962
2.28911	5.86553
2.2881	5.76448
2.28709	5.80319
2.28608	5.9124
2.28507	5.81655
2.28407	5.83048
2.28306	5.87336
2.28206	5.89668
2.28105	5.92807
2.28005	5.96979
2.27905	5.93372
2.27805	5.94314
2.27705	5.87379
2.27605	5.9319
2.27505	6.0077
2.27405	5.85157
2.27305	5.76322
2.27206	5.90226
2.27106	5.97752
2.27007	5.89098
2.26907	5.80521
2.26808	5.89301
2.26709	5.94148
2.2661	5.97012
2.26511	5.93442
2.26412	5.82051
2.26313	5.81292
2.26214	5.95317
2.26116	6.03142
2.26017	6.01308
2.25919	5.93661
2.2582	5.90733
2.25722	5.83396
2.25624	5.82893
2.25526	5.81184
2.25428	5.8586
2.2533	5.90304
2.25232	5.96682
2.25134	6.00389
2.25036	5.95992
2.24939	5.83837
2.24841	5.81495
2.24744	5.84827
2.24646	5.87566
2.24549	5.8117
2.24452	5.71977
2.24355	5.86641
2.24257	5.93303
2.24161	5.89902
2.24064	5.89945
2.23967	6.11042
2.2387	6.11929
2.23774	5.84694
2.23677	5.8678
2.23581	5.84644
2.23484	5.66214
2.23388	5.51952
2.23292	5.67422
2.23196	6.04219
2.231	5.99643
2.23004	5.72532
2.22908	5.73127
2.22812	5.90448
2.22716	6.01423
2.22621	5.91703
2.22525	5.81555
2.2243	5.94346
2.22334	6.0279
2.22239	5.82638
2.22144	5.70489
2.22049	5.7948
2.21953	5.82705
2.21859	5.84228
2.21764	5.7427
2.21669	5.67962
2.21574	5.78314
2.21479	5.91756
2.21385	6.10201
2.2129	6.09767
2.21196	6.02943
2.21102	5.95501
2.21007	5.81777
2.20913	5.79232
2.20819	5.69698
2.20725	5.72118
2.20631	5.79454
2.20537	5.70163
2.20444	5.77741
2.2035	5.90827
2.20256	5.91699
2.20163	5.98787
2.20069	5.83578
2.19976	5.72089
2.19883	5.871
2.19789	5.98266
2.19696	5.92721
2.19603	5.85463
2.1951	6.02228
2.19417	6.07293
2.19325	5.83052
2.19232	5.61828
2.19139	5.61973
2.19047	5.7282
2.18954	5.76076
2.18862	5.7583
2.18769	5.75992
2.18677	5.88485
2.18585	5.86636
2.18493	5.93085
2.18401	5.97461
2.18309	5.91113
2.18217	5.90038
2.18125	5.77463
2.18033	5.7364
2.17942	5.95
2.1785	6.17693
2.17759	5.94467
2.17667	5.78196
2.17576	5.77009
2.17485	5.70673
2.17393	5.75169
2.17302	5.9055
2.17211	5.84959
2.1712	5.8981
2.17029	5.98124
2.16939	5.91714
2.16848	5.91422
2.16757	6.10434
2.16667	6.0828
2.16576	6.00269
2.16486	5.81293
2.16395	5.88894
2.16305	6.07508
2.16215	5.89957
2.16125	5.78597
2.16035	5.98225
2.15945	6.04568
2.15855	6.11102
2.15765	6.12074
2.15675	5.95549
2.15586	5.53756
2.15496	5.46033
2.15406	5.60259
2.15317	5.85106
2.15228	5.98444
2.15138	6.05277
2.15049	6.12532
2.1496	5.94728
2.14871	5.64883
2.14782	5.66919
2.14693	6.05938
2.14604	6.30541
2.14515	6.28132
2.14427	5.95803
2.14338	5.78783
2.14249	6.19409
2.14161	6.26242
2.14072	6.06278
2.13984	6.08933
2.13896	6.11185
2.13808	5.87552
2.13719	6.00012
2.13631	6.13701
2.13543	5.95971
2.13455	5.86132
2.13368	5.91952
2.1328	5.97169
2.13192	6.00404
2.13105	5.85604
2.13017	5.69936
2.1293	5.78188
2.12842	5.88493
2.12755	5.87637
2.12668	5.97575
2.1258	5.92728
2.12493	5.90037
2.12406	5.96728
2.12319	6.19701
2.12232	6.22807
2.12145	5.8877
2.12059	5.6386
2.11972	5.77642
2.11885	5.75784
2.11799	5.81442
2.11712	5.99575
2.11626	5.91741
2.1154	5.8116
2.11453	6.094
2.11367	6.18141
2.11281	6.31804
2.11195	6.07499
2.11109	5.83886
2.11023	6.06784
2.10937	5.95911
2.10851	5.77197
2.10766	5.76472
2.1068	5.72481
2.10594	5.70096
2.10509	5.83485
2.10423	6.13728
2.10338	6.12726
2.10253	5.88542
2.10168	5.83672
2.10082	6.00085
2.09997	6.12234
2.09912	5.99858
2.09827	5.72733
2.09742	5.57504
2.09658	5.58084
2.09573	5.86746
2.09488	5.87538
2.09404	6.10662
2.09319	6.23288
2.09235	6.20644
2.0915	6.00682
2.09066	5.86419
2.08982	5.8631
2.08897	5.83814
2.08813	5.68027
2.08729	5.88983
2.08645	6.35352
2.08561	6.10375
2.08477	5.77586
2.08394	5.76012
2.0831	5.97929
2.08226	6.18318
2.08143	6.13717
2.08059	6.05073
2.07976	6.32665
2.07892	6.48957
2.07809	6.3999
2.07726	6.11266
2.07643	5.82737
2.07559	6.2336
2.07476	6.40427
2.07393	6.11622
2.0731	6.12385
2.07228	6.47074
2.07145	6.40346
2.07062	5.997
2.06979	5.65819
2.06897	5.74101
2.06814	5.69326
2.06732	5.70312
2.06649	6.07819
2.06567	5.96352
2.06485	6.26206
2.06403	6.42332
2.0632	6.0573
2.06238	6.00529
2.06156	6.1266
2.06074	6.15942
2.05993	6.40425
2.05911	6.35868
2.05829	6.27209
2.05747	6.03157
2.05666	6.02132
2.05584	6.0815
2.05503	5.95556
2.05421	5.65383
2.0534	5.6982
2.05259	6.21094
2.05177	6.29358
2.05096	6.19055
2.05015	6.47572
2.04934	6.29741
2.04853	5.93789
2.04772	5.93266
2.04691	6.1253
2.04611	6.2548
2.0453	6.25682
2.04449	6.25411
2.04369	6.36559
2.04288	6.01182
2.04208	5.57801
2.04127	5.86819
2.04047	6.16821
2.03967	6.11028
2.03886	6.15567
2.03806	6.20115
2.03726	6.24502
2.03646	6.29613
2.03566	6.29422
2.03486	6.11867
2.03407	6.01648
2.03327	6.16218
2.03247	6.22249
2.03167	6.05675
2.03088	5.99618
2.03008	6.28024
2.02929	6.40721
2.0285	6.33694
2.0277	6.17254
2.02691	6.15637
2.02612	6.24323
2.02533	6.26075
2.02453	6.25573
2.02374	6.45054
2.02295	6.30816
2.02217	5.94477
2.02138	6.01024
2.02059	6.34271
2.0198	6.61656
2.01902	6.49606
2.01823	6.33954
2.01744	6.31796
2.01666	6.17879
2.01588	6.06333
2.01509	6.12468
2.01431	6.32772
2.01353	6.35658
2.01275	6.25408
2.01196	6.33839
2.01118	6.29013
2.0104	6.43245
2.00963	6.49391
2.00885	6.22586
2.00807	6.06764
2.00729	6.00412
2.00651	6.10898
2.00574	6.17309
2.00496	6.18019
2.00419	6.3716
2.00341	6.47181
2.00264	6.26006
2.00187	6.20383
2.00109	6.26163
2.00032	6.12407
