Name: Hematite alpha Fe_2O_3
Type: Mineral
Class: Oxides
Subclass: 
Particle Size: 45-125um
Sample No.: O-1A
Owner: JPL
Wavelength range: IR
Origin: USA, Alabama, Birmingham
Collected by Burminco
Description: 





Measurement: Hemispherical reflectance
First Column: X
Second Column: Y
X Units:  Wavelength (micrometers)
Y Units:  Reflectance (percent)
First X Value: 15.3853
Last X Value: 2.00032
Number of X Values: 2256
Additional information: o01aa.txt
 
15.3853	7.98592
15.3397	7.33117
15.2945	6.9055
15.2495	6.44134
15.2048	5.72571
15.1603	4.97443
15.1161	4.68707
15.0722	4.50559
15.0285	3.98715
14.9851	3.28462
14.9419	2.98887
14.8989	2.84112
14.8563	2.7169
14.8138	2.55671
14.7716	2.369
14.7296	2.29146
14.6879	2.23665
14.6464	2.13417
14.6052	1.9303
14.5641	1.86374
14.5233	1.85502
14.4828	1.7532
14.4424	1.7797
14.4023	1.78767
14.3624	1.65951
14.3227	1.51017
14.2833	1.26263
14.244	1.17618
14.205	1.1854
14.1662	1.32326
14.1276	1.43402
14.0892	1.45918
14.051	1.42319
14.0131	1.45608
13.9753	1.59751
13.9377	1.7068
13.9004	1.67702
13.8632	1.67674
13.8262	1.60683
13.7895	1.77115
13.7529	1.98793
13.7165	2.0544
13.6803	2.13993
13.6443	2.08216
13.6085	2.05279
13.5729	2.21769
13.5374	2.32048
13.5022	2.38039
13.4671	2.31727
13.4322	2.32144
13.3975	2.43568
13.363	2.50655
13.3286	2.42894
13.2944	2.5382
13.2604	2.66958
13.2266	2.71856
13.193	2.76205
13.1595	2.67603
13.1262	2.65671
13.093	2.72669
13.06	2.84652
13.0272	3.05371
12.9946	3.20075
12.9621	3.31641
12.9298	3.50114
12.8976	3.63999
12.8656	3.85552
12.8337	4.03098
12.8021	4.05689
12.7705	4.16247
12.7391	4.15299
12.7079	3.90528
12.6769	3.57949
12.6459	3.41656
12.6152	3.49813
12.5845	3.72944
12.5541	3.97286
12.5238	4.22992
12.4936	4.3708
12.4635	4.12009
12.4337	3.78321
12.4039	3.4795
12.3743	3.14896
12.3448	2.92371
12.3155	2.69224
12.2863	2.60519
12.2573	2.66977
12.2284	2.69992
12.1996	2.72839
12.171	2.84467
12.1425	2.94911
12.1141	2.81805
12.0859	2.9218
12.0578	3.12262
12.0298	3.13969
12.0019	3.08201
11.9742	3.12744
11.9466	3.21948
11.9192	3.37084
11.8918	3.42414
11.8646	3.31387
11.8375	3.29357
11.8106	3.40221
11.7837	3.40271
11.757	3.40337
11.7304	3.50025
11.7039	3.51023
11.6776	3.34837
11.6513	3.27968
11.6252	3.37376
11.5992	3.40439
11.5733	3.47412
11.5475	3.48661
11.5219	3.43687
11.4963	3.52548
11.4709	3.80898
11.4455	3.87149
11.4203	3.89386
11.3952	4.07005
11.3702	4.25379
11.3454	4.33366
11.3206	4.34443
11.2959	4.40652
11.2714	4.42593
11.2469	4.45515
11.2226	4.33614
11.1983	4.22268
11.1742	4.30793
11.1502	4.37775
11.1263	4.27121
11.1024	4.22076
11.0787	4.22458
11.0551	4.2104
11.0316	4.16208
11.0081	4.19076
10.9848	4.07041
10.9616	4.07687
10.9385	4.10599
10.9154	4.19504
10.8925	4.2969
10.8697	4.37223
10.8469	4.31968
10.8243	4.27671
10.8017	4.22019
10.7793	4.21626
10.7569	4.32199
10.7346	4.47675
10.7125	4.38568
10.6904	4.38518
10.6684	4.5088
10.6465	4.48402
10.6247	4.34134
10.6029	4.27151
10.5813	4.37823
10.5597	4.54344
10.5383	4.527
10.5169	4.51106
10.4956	4.56745
10.4744	4.62583
10.4533	4.6801
10.4323	4.65208
10.4113	4.70718
10.3904	4.75468
10.3697	4.72179
10.349	4.75211
10.3284	4.80891
10.3078	4.88881
10.2874	4.99261
10.267	5.0435
10.2467	5.02376
10.2265	4.98064
10.2064	4.95545
10.1863	4.98242
10.1663	5.0649
10.1464	5.08959
10.1266	5.03987
10.1069	5.06933
10.0872	5.12422
10.0676	5.09497
10.0481	5.09381
10.0287	5.16761
10.0093	5.16272
9.99005	5.19495
9.97084	5.23959
9.95169	5.24845
9.93263	5.13223
9.91364	5.22333
9.89472	5.36391
9.87587	5.35729
9.8571	5.37096
9.83839	5.51036
9.81976	5.47158
9.80119	5.47216
9.78271	5.53676
9.76428	5.53599
9.74592	5.64934
9.72764	5.8306
9.70943	5.82353
9.69128	5.80809
9.6732	5.89489
9.65518	5.9694
9.63724	6.02133
9.61935	6.09603
9.60155	6.16351
9.5838	6.18533
9.56611	6.26825
9.5485	6.37352
9.53094	6.4151
9.51345	6.48006
9.49604	6.65293
9.47867	7.03375
9.46137	7.22662
9.44414	7.33637
9.42697	7.66292
9.40986	7.97567
9.39281	8.3632
9.37583	8.77768
9.35891	9.07481
9.34204	9.30224
9.32524	9.65406
9.3085	9.94868
9.29182	10.0546
9.27519	10.0887
9.25863	10.1754
9.24213	10.1915
9.22568	10.2587
9.2093	10.3292
9.19297	10.2583
9.17669	10.4264
9.16048	10.6375
9.14433	10.69
9.12823	10.7539
9.11218	10.8526
9.0962	10.9628
9.08027	11.067
9.06439	11.1061
9.04858	11.16
9.03281	11.2399
9.0171	11.2502
9.00145	11.259
8.98585	11.2671
8.9703	11.2959
8.9548	11.3729
8.93937	11.4275
8.92398	11.4897
8.90865	11.5744
8.89337	11.6009
8.87814	11.5132
8.86296	11.5244
8.84784	11.6967
8.83277	11.6905
8.81774	11.5968
8.80277	11.6292
8.78786	11.639
8.77298	11.5948
8.75816	11.4564
8.7434	11.428
8.72868	11.3673
8.714	11.1608
8.69938	11.0482
8.68481	11.0384
8.67029	10.7156
8.65581	10.1064
8.64139	9.4916
8.62701	9.22495
8.61268	9.46901
8.5984	10.1564
8.58416	10.9165
8.56997	11.4181
8.55583	11.6872
8.54174	11.8104
8.52769	11.935
8.51368	12.1695
8.49973	12.2624
8.48582	12.4819
8.47195	12.7427
8.45813	12.865
8.44436	12.9386
8.43062	13.1053
8.41693	13.2631
8.4033	13.3422
8.3897	13.3534
8.37614	13.4932
8.36264	13.6138
8.34917	13.6508
8.33574	13.6538
8.32236	13.775
8.30903	13.9549
8.29573	14.0124
8.28248	14.0681
8.26927	14.168
8.2561	14.3114
8.24298	14.3775
8.2299	14.4061
8.21685	14.4957
8.20385	14.5245
8.19089	14.5169
8.17797	14.4548
8.16509	14.3157
8.15225	14.1084
8.13946	13.8004
8.1267	13.4726
8.11398	13.2146
8.10131	13.1077
8.08867	12.8414
8.07606	12.4819
8.0635	12.1999
8.05099	11.942
8.0385	11.7571
8.02606	11.6529
8.01366	11.6514
8.00129	11.5323
7.98896	11.2612
7.97667	11.0107
7.96442	10.8524
7.9522	10.7113
7.94002	10.5526
7.92788	10.4084
7.91578	10.2682
7.90371	10.1528
7.89168	10.0635
7.87969	9.96153
7.86773	9.81408
7.85581	9.72334
7.84392	9.70003
7.83207	9.6495
7.82026	9.60887
7.80849	9.51338
7.79674	9.48163
7.78503	9.50403
7.77337	9.53948
7.76173	9.59946
7.75012	9.62334
7.73856	9.59188
7.72703	9.59842
7.71553	9.60442
7.70406	9.58623
7.69263	9.57971
7.68123	9.64076
7.66987	9.6145
7.65855	9.57462
7.64725	9.51517
7.63598	9.36956
7.62475	9.39294
7.61356	9.47102
7.60239	9.42975
7.59126	9.44299
7.58017	9.44472
7.5691	9.43091
7.55806	9.3544
7.54707	9.40685
7.5361	9.46729
7.52516	9.49964
7.51425	9.5056
7.50338	9.50503
7.49253	9.5868
7.48172	9.58123
7.47094	9.51004
7.46019	9.43367
7.44947	9.38153
7.43879	9.39362
7.42813	9.33955
7.4175	9.32996
7.4069	9.36267
7.39634	9.43756
7.3858	9.49163
7.37529	9.49486
7.36482	9.42579
7.35437	9.37399
7.34396	9.35518
7.33357	9.34167
7.32321	9.36291
7.31288	9.3529
7.30258	9.24439
7.29231	9.17704
7.28207	9.23536
7.27185	9.25793
7.26167	9.24824
7.25152	9.30608
7.24139	9.32307
7.23129	9.31397
7.22122	9.35388
7.21117	9.32797
7.20116	9.33871
7.19117	9.45878
7.18121	9.45359
7.17128	9.45974
7.16137	9.44386
7.1515	9.52023
7.14164	9.54409
7.13182	9.55313
7.12203	9.58938
7.11225	9.56126
7.10251	9.58896
7.0928	9.61449
7.08311	9.58192
7.07344	9.54098
7.06381	9.47307
7.0542	9.57796
7.04461	9.64631
7.03506	9.43482
7.02552	9.38929
7.01601	9.46181
7.00653	9.468
6.99708	9.48103
6.98765	9.51581
6.97824	9.55904
6.96886	9.68022
6.95951	9.82274
6.95018	9.70586
6.94087	9.64749
6.9316	9.69948
6.92234	9.64772
6.91311	9.63068
6.90391	9.65896
6.89473	9.51587
6.88557	9.42285
6.87644	9.48172
6.86733	9.72681
6.85824	9.6935
6.84918	9.47552
6.84015	9.41406
6.83114	9.49357
6.82215	9.52066
6.81319	9.52487
6.80424	9.53453
6.79532	9.5951
6.78643	9.61801
6.77756	9.57784
6.76871	9.59114
6.75989	9.54092
6.75109	9.46979
6.74231	9.45184
6.73355	9.45436
6.72482	9.48309
6.71611	9.5038
6.70742	9.48373
6.69875	9.36676
6.69011	9.43036
6.68149	9.53066
6.67289	9.5646
6.66431	9.52367
6.65576	9.5095
6.64722	9.72954
6.63871	9.93863
6.63022	9.82302
6.62175	9.63863
6.61331	9.55361
6.60488	9.56581
6.59648	9.62595
6.5881	9.63069
6.57974	9.6229
6.5714	9.65986
6.56308	9.60971
6.55478	9.61969
6.54651	9.60743
6.53825	9.54555
6.53001	9.56781
6.5218	9.79478
6.51361	9.90182
6.50544	9.97565
6.49729	10.2618
6.48915	10.4558
6.48104	10.4034
6.47295	10.4081
6.46488	10.4251
6.45683	10.4264
6.4488	10.4619
6.44079	10.499
6.4328	10.4826
6.42482	10.5452
6.41687	10.8073
6.40894	10.6538
6.40103	10.2381
6.39314	10.095
6.38526	10.0346
6.37741	9.97239
6.36957	9.84313
6.36176	9.69751
6.35396	9.60436
6.34618	9.60304
6.33843	9.4596
6.33069	9.2284
6.32297	9.11378
6.31527	9.09937
6.30758	9.023
6.29992	8.9235
6.29227	8.82525
6.28465	8.71173
6.27704	8.66963
6.26945	8.60614
6.26188	8.60548
6.25432	8.62926
6.24679	8.46012
6.23927	8.24353
6.23177	8.2053
6.22429	8.16234
6.21683	8.03898
6.20938	7.94019
6.20195	7.81241
6.19454	7.76334
6.18715	7.86753
6.17978	7.87253
6.17242	7.73118
6.16508	7.77825
6.15776	7.84831
6.15045	7.73967
6.14317	7.70775
6.1359	7.68565
6.12864	7.67026
6.12141	7.79761
6.11419	8.00442
6.10699	7.99593
6.0998	7.94244
6.09263	7.99808
6.08549	8.13033
6.07835	8.38827
6.07123	8.53421
6.06413	8.56797
6.05705	8.64421
6.04998	8.87175
6.04293	8.7777
6.0359	8.68524
6.02888	8.73921
6.02187	8.81222
6.01489	8.86597
6.00792	8.87238
6.00096	8.89082
5.99403	9.02822
5.98711	9.17972
5.9802	9.08392
5.97331	8.95723
5.96644	8.97204
5.95958	8.94377
5.95274	9.0199
5.94591	9.17432
5.9391	9.38937
5.9323	9.42682
5.92552	9.30362
5.91876	9.27961
5.91201	9.32428
5.90528	9.41841
5.89856	9.65376
5.89186	9.75543
5.88517	9.93835
5.8785	10.1285
5.87184	10.0066
5.8652	10.0534
5.85857	10.0995
5.85196	10.1258
5.84536	10.1937
5.83878	10.3611
5.83221	10.5361
5.82566	10.676
5.81912	10.7376
5.81259	10.6481
5.80608	10.6723
5.79959	10.7501
5.79311	10.8496
5.78665	10.9045
5.78019	10.8953
5.77376	11.0723
5.76734	11.3797
5.76093	11.2563
5.75453	11.0822
5.74815	11.2054
5.74179	11.2372
5.73543	11.1999
5.7291	11.2477
5.72277	11.3363
5.71646	11.3891
5.71017	11.4064
5.70389	11.3472
5.69762	11.3159
5.69136	11.3406
5.68513	11.2683
5.6789	11.1687
5.67268	11.0462
5.66648	10.8762
5.6603	10.8205
5.65413	10.7962
5.64797	10.7496
5.64182	10.704
5.63569	10.4757
5.62957	10.1855
5.62347	10.0139
5.61737	9.96767
5.61129	9.8097
5.60522	9.58857
5.59917	9.38166
5.59313	9.23424
5.5871	9.08731
5.58109	8.98391
5.57509	8.91094
5.5691	8.80473
5.56312	8.74862
5.55716	8.78574
5.55121	9.01348
5.54528	9.31797
5.53935	9.50135
5.53344	9.65068
5.52754	9.81032
5.52166	9.96529
5.51578	10.1755
5.50992	10.2955
5.50407	10.3613
5.49823	10.4677
5.49241	10.6004
5.4866	10.7065
5.4808	10.8862
5.47501	11.0291
5.46923	11.1046
5.46347	11.1788
5.45772	11.142
5.45198	11.1213
5.44625	11.1687
5.44054	11.1762
5.43484	11.1813
5.42914	11.1405
5.42347	11.1186
5.4178	10.9745
5.41214	10.7366
5.4065	10.6492
5.40087	10.6027
5.39525	10.5452
5.38964	10.3483
5.38404	10.1757
5.37846	10.0736
5.37288	9.96368
5.36732	9.94861
5.36177	9.89505
5.35623	9.92191
5.35071	10.0222
5.34519	10.0132
5.33968	10.0044
5.33419	9.95952
5.32871	9.94574
5.32324	10.055
5.31778	10.0593
5.31233	10.0212
5.30689	10.044
5.30147	10.0742
5.29605	10.0892
5.29065	10.2582
5.28525	10.3216
5.27987	10.3292
5.2745	10.3493
5.26914	10.3675
5.26379	10.3756
5.25845	10.4591
5.25312	10.5858
5.24781	10.7128
5.2425	10.8348
5.23721	10.9073
5.23192	11.0513
5.22665	11.211
5.22138	11.3382
5.21613	11.4588
5.21089	11.5619
5.20566	11.5748
5.20044	11.5965
5.19522	11.6885
5.19002	11.7453
5.18483	11.7135
5.17965	11.5707
5.17448	11.5382
5.16933	11.5675
5.16418	11.5619
5.15904	11.5194
5.15391	11.5338
5.14879	11.5557
5.14368	11.5113
5.13859	11.4428
5.1335	11.4514
5.12842	11.4781
5.12335	11.4286
5.1183	11.4677
5.11325	11.4689
5.10821	11.2908
5.10318	11.2205
5.09817	11.198
5.09316	11.1895
5.08816	11.2764
5.08317	11.2601
5.07819	11.1444
5.07322	11.0967
5.06826	11.0575
5.06331	11.1142
5.05837	11.1384
5.05344	11.1293
5.04852	11.1185
5.04361	10.9895
5.03871	10.9291
5.03382	10.9678
5.02894	10.9854
5.02406	10.8699
5.0192	10.8049
5.01435	10.8468
5.0095	10.8807
5.00467	10.8929
4.99984	10.9116
4.99502	11.0154
4.99021	11.1008
4.98542	11.0989
4.98063	11.1118
4.97585	11.1381
4.97108	11.1868
4.96632	11.3278
4.96156	11.4441
4.95682	11.5606
4.95209	11.6793
4.94736	11.7308
4.94264	11.8
4.93794	11.8782
4.93324	11.9296
4.92855	11.9875
4.92387	11.9841
4.9192	12.046
4.91453	12.1842
4.90988	12.3646
4.90524	12.5392
4.9006	12.6518
4.89597	12.7821
4.89135	12.9601
4.88674	13.0683
4.88214	13.1903
4.87755	13.3079
4.87296	13.4875
4.86839	13.5859
4.86382	13.531
4.85926	13.5298
4.85471	13.5844
4.85017	13.6683
4.84564	13.7382
4.84111	13.7906
4.8366	13.7997
4.83209	13.7783
4.82759	13.791
4.8231	13.8196
4.81862	13.8512
4.81415	13.8969
4.80968	13.8907
4.80522	13.8571
4.80077	13.8819
4.79633	13.945
4.7919	13.9349
4.78747	13.9714
4.78306	13.9823
4.77865	13.9759
4.77425	13.9985
4.76986	13.9959
4.76547	14.0053
4.7611	14.0605
4.75673	14.083
4.75237	13.9913
4.74802	13.9688
4.74367	13.9922
4.73934	14.0016
4.73501	14.0328
4.73069	14.0313
4.72638	14.0773
4.72207	14.1087
4.71777	14.0177
4.71348	13.9304
4.7092	13.8658
4.70493	13.7827
4.70066	13.7137
4.69641	13.6155
4.69216	13.5372
4.68791	13.4895
4.68368	13.5283
4.67945	13.617
4.67523	13.5858
4.67102	13.5139
4.66682	13.5691
4.66262	13.6079
4.65843	13.6399
4.65425	13.7196
4.65007	13.7679
4.64591	13.7997
4.64175	13.7808
4.6376	13.8668
4.63345	13.996
4.62932	13.9782
4.62519	13.989
4.62106	14.0843
4.61695	14.0789
4.61284	14.0853
4.60874	14.1475
4.60465	14.2287
4.60056	14.2436
4.59648	14.1832
4.59241	14.1638
4.58835	14.2275
4.58429	14.3463
4.58024	14.3576
4.5762	14.2675
4.57216	14.2522
4.56814	14.2434
4.56411	14.2524
4.5601	14.3084
4.55609	14.3516
4.55209	14.3155
4.5481	14.2727
4.54411	14.2868
4.54013	14.3164
4.53616	14.3102
4.5322	14.2381
4.52824	14.216
4.52429	14.1603
4.52034	14.1182
4.51641	14.1661
4.51247	14.1247
4.50855	14.0411
4.50463	14.003
4.50072	13.9523
4.49682	14.0175
4.49292	14.084
4.48903	14.0087
4.48515	13.9372
4.48127	13.9511
4.4774	13.9185
4.47354	13.8769
4.46968	13.8929
4.46584	13.9463
4.46199	14.0284
4.45815	14.0936
4.45432	14.0947
4.4505	14.1935
4.44668	14.3015
4.44287	14.2241
4.43907	14.0739
4.43527	14.1081
4.43148	14.1535
4.4277	14.2123
4.42392	14.3069
4.42015	14.2678
4.41638	14.2821
4.41262	14.3191
4.40887	14.3257
4.40513	14.2804
4.40139	14.3001
4.39765	14.4023
4.39393	14.4937
4.39021	14.5204
4.38649	14.4896
4.38278	14.4341
4.37908	14.4607
4.37539	14.5633
4.3717	14.5989
4.36801	14.5368
4.36434	14.4649
4.36067	14.4846
4.357	14.5958
4.35335	14.6405
4.34969	14.6041
4.34605	14.5999
4.34241	14.6518
4.33877	14.6415
4.33514	14.5861
4.33152	14.6308
4.32791	14.6094
4.3243	14.5752
4.32069	14.632
4.3171	14.6501
4.31351	14.6585
4.30992	14.6959
4.30634	14.6757
4.30277	14.6198
4.2992	14.5443
4.29564	14.5406
4.29208	14.6912
4.28853	14.8203
4.28499	14.7316
4.28145	14.6446
4.27792	14.6593
4.27439	14.6189
4.27087	14.5849
4.26735	14.5597
4.26384	14.5715
4.26034	14.5968
4.25684	14.5466
4.25335	14.6073
4.24986	14.6633
4.24638	14.6902
4.24291	14.69
4.23944	14.6313
4.23598	14.61
4.23252	14.6644
4.22906	14.7219
4.22562	14.6949
4.22218	14.6448
4.21874	14.5537
4.21531	14.5489
4.21189	14.6456
4.20847	14.5922
4.20506	14.5536
4.20165	14.5851
4.19825	14.581
4.19485	14.5592
4.19146	14.6049
4.18807	14.6469
4.18469	14.5607
4.18132	14.4815
4.17795	14.5033
4.17458	14.5473
4.17123	14.5084
4.16787	14.4627
4.16453	14.5163
4.16118	14.5506
4.15785	14.5248
4.15451	14.5179
4.15119	14.4793
4.14787	14.4146
4.14455	14.4247
4.14124	14.4524
4.13794	14.3638
4.13464	14.3014
4.13134	14.3464
4.12805	14.4098
4.12477	14.3623
4.12149	14.3396
4.11822	14.3441
4.11495	14.367
4.11168	14.3445
4.10843	14.3154
4.10517	14.3164
4.10192	14.289
4.09868	14.3108
4.09545	14.374
4.09221	14.3234
4.08899	14.162
4.08576	14.2165
4.08255	14.2366
4.07933	14.1186
4.07613	14.0611
4.07292	14.0652
4.06973	14.0609
4.06654	14.0191
4.06335	13.8861
4.06017	13.7893
4.05699	13.7445
4.05382	13.728
4.05065	13.7544
4.04749	13.6685
4.04433	13.4911
4.04118	13.3465
4.03803	13.3284
4.03489	13.264
4.03175	13.1402
4.02862	13.0172
4.02549	12.8759
4.02237	12.7484
4.01925	12.6609
4.01614	12.5388
4.01303	12.5298
4.00993	12.4612
4.00683	12.3194
4.00373	12.2369
4.00064	12.1558
3.99756	12.1117
3.99448	12.0581
3.9914	12.0707
3.98833	12.1006
3.98527	12.0511
3.98221	11.9532
3.97915	11.8735
3.9761	11.877
3.97305	11.908
3.97001	11.9412
3.96697	11.953
3.96394	11.9405
3.96091	11.9444
3.95789	11.9847
3.95487	12.035
3.95186	12.0738
3.94885	12.1233
3.94584	12.2175
3.94284	12.2791
3.93984	12.335
3.93685	12.3552
3.93386	12.4708
3.93088	12.6266
3.9279	12.6049
3.92493	12.5545
3.92196	12.5193
3.919	12.5085
3.91604	12.5503
3.91308	12.6179
3.91013	12.6442
3.90718	12.6372
3.90424	12.5978
3.9013	12.582
3.89837	12.6761
3.89544	12.7229
3.89252	12.6682
3.8896	12.6575
3.88668	12.6843
3.88377	12.7577
3.88086	12.819
3.87796	12.6789
3.87506	12.5873
3.87217	12.6347
3.86928	12.6504
3.86639	12.6263
3.86351	12.6508
3.86064	12.6524
3.85776	12.6531
3.8549	12.6769
3.85203	12.6822
3.84917	12.6669
3.84631	12.6766
3.84346	12.6913
3.84062	12.6541
3.83777	12.6883
3.83494	12.7468
3.8321	12.779
3.82927	12.8553
3.82644	12.8506
3.82362	12.8693
3.82081	12.9669
3.81799	13.0404
3.81518	13.0457
3.81238	13.0584
3.80958	13.1277
3.80678	13.2449
3.80399	13.3795
3.8012	13.4368
3.79841	13.4149
3.79563	13.5008
3.79286	13.5609
3.79008	13.6229
3.78731	13.7177
3.78455	13.7708
3.78179	13.7567
3.77903	13.6997
3.77628	13.6807
3.77353	13.5954
3.77079	13.557
3.76805	13.7485
3.76531	13.8389
3.76258	13.8135
3.75985	13.8335
3.75713	13.8418
3.7544	13.7947
3.75169	13.7626
3.74898	13.7541
3.74627	13.704
3.74356	13.7201
3.74086	13.7447
3.73816	13.7009
3.73547	13.7378
3.73278	13.8153
3.7301	13.8085
3.72741	13.7662
3.72474	13.7647
3.72206	13.8658
3.71939	13.8596
3.71673	13.7842
3.71406	13.6947
3.71141	13.6496
3.70875	13.7209
3.7061	13.752
3.70345	13.7255
3.70081	13.6907
3.69817	13.697
3.69553	13.7493
3.6929	13.8204
3.69027	13.7909
3.68765	13.6899
3.68503	13.6369
3.68241	13.7087
3.6798	13.805
3.67719	13.8346
3.67458	13.6857
3.67198	13.5645
3.66938	13.5997
3.66678	13.5938
3.66419	13.5816
3.66161	13.6027
3.65902	13.6333
3.65644	13.6818
3.65387	13.6892
3.65129	13.6335
3.64872	13.5538
3.64616	13.5501
3.64359	13.5817
3.64103	13.5801
3.63848	13.5282
3.63593	13.5073
3.63338	13.5455
3.63084	13.5068
3.6283	13.4457
3.62576	13.5173
3.62322	13.5542
3.62069	13.5343
3.61817	13.4095
3.61564	13.3761
3.61312	13.4171
3.61061	13.387
3.6081	13.3497
3.60559	13.4182
3.60308	13.3672
3.60058	13.2688
3.59808	13.2937
3.59558	13.2451
3.59309	13.2098
3.59061	13.2534
3.58812	13.2432
3.58564	13.1625
3.58316	13.1148
3.58069	13.1088
3.57822	13.004
3.57575	12.9367
3.57328	12.9794
3.57082	12.9537
3.56836	12.8686
3.56591	12.8501
3.56346	12.935
3.56101	12.9854
3.55857	13.0765
3.55613	13.0607
3.55369	12.8776
3.55126	12.7484
3.54883	12.6786
3.5464	12.6786
3.54397	12.6698
3.54155	12.5587
3.53914	12.5052
3.53672	12.4755
3.53431	12.4135
3.5319	12.3228
3.5295	12.2163
3.5271	12.1616
3.5247	12.0413
3.52231	11.9226
3.51991	11.8425
3.51753	11.7809
3.51514	11.6718
3.51276	11.6107
3.51038	11.554
3.50801	11.5915
3.50563	11.5896
3.50327	11.4679
3.5009	11.3654
3.49854	11.3142
3.49618	11.363
3.49382	11.3164
3.49147	11.2411
3.48912	11.2422
3.48677	11.1912
3.48443	11.1527
3.48209	11.1583
3.47975	11.189
3.47742	11.0676
3.47509	11.0791
3.47276	11.1402
3.47044	11.1628
3.46812	11.2124
3.4658	11.2264
3.46348	11.197
3.46117	11.2675
3.45886	11.3904
3.45656	11.446
3.45425	11.4727
3.45195	11.4355
3.44966	11.3474
3.44736	11.2903
3.44507	11.2814
3.44279	11.2566
3.4405	11.2962
3.43822	11.3485
3.43594	11.3876
3.43367	11.3447
3.43139	11.4164
3.42912	11.4219
3.42686	11.2472
3.42459	11.1949
3.42233	11.2607
3.42007	11.22
3.41782	11.1876
3.41557	11.2366
3.41332	11.2805
3.41108	11.1931
3.40883	11.1719
3.40659	11.1855
3.40435	11.2006
3.40212	11.1794
3.39989	11.1255
3.39766	11.08
3.39544	11.107
3.39322	11.1476
3.391	11.1687
3.38878	11.1894
3.38657	11.1906
3.38436	11.1214
3.38215	11.1073
3.37994	11.0885
3.37774	11.0025
3.37554	10.9041
3.37335	10.9233
3.37115	10.9717
3.36896	10.887
3.36678	10.8121
3.36459	10.8073
3.36241	10.7985
3.36023	10.8714
3.35805	10.9489
3.35588	10.8802
3.35371	10.8028
3.35154	10.8488
3.34938	10.8852
3.34721	10.8472
3.34505	10.8041
3.3429	10.8592
3.34074	11.0081
3.33859	11.1636
3.33644	11.1768
3.3343	11.1397
3.33215	11.2512
3.33001	11.4217
3.32788	11.4698
3.32574	11.3944
3.32361	11.3488
3.32148	11.4005
3.31936	11.4786
3.31723	11.511
3.31511	11.471
3.31299	11.4581
3.31088	11.4695
3.30876	11.4657
3.30665	11.5845
3.30455	11.6211
3.30244	11.6128
3.30034	11.5421
3.29824	11.4047
3.29614	11.3531
3.29405	11.4314
3.29196	11.439
3.28987	11.3565
3.28778	11.4298
3.2857	11.4751
3.28362	11.4657
3.28154	11.4715
3.27946	11.4099
3.27739	11.4493
3.27532	11.5156
3.27325	11.4512
3.27119	11.3836
3.26913	11.4005
3.26707	11.3542
3.26501	11.3338
3.26295	11.39
3.2609	11.3208
3.25885	11.2872
3.2568	11.3587
3.25476	11.4064
3.25272	11.3896
3.25068	11.3049
3.24864	11.2495
3.24661	11.1956
3.24458	11.1964
3.24255	11.2936
3.24052	11.2419
3.2385	11.1385
3.23648	11.1373
3.23446	11.0092
3.23244	10.9979
3.23043	11.1299
3.22841	11.1369
3.2264	11.0127
3.2244	10.9661
3.22239	10.9744
3.22039	11.0785
3.21839	11.0763
3.2164	10.9434
3.2144	10.8659
3.21241	10.8576
3.21042	10.7737
3.20844	10.7565
3.20645	10.7594
3.20447	10.7938
3.20249	10.8415
3.20051	10.8482
3.19854	10.853
3.19657	10.8696
3.1946	10.789
3.19263	10.7511
3.19067	10.6487
3.1887	10.5581
3.18674	10.5524
3.18479	10.4416
3.18283	10.4381
3.18088	10.5341
3.17893	10.4867
3.17698	10.4737
3.17504	10.4758
3.17309	10.5001
3.17115	10.5631
3.16921	10.5146
3.16728	10.4994
3.16534	10.4938
3.16341	10.4807
3.16148	10.4224
3.15956	10.3689
3.15763	10.389
3.15571	10.3297
3.15379	10.3005
3.15187	10.2936
3.14996	10.1879
3.14805	10.0866
3.14614	10.1032
3.14423	10.1677
3.14232	10.1824
3.14042	10.247
3.13852	10.2325
3.13662	10.0762
3.13472	10.0667
3.13283	10.0775
3.13094	9.98553
3.12905	9.89157
3.12716	10.0372
3.12528	10.1416
3.12339	10.0658
3.12151	10.0078
3.11964	9.94895
3.11776	9.84033
3.11589	9.95877
3.11401	9.98059
3.11214	9.87304
3.11028	9.74722
3.10841	9.71131
3.10655	9.79408
3.10469	9.8665
3.10283	9.81712
3.10098	9.78048
3.09912	9.74453
3.09727	9.6512
3.09542	9.63903
3.09358	9.6918
3.09173	9.62257
3.08989	9.71373
3.08805	9.81094
3.08621	9.7656
3.08437	9.75347
3.08254	9.68198
3.08071	9.56479
3.07888	9.50323
3.07705	9.47829
3.07523	9.54346
3.0734	9.62487
3.07158	9.6441
3.06977	9.60131
3.06795	9.6335
3.06613	9.60494
3.06432	9.50402
3.06251	9.42169
3.0607	9.45723
3.0589	9.48908
3.0571	9.44751
3.05529	9.40642
3.05349	9.41204
3.0517	9.41524
3.0499	9.43448
3.04811	9.44951
3.04632	9.44281
3.04453	9.48725
3.04274	9.39494
3.04096	9.29778
3.03918	9.4457
3.0374	9.42461
3.03562	9.23791
3.03384	9.2094
3.03207	9.21514
3.03029	9.16361
3.02852	9.2032
3.02676	9.28054
3.02499	9.27062
3.02323	9.30081
3.02146	9.21602
3.0197	9.18581
3.01795	9.12369
3.01619	8.97141
3.01444	8.99102
3.01269	9.0847
3.01094	9.05286
3.00919	8.96271
3.00744	8.89739
3.0057	9.03746
3.00396	9.23697
3.00222	9.0906
3.00048	8.90816
2.99875	8.96678
2.99701	8.94958
2.99528	9.01989
2.99355	9.0699
2.99183	9.05608
2.9901	9.01845
2.98838	8.81659
2.98666	8.75244
2.98494	8.82149
2.98322	8.96104
2.9815	8.94004
2.97979	8.84593
2.97808	8.84591
2.97637	8.84707
2.97466	8.70523
2.97295	8.72378
2.97125	8.80892
2.96955	8.75132
2.96785	8.71898
2.96615	8.8181
2.96446	8.8009
2.96276	8.70074
2.96107	8.62997
2.95938	8.62261
2.95769	8.66348
2.95601	8.56493
2.95432	8.56939
2.95264	8.74102
2.95096	8.63964
2.94928	8.58391
2.9476	8.6874
2.94593	8.74044
2.94425	8.68581
2.94258	8.57571
2.94092	8.56344
2.93925	8.56147
2.93758	8.71785
2.93592	8.64857
2.93426	8.50099
2.9326	8.57561
2.93094	8.61436
2.92928	8.5934
2.92763	8.61791
2.92598	8.69043
2.92433	8.66887
2.92268	8.59381
2.92103	8.75031
2.91939	8.91716
2.91775	8.82004
2.9161	8.6136
2.91447	8.42317
2.91283	8.43427
2.91119	8.42848
2.90956	8.43363
2.90793	8.51204
2.9063	8.50356
2.90467	8.58897
2.90304	8.72489
2.90142	8.92937
2.89979	8.87403
2.89817	8.63745
2.89656	8.71455
2.89494	8.64013
2.89332	8.57456
2.89171	8.6764
2.8901	8.69707
2.88849	8.69197
2.88688	8.80098
2.88527	8.91164
2.88367	8.86524
2.88206	8.85515
2.88046	8.69146
2.87886	8.58559
2.87727	8.71728
2.87567	8.80538
2.87408	8.84365
2.87248	8.87244
2.87089	8.93053
2.8693	8.8439
2.86772	8.8457
2.86613	8.7967
2.86455	8.73714
2.86297	8.87497
2.86139	8.98595
2.85981	8.9462
2.85823	8.77812
2.85666	8.85488
2.85508	8.87001
2.85351	8.75646
2.85194	8.78447
2.85038	8.92767
2.84881	8.91768
2.84724	8.81023
2.84568	8.69847
2.84412	8.60194
2.84256	8.71956
2.841	8.96297
2.83945	9.02072
2.83789	8.87741
2.83634	8.97369
2.83479	8.90038
2.83324	8.6884
2.83169	8.7384
2.83015	8.85772
2.82861	8.84019
2.82706	8.70202
2.82552	8.53262
2.82398	8.52972
2.82245	8.7474
2.82091	8.8867
2.81938	8.77176
2.81784	8.63577
2.81631	8.73777
2.81479	8.83307
2.81326	8.8033
2.81173	8.73806
2.81021	8.74077
2.80869	8.68931
2.80716	8.75047
2.80565	8.85313
2.80413	8.84712
2.80261	8.71857
2.8011	8.67122
2.79959	8.66731
2.79808	8.64058
2.79657	8.69252
2.79506	8.76873
2.79355	8.70918
2.79205	8.58699
2.79055	8.49638
2.78904	8.5324
2.78754	8.67412
2.78605	8.84094
2.78455	8.73984
2.78306	8.48959
2.78156	8.45973
2.78007	8.53129
2.77858	8.49865
2.77709	8.44079
2.77561	8.3364
2.77412	8.31334
2.77264	8.50725
2.77116	8.52608
2.76968	8.30699
2.7682	8.27491
2.76672	8.42042
2.76524	8.51568
2.76377	8.48355
2.7623	8.45497
2.76083	8.47487
2.75936	8.567
2.75789	8.70211
2.75642	8.98046
2.75496	9.10844
2.7535	9.05911
2.75203	9.08672
2.75057	9.18399
2.74912	9.13336
2.74766	9.11416
2.7462	9.17414
2.74475	9.29907
2.7433	9.48395
2.74185	9.64468
2.7404	9.78087
2.73895	9.75113
2.7375	9.75368
2.73606	9.89658
2.73462	9.99185
2.73318	9.96918
2.73174	10.042
2.7303	10.1298
2.72886	10.2304
2.72742	10.3325
2.72599	10.5095
2.72456	10.742
2.72313	10.8089
2.7217	10.9782
2.72027	11.0796
2.71884	11.0208
2.71742	11.12
2.71599	11.3466
2.71457	11.5381
2.71315	11.5966
2.71173	11.706
2.71032	11.7218
2.7089	11.7439
2.70748	11.7924
2.70607	11.7859
2.70466	11.7477
2.70325	11.7089
2.70184	11.8918
2.70043	12.0832
2.69903	12.0861
2.69762	11.9834
2.69622	12.097
2.69482	12.4714
2.69342	12.4758
2.69202	12.2767
2.69062	12.3233
2.68923	12.316
2.68783	12.2889
2.68644	12.3508
2.68505	12.5393
2.68366	12.6154
2.68227	12.6502
2.68089	12.5882
2.6795	12.5483
2.67812	12.7137
2.67673	12.8898
2.67535	12.7651
2.67397	12.6104
2.6726	12.5984
2.67122	12.8252
2.66984	12.9983
2.66847	12.7833
2.6671	12.9198
2.66572	12.9781
2.66435	12.7762
2.66299	12.5994
2.66162	12.6245
2.66025	12.6367
2.65889	12.5701
2.65753	12.4813
2.65616	12.687
2.65481	12.7902
2.65345	12.809
2.65209	12.732
2.65073	12.5615
2.64938	12.5768
2.64803	12.6749
2.64667	12.7552
2.64532	12.8491
2.64397	12.7698
2.64263	12.6904
2.64128	12.5877
2.63994	12.4704
2.63859	12.3479
2.63725	12.4621
2.63591	12.6783
2.63457	12.7991
2.63323	12.7073
2.6319	12.6275
2.63056	12.6755
2.62923	12.7561
2.62789	12.7452
2.62656	12.7449
2.62523	12.6093
2.6239	12.5232
2.62258	12.5322
2.62125	12.7807
2.61993	12.8524
2.6186	12.8315
2.61728	12.758
2.61596	12.5339
2.61464	12.6244
2.61332	12.8046
2.61201	12.7125
2.61069	12.5837
2.60938	12.5863
2.60807	12.7122
2.60675	12.8768
2.60544	12.7587
2.60414	12.5838
2.60283	12.6859
2.60152	12.7152
2.60022	12.5331
2.59891	12.5356
2.59761	12.6822
2.59631	12.9213
2.59501	13.1793
2.59371	12.9668
2.59242	12.7032
2.59112	12.5452
2.58983	12.5945
2.58853	12.7309
2.58724	12.6868
2.58595	12.6692
2.58466	12.7952
2.58338	12.5986
2.58209	12.5014
2.5808	12.6307
2.57952	12.6595
2.57824	12.5939
2.57695	12.5604
2.57567	12.5556
2.5744	12.6542
2.57312	12.6669
2.57184	12.5026
2.57057	12.5173
2.56929	12.5855
2.56802	12.4824
2.56675	12.3834
2.56548	12.5384
2.56421	12.6985
2.56294	12.6513
2.56168	12.6538
2.56041	12.5266
2.55915	12.4274
2.55789	12.4355
2.55662	12.3786
2.55536	12.4082
2.5541	12.5172
2.55285	12.6497
2.55159	12.5716
2.55034	12.3393
2.54908	12.2961
2.54783	12.4039
2.54658	12.3472
2.54533	12.3145
2.54408	12.3818
2.54283	12.3915
2.54159	12.3333
2.54034	12.3449
2.5391	12.2992
2.53785	12.314
2.53661	12.3565
2.53537	12.2922
2.53413	12.2556
2.53289	12.3574
2.53166	12.5274
2.53042	12.5309
2.52919	12.5434
2.52795	12.5187
2.52672	12.4715
2.52549	12.318
2.52426	12.1885
2.52303	12.1916
2.52181	12.2825
2.52058	12.2007
2.51936	12.1601
2.51813	12.2712
2.51691	12.3543
2.51569	12.3651
2.51447	12.3383
2.51325	12.3173
2.51203	12.2785
2.51082	12.2763
2.5096	12.3108
2.50839	12.3107
2.50717	12.3619
2.50596	12.3999
2.50475	12.3266
2.50354	12.2588
2.50233	12.1762
2.50113	12.2063
2.49992	12.2527
2.49872	12.2594
2.49751	12.3353
2.49631	12.437
2.49511	12.2065
2.49391	12.1623
2.49271	12.2674
2.49151	12.203
2.49031	12.203
2.48912	12.2493
2.48792	12.2834
2.48673	12.3885
2.48554	12.2974
2.48435	12.3403
2.48316	12.331
2.48197	12.2178
2.48078	12.3416
2.4796	12.258
2.47841	12.1508
2.47723	12.1876
2.47604	12.1865
2.47486	12.2074
2.47368	12.318
2.4725	12.4214
2.47132	12.331
2.47014	12.1966
2.46897	12.27
2.46779	12.3851
2.46662	12.3709
2.46545	12.3332
2.46427	12.342
2.4631	12.2146
2.46193	12.0462
2.46077	12.0644
2.4596	12.3371
2.45843	12.5266
2.45727	12.2986
2.4561	12.0989
2.45494	12.1705
2.45378	12.1982
2.45262	12.2432
2.45146	12.246
2.4503	12.2479
2.44914	12.2798
2.44799	12.269
2.44683	12.2211
2.44568	12.2534
2.44452	12.2579
2.44337	12.3113
2.44222	12.3169
2.44107	12.2313
2.43992	12.219
2.43877	12.2265
2.43763	12.2222
2.43648	12.1955
2.43534	12.2077
2.43419	12.2593
2.43305	12.14
2.43191	12.1679
2.43077	12.2575
2.42963	12.4294
2.42849	12.4599
2.42736	12.3803
2.42622	12.2992
2.42509	12.3061
2.42395	12.2207
2.42282	12.3111
2.42169	12.2895
2.42056	12.3325
2.41943	12.4393
2.4183	12.4524
2.41717	12.303
2.41605	12.1205
2.41492	12.0725
2.4138	12.2537
2.41267	12.4042
2.41155	12.3161
2.41043	12.3311
2.40931	12.4238
2.40819	12.3835
2.40707	12.1586
2.40595	12.164
2.40484	12.2228
2.40372	12.2629
2.40261	12.4838
2.4015	12.3911
2.40039	12.2511
2.39928	12.2507
2.39817	12.2267
2.39706	12.2328
2.39595	12.2429
2.39484	12.3364
2.39374	12.1724
2.39263	12.0886
2.39153	12.1728
2.39043	12.281
2.38932	12.3429
2.38822	12.2825
2.38712	12.1891
2.38603	12.1117
2.38493	12.1943
2.38383	12.1766
2.38274	12.106
2.38164	12.1934
2.38055	12.1444
2.37946	12.099
2.37836	12.2563
2.37727	12.2601
2.37618	12.1359
2.3751	12.0895
2.37401	12.1936
2.37292	12.16
2.37184	12.192
2.37075	12.2749
2.36967	12.2612
2.36859	12.344
2.3675	12.1588
2.36642	12.0459
2.36534	12.1962
2.36427	12.0974
2.36319	11.8993
2.36211	12.0038
2.36104	12.3007
2.35996	12.3751
2.35889	12.3457
2.35781	12.3246
2.35674	12.2476
2.35567	12.1205
2.3546	12.0302
2.35353	12.034
2.35247	12.29
2.3514	12.2035
2.35033	12.0145
2.34927	12.019
2.3482	12.0645
2.34714	12.1278
2.34608	12.1098
2.34502	11.9588
2.34396	12.0306
2.3429	12.1321
2.34184	12.2731
2.34078	12.2814
2.33973	12.1659
2.33867	11.9366
2.33762	11.9279
2.33656	11.9413
2.33551	11.921
2.33446	12.0562
2.33341	12.2167
2.33236	11.9967
2.33131	11.6641
2.33026	11.7418
2.32922	12.0046
2.32817	12.2202
2.32712	12.3085
2.32608	12.1396
2.32504	11.9225
2.324	11.7962
2.32295	11.9435
2.32191	12.1867
2.32087	12.1948
2.31984	12.0939
2.3188	12.1103
2.31776	12.1941
2.31673	12.2177
2.31569	12.0477
2.31466	11.9416
2.31362	11.9238
2.31259	11.8783
2.31156	12.0056
2.31053	12.1663
2.3095	12.2254
2.30847	12.1711
2.30745	12.1336
2.30642	11.9504
2.3054	11.962
2.30437	11.9573
2.30335	11.9219
2.30232	11.967
2.3013	12.1359
2.30028	12.2652
2.29926	12.1355
2.29824	12.1396
2.29722	12.1523
2.29621	12.1498
2.29519	12.0663
2.29417	11.9558
2.29316	11.917
2.29215	11.8604
2.29113	11.9755
2.29012	11.9973
2.28911	11.9278
2.2881	11.9467
2.28709	11.9499
2.28608	12.198
2.28507	12.3041
2.28407	12.1158
2.28306	11.8577
2.28206	11.8989
2.28105	12.1253
2.28005	12.1607
2.27905	12.1719
2.27805	12.17
2.27705	12.1264
2.27605	12.087
2.27505	12.1544
2.27405	12.141
2.27305	11.9609
2.27206	11.7252
2.27106	11.8662
2.27007	12.1233
2.26907	12.061
2.26808	11.9526
2.26709	11.9694
2.2661	11.9988
2.26511	11.976
2.26412	11.9764
2.26313	12.0571
2.26214	11.9951
2.26116	11.9578
2.26017	12.0465
2.25919	12.0741
2.2582	11.9212
2.25722	12.0303
2.25624	12.056
2.25526	11.9602
2.25428	12.0678
2.2533	12.1075
2.25232	12.0381
2.25134	11.912
2.25036	11.8946
2.24939	12.0211
2.24841	12.1011
2.24744	12.0264
2.24646	11.9183
2.24549	12.0414
2.24452	12.1126
2.24355	11.9686
2.24257	11.9465
2.24161	11.9601
2.24064	12.0323
2.23967	12.1087
2.2387	12.038
2.23774	11.7875
2.23677	11.7817
2.23581	11.8867
2.23484	11.9328
2.23388	11.9868
2.23292	12.0366
2.23196	11.98
2.231	11.9612
2.23004	11.9452
2.22908	11.9289
2.22812	12.0168
2.22716	12.0373
2.22621	12.0771
2.22525	12.2176
2.2243	12.2192
2.22334	12.0363
2.22239	11.9572
2.22144	12.0143
2.22049	12.0728
2.21953	12.0363
2.21859	11.8878
2.21764	11.7683
2.21669	11.8034
2.21574	11.8032
2.21479	11.8592
2.21385	11.9589
2.2129	12.0051
2.21196	11.9583
2.21102	11.892
2.21007	11.7728
2.20913	11.5766
2.20819	11.7851
2.20725	11.8925
2.20631	11.86
2.20537	11.7681
2.20444	11.7202
2.2035	11.9872
2.20256	12.1784
2.20163	12.0195
2.20069	11.8458
2.19976	11.8734
2.19883	11.7697
2.19789	11.7101
2.19696	11.7645
2.19603	11.9083
2.1951	12.0855
2.19417	12.0364
2.19325	11.9084
2.19232	11.6362
2.19139	11.6766
2.19047	11.7599
2.18954	11.8214
2.18862	11.8962
2.18769	11.8696
2.18677	11.8352
2.18585	11.8033
2.18493	11.6859
2.18401	11.6274
2.18309	11.6575
2.18217	11.7462
2.18125	11.8833
2.18033	11.7217
2.17942	11.6762
2.1785	11.7934
2.17759	11.8186
2.17667	11.9042
2.17576	11.8951
2.17485	11.8257
2.17393	11.8934
2.17302	11.9582
2.17211	12.0963
2.1712	12.0195
2.17029	11.7476
2.16939	11.7137
2.16848	11.8395
2.16757	11.872
2.16667	11.8891
2.16576	11.8901
2.16486	11.8996
2.16395	12.0295
2.16305	12.1169
2.16215	12.0009
2.16125	11.7407
2.16035	11.6944
2.15945	11.9811
2.15855	11.9826
2.15765	11.8437
2.15675	11.8353
2.15586	11.7392
2.15496	11.7016
2.15406	11.8439
2.15317	11.938
2.15228	11.8676
2.15138	11.649
2.15049	11.578
2.1496	11.7715
2.14871	11.9422
2.14782	12.0783
2.14693	11.953
2.14604	11.7726
2.14515	11.7292
2.14427	11.5977
2.14338	11.7544
2.14249	11.9821
2.14161	11.8544
2.14072	11.9231
2.13984	12.0964
2.13896	11.9805
2.13808	11.9392
2.13719	11.86
2.13631	11.6214
2.13543	11.516
2.13455	11.6916
2.13368	11.9537
2.1328	12.0295
2.13192	11.8376
2.13105	11.7651
2.13017	12
2.1293	12.1156
2.12842	11.8029
2.12755	11.6297
2.12668	11.6408
2.1258	11.5703
2.12493	11.5885
2.12406	11.7139
2.12319	11.7939
2.12232	11.8072
2.12145	11.875
2.12059	11.8576
2.11972	11.7971
2.11885	11.7986
2.11799	11.7978
2.11712	11.7624
2.11626	11.9852
2.1154	12.0194
2.11453	11.7248
2.11367	11.6858
2.11281	11.6335
2.11195	11.4575
2.11109	11.5344
2.11023	11.6967
2.10937	11.8033
2.10851	11.7675
2.10766	11.505
2.1068	11.5912
2.10594	11.9079
2.10509	11.8974
2.10423	11.6578
2.10338	11.7222
2.10253	12.0578
2.10168	12.0635
2.10082	11.8761
2.09997	11.6923
2.09912	11.6705
2.09827	11.8181
2.09742	12.0447
2.09658	12.1252
2.09573	11.9968
2.09488	11.5046
2.09404	11.5599
2.09319	12.1125
2.09235	12.2368
2.0915	11.83
2.09066	11.7115
2.08982	11.7377
2.08897	11.8824
2.08813	11.7762
2.08729	11.5797
2.08645	11.3539
2.08561	11.3894
2.08477	11.7402
2.08394	11.9995
2.0831	11.9643
2.08226	11.5692
2.08143	11.5325
2.08059	11.7326
2.07976	11.8345
2.07892	11.4503
2.07809	11.3341
2.07726	12.044
2.07643	12.0363
2.07559	11.485
2.07476	12.1393
2.07393	12.3308
2.0731	11.5235
2.07228	11.4152
2.07145	11.6126
2.07062	11.7231
2.06979	11.4706
2.06897	11.4274
2.06814	11.444
2.06732	11.515
2.06649	11.6359
2.06567	11.9754
2.06485	11.997
2.06403	11.7098
2.0632	11.6696
2.06238	12.0147
2.06156	11.9215
2.06074	11.758
2.05993	11.4716
2.05911	11.4586
2.05829	11.6393
2.05747	11.6438
2.05666	11.4808
2.05584	11.8177
2.05503	12.0008
2.05421	11.6781
2.0534	11.3441
2.05259	11.3038
2.05177	11.5268
2.05096	11.5695
2.05015	11.7085
2.04934	11.8141
2.04853	11.8795
2.04772	11.8583
2.04691	11.7286
2.04611	11.7585
2.0453	11.7
2.04449	11.724
2.04369	11.6721
2.04288	11.8034
2.04208	11.6131
2.04127	11.6031
2.04047	11.6961
2.03967	11.6262
2.03886	11.6895
2.03806	11.9321
2.03726	11.847
2.03646	11.5608
2.03566	11.5817
2.03486	11.6054
2.03407	11.6834
2.03327	11.8333
2.03247	11.7895
2.03167	11.4915
2.03088	11.4654
2.03008	11.6482
2.02929	11.7902
2.0285	11.9445
2.0277	12.1225
2.02691	11.8466
2.02612	11.7083
2.02533	11.842
2.02453	11.6252
2.02374	11.6927
2.02295	11.8427
2.02217	11.6576
2.02138	11.5086
2.02059	11.4091
2.0198	11.284
2.01902	11.2393
2.01823	11.3904
2.01744	11.5064
2.01666	11.6166
2.01588	11.8288
2.01509	11.7783
2.01431	11.5923
2.01353	11.5757
2.01275	11.6913
2.01196	11.731
2.01118	11.7005
2.0104	11.7369
2.00963	11.7607
2.00885	11.6056
2.00807	11.4606
2.00729	11.6338
2.00651	11.471
2.00574	11.4368
2.00496	11.7207
2.00419	11.9072
2.00341	11.6837
2.00264	11.6328
2.00187	11.6341
2.00109	11.4402
2.00032	11.4412
