Name: Cryolite Na_3AlF_6
Type: Mineral
Class: Halides
Subclass: 
Particle Size: 45-125um
Sample No.: H-1A
Owner: JPL
Wavelength range: VNIR-SWIR
Origin: Denmark, Greenland, Ivigtut.
Collected by:  Ward's
Description: 





Measurement: Hemispherical reflectance
First Column: X
Second Column: Y
X Units: Wavelength (micrometers)
Y Units: Reflectance (percent)
First X Value: 2.500
Last X Value: 0.400
Number of X Values: 2101
Additional information: h01aa.txt

2.500  84.356358
2.499  84.229845
2.498  84.216208
2.497  84.187609
2.496  84.226694
2.495  84.396525
2.494  83.982013
2.493  84.128873
2.492  84.301467
2.491  83.938836
2.490  84.130092
2.489  83.963158
2.488  84.014916
2.487  83.855246
2.486  84.003433
2.485  83.995463
2.484  83.819070
2.483  83.924992
2.482  83.867493
2.481  83.970291
2.480  83.681025
2.479  83.835956
2.478  83.925668
2.477  83.890534
2.476  83.701449
2.475  83.575668
2.474  83.765345
2.473  83.687388
2.472  83.742716
2.471  83.625154
2.470  83.747194
2.469  83.565116
2.468  83.747921
2.467  83.797963
2.466  83.849155
2.465  83.813370
2.464  83.915293
2.463  83.755843
2.462  84.003242
2.461  84.005739
2.460  83.975162
2.459  84.088239
2.458  84.022389
2.457  84.126605
2.456  84.125310
2.455  84.184491
2.454  84.159714
2.453  84.137416
2.452  84.116829
2.451  84.169950
2.450  84.234664
2.449  84.245090
2.448  84.330528
2.447  84.332365
2.446  84.394551
2.445  84.428978
2.444  84.486096
2.443  84.414147
2.442  84.422796
2.441  84.507338
2.440  84.607352
2.439  84.503046
2.438  84.568186
2.437  84.694785
2.436  84.750426
2.435  84.863549
2.434  84.740723
2.433  84.707380
2.432  84.733043
2.431  84.865698
2.430  84.885811
2.429  84.863154
2.428  84.878491
2.427  84.874189
2.426  84.874400
2.425  84.819021
2.424  84.782477
2.423  84.854799
2.422  84.865866
2.421  84.780868
2.420  84.766428
2.419  84.892096
2.418  84.981496
2.417  84.925229
2.416  84.869467
2.415  84.906783
2.414  84.791349
2.413  84.859201
2.412  84.845226
2.411  84.832586
2.410  84.875893
2.409  84.867629
2.408  84.906497
2.407  84.928224
2.406  84.999182
2.405  84.959097
2.404  84.897711
2.403  84.945894
2.402  84.990599
2.401  84.940648
2.400  84.944466
2.399  84.986637
2.398  85.018129
2.397  85.092746
2.396  85.149434
2.395  85.130865
2.394  85.151384
2.393  85.312279
2.392  85.324679
2.391  85.247319
2.390  85.246644
2.389  85.329006
2.388  85.362541
2.387  85.374060
2.386  85.388504
2.385  85.485548
2.384  85.530164
2.383  85.557980
2.382  85.602306
2.381  85.655345
2.380  85.597203
2.379  85.641892
2.378  85.702839
2.377  85.743950
2.376  85.819009
2.375  85.836594
2.374  85.865308
2.373  85.851380
2.372  85.842863
2.371  85.933842
2.370  85.986380
2.369  86.043149
2.368  86.090382
2.367  86.118479
2.366  86.160362
2.365  86.142253
2.364  86.178979
2.363  86.298411
2.362  86.307236
2.361  86.283970
2.360  86.349195
2.359  86.393401
2.358  86.372142
2.357  86.415109
2.356  86.501354
2.355  86.549038
2.354  86.555231
2.353  86.537145
2.352  86.573849
2.351  86.576796
2.350  86.628001
2.349  86.687151
2.348  86.730648
2.347  86.779119
2.346  86.770044
2.345  86.819370
2.344  86.894868
2.343  86.943375
2.342  86.972198
2.341  87.016091
2.340  86.978122
2.339  87.003657
2.338  87.039992
2.337  87.130707
2.336  87.295162
2.335  87.248050
2.334  87.207905
2.333  87.242515
2.332  87.232443
2.331  87.359509
2.330  87.479859
2.329  87.486278
2.328  87.501937
2.327  87.544001
2.326  87.545865
2.325  87.571517
2.324  87.612816
2.323  87.654372
2.322  87.637371
2.321  87.635492
2.320  87.742695
2.319  87.750917
2.318  87.758645
2.317  87.733025
2.316  87.801631
2.315  87.804977
2.314  87.779264
2.313  87.796086
2.312  87.816857
2.311  87.843267
2.310  87.878585
2.309  87.863563
2.308  87.883250
2.307  87.900108
2.306  87.914599
2.305  87.936685
2.304  87.938052
2.303  87.935684
2.302  87.930567
2.301  87.981855
2.300  88.029406
2.299  87.979583
2.298  87.983628
2.297  88.011587
2.296  88.034459
2.295  88.085249
2.294  88.066781
2.293  88.042623
2.292  88.022934
2.291  88.006338
2.290  88.034034
2.289  88.094985
2.288  88.074846
2.287  88.047780
2.286  88.058414
2.285  88.148511
2.284  88.196699
2.283  88.174626
2.282  88.100368
2.281  88.116058
2.280  88.171781
2.279  88.122430
2.278  88.120846
2.277  88.163816
2.276  88.175704
2.275  88.152220
2.274  88.219248
2.273  88.123318
2.272  88.177566
2.271  88.217899
2.270  88.240856
2.269  88.166029
2.268  88.180099
2.267  88.223549
2.266  88.233649
2.265  88.212807
2.264  88.226450
2.263  88.204430
2.262  88.203678
2.261  88.221633
2.260  88.274369
2.259  88.196075
2.258  88.161462
2.257  88.223301
2.256  88.136919
2.255  88.196595
2.254  88.166161
2.253  88.242568
2.252  88.124806
2.251  88.038771
2.250  88.167500
2.249  88.174665
2.248  88.113184
2.247  88.057945
2.246  87.998449
2.245  88.057010
2.244  88.036833
2.243  87.996001
2.242  88.083382
2.241  87.998705
2.240  88.009616
2.239  88.031232
2.238  87.958414
2.237  88.030971
2.236  87.952168
2.235  87.954405
2.234  87.952711
2.233  88.036700
2.232  87.951796
2.231  88.061750
2.230  88.028327
2.229  87.988601
2.228  88.031712
2.227  88.108672
2.226  88.140714
2.225  88.073551
2.224  88.112206
2.223  88.134192
2.222  88.157259
2.221  88.205230
2.220  88.158319
2.219  88.238015
2.218  88.291288
2.217  88.279048
2.216  88.376051
2.215  88.270216
2.214  88.377796
2.213  88.381364
2.212  88.434615
2.211  88.405109
2.210  88.378226
2.209  88.444426
2.208  88.506896
2.207  88.563046
2.206  88.563243
2.205  88.528872
2.204  88.675252
2.203  88.582876
2.202  88.649379
2.201  88.638698
2.200  88.715127
2.199  88.683559
2.198  88.760476
2.197  88.742756
2.196  88.740464
2.195  88.760498
2.194  88.705656
2.193  88.701777
2.192  88.853214
2.191  88.767515
2.190  88.767939
2.189  88.874257
2.188  88.803280
2.187  88.841201
2.186  88.918323
2.185  88.887543
2.184  88.895351
2.183  88.902138
2.182  88.865214
2.181  88.895276
2.180  89.012806
2.179  88.984110
2.178  88.963196
2.177  89.052279
2.176  88.949070
2.175  89.004731
2.174  88.954803
2.173  89.068759
2.172  89.048791
2.171  89.120569
2.170  89.208277
2.169  89.125201
2.168  89.196019
2.167  89.232057
2.166  89.298747
2.165  89.385420
2.164  89.437246
2.163  89.412333
2.162  89.478863
2.161  89.551326
2.160  89.634904
2.159  89.571348
2.158  89.644500
2.157  89.613012
2.156  89.681988
2.155  89.721658
2.154  89.783284
2.153  89.770010
2.152  89.749213
2.151  89.797412
2.150  89.801048
2.149  89.828604
2.148  89.825410
2.147  89.859533
2.146  89.922326
2.145  89.886610
2.144  89.922374
2.143  89.896883
2.142  89.913447
2.141  89.899075
2.140  89.843071
2.139  89.872542
2.138  89.848658
2.137  89.886422
2.136  89.868540
2.135  89.794839
2.134  89.776811
2.133  89.776638
2.132  89.799904
2.131  89.736563
2.130  89.702051
2.129  89.693033
2.128  89.615087
2.127  89.585157
2.126  89.606103
2.125  89.546608
2.124  89.463856
2.123  89.414076
2.122  89.393787
2.121  89.321822
2.120  89.274056
2.119  89.242693
2.118  89.236560
2.117  89.177719
2.116  89.132860
2.115  89.051834
2.114  89.040593
2.113  88.919090
2.112  88.877065
2.111  88.866950
2.110  88.832895
2.109  88.793339
2.108  88.721156
2.107  88.682748
2.106  88.655560
2.105  88.583385
2.104  88.498615
2.103  88.496879
2.102  88.522772
2.101  88.437357
2.100  88.314087
2.099  88.350244
2.098  88.415561
2.097  88.423408
2.096  88.409372
2.095  88.436905
2.094  88.389591
2.093  88.407656
2.092  88.496189
2.091  88.479163
2.090  88.435262
2.089  88.470319
2.088  88.500103
2.087  88.500776
2.086  88.536601
2.085  88.528589
2.084  88.550776
2.083  88.538146
2.082  88.509609
2.081  88.546273
2.080  88.508942
2.079  88.532537
2.078  88.611622
2.077  88.578054
2.076  88.577492
2.075  88.611963
2.074  88.564032
2.073  88.586361
2.072  88.648994
2.071  88.654734
2.070  88.639630
2.069  88.676964
2.068  88.689977
2.067  88.646875
2.066  88.719863
2.065  88.755801
2.064  88.695501
2.063  88.676869
2.062  88.692845
2.061  88.742778
2.060  88.767450
2.059  88.784824
2.058  88.801097
2.057  88.842088
2.056  88.848873
2.055  88.865907
2.054  88.832931
2.053  88.866941
2.052  88.876162
2.051  88.874706
2.050  88.825044
2.049  88.831934
2.048  88.894587
2.047  88.931090
2.046  88.973508
2.045  88.957399
2.044  88.945368
2.043  88.919838
2.042  88.933816
2.041  89.001068
2.040  88.971362
2.039  88.920285
2.038  88.963300
2.037  88.977661
2.036  88.955503
2.035  88.984460
2.034  88.995684
2.033  89.022953
2.032  89.060742
2.031  88.975594
2.030  88.968195
2.029  89.007791
2.028  89.041099
2.027  88.954892
2.026  88.955209
2.025  88.995674
2.024  88.988883
2.023  89.045327
2.022  89.010253
2.021  89.040855
2.020  88.983888
2.019  88.963803
2.018  88.957082
2.017  89.016079
2.016  88.969987
2.015  88.893363
2.014  88.935336
2.013  88.900952
2.012  88.894438
2.011  88.996704
2.010  88.960281
2.009  88.954641
2.008  88.909967
2.007  88.963033
2.006  88.943853
2.005  88.974474
2.004  88.953284
2.003  88.894331
2.002  88.859021
2.001  88.907954
2.000  88.961874
1.999  88.908802
1.998  88.842073
1.997  88.886414
1.996  88.809112
1.995  88.770966
1.994  88.792400
1.993  88.754752
1.992  88.777254
1.991  88.692544
1.990  88.682891
1.989  88.670086
1.988  88.671065
1.987  88.626362
1.986  88.597680
1.985  88.577448
1.984  88.543273
1.983  88.462145
1.982  88.460009
1.981  88.486802
1.980  88.431308
1.979  88.407644
1.978  88.385727
1.977  88.359183
1.976  88.346781
1.975  88.334473
1.974  88.283823
1.973  88.298287
1.972  88.216479
1.971  88.146568
1.970  88.106352
1.969  88.075967
1.968  87.996676
1.967  87.977789
1.966  87.916861
1.965  87.855302
1.964  87.798178
1.963  87.716361
1.962  87.808472
1.961  87.682099
1.960  87.562355
1.959  87.503681
1.958  87.366228
1.957  87.306723
1.956  87.277745
1.955  87.252779
1.954  87.123208
1.953  87.026982
1.952  87.033717
1.951  87.051230
1.950  87.026535
1.949  87.039152
1.948  87.038566
1.947  86.976888
1.946  86.941789
1.945  86.984333
1.944  86.927687
1.943  86.934335
1.942  86.907822
1.941  86.839652
1.940  86.617749
1.939  86.667018
1.938  86.521826
1.937  86.426121
1.936  86.340637
1.935  86.264211
1.934  86.224791
1.933  86.048322
1.932  85.905272
1.931  85.984847
1.930  86.003780
1.929  86.024117
1.928  86.002396
1.927  86.112018
1.926  86.210524
1.925  86.309247
1.924  86.334629
1.923  86.510878
1.922  86.614098
1.921  86.784255
1.920  86.846285
1.919  86.969426
1.918  87.065329
1.917  87.123956
1.916  87.285384
1.915  87.312420
1.914  87.341506
1.913  87.477858
1.912  87.541945
1.911  87.629738
1.910  87.704033
1.909  87.769675
1.908  87.854810
1.907  88.025135
1.906  88.054706
1.905  88.059613
1.904  88.222948
1.903  88.211387
1.902  88.281860
1.901  88.364916
1.900  88.480916
1.899  88.579043
1.898  88.719157
1.897  88.765854
1.896  88.902903
1.895  88.905293
1.894  89.067061
1.893  89.144242
1.892  89.123622
1.891  89.336512
1.890  89.242304
1.889  89.406732
1.888  89.417689
1.887  89.518195
1.886  89.545249
1.885  89.596722
1.884  89.609027
1.883  89.625649
1.882  89.640463
1.881  89.699034
1.880  89.666246
1.879  89.790129
1.878  89.843475
1.877  89.901260
1.876  89.897035
1.875  89.861648
1.874  89.838755
1.873  89.847893
1.872  89.902975
1.871  89.922312
1.870  89.925556
1.869  89.978857
1.868  89.945087
1.867  89.972059
1.866  90.014696
1.865  90.077678
1.864  90.130364
1.863  90.101858
1.862  90.160970
1.861  90.183532
1.860  90.155558
1.859  90.163024
1.858  90.206510
1.857  90.213191
1.856  90.165907
1.855  90.153822
1.854  90.127881
1.853  90.188282
1.852  90.236895
1.851  90.219809
1.850  90.186753
1.849  90.194350
1.848  90.247851
1.847  90.264754
1.846  90.253633
1.845  90.246689
1.844  90.263620
1.843  90.283605
1.842  90.325648
1.841  90.351076
1.840  90.365642
1.839  90.329347
1.838  90.273960
1.837  90.233373
1.836  90.269766
1.835  90.256909
1.834  90.199459
1.833  90.292247
1.832  90.313109
1.831  90.291466
1.830  90.268127
1.829  90.284852
1.828  90.318315
1.827  90.344030
1.826  90.370546
1.825  90.343730
1.824  90.357481
1.823  90.425395
1.822  90.398024
1.821  90.337772
1.820  90.320191
1.819  90.317271
1.818  90.352602
1.817  90.374587
1.816  90.390384
1.815  90.420884
1.814  90.460341
1.813  90.427587
1.812  90.410965
1.811  90.405654
1.810  90.421914
1.809  90.404602
1.808  90.384611
1.807  90.449174
1.806  90.471236
1.805  90.400963
1.804  90.421731
1.803  90.438442
1.802  90.451702
1.801  90.461202
1.800  90.452949
1.799  90.505651
1.798  90.513623
1.797  90.441161
1.796  90.452996
1.795  90.452001
1.794  90.370202
1.793  90.377687
1.792  90.404359
1.791  90.393403
1.790  90.465056
1.789  90.506541
1.788  90.463417
1.787  90.421592
1.786  90.425214
1.785  90.433390
1.784  90.395199
1.783  90.370223
1.782  90.410153
1.781  90.424581
1.780  90.424760
1.779  90.402336
1.778  90.357764
1.777  90.343800
1.776  90.401107
1.775  90.431034
1.774  90.415657
1.773  90.392427
1.772  90.391858
1.771  90.339978
1.770  90.325770
1.769  90.315761
1.768  90.325771
1.767  90.341975
1.766  90.384960
1.765  90.377361
1.764  90.376744
1.763  90.369720
1.762  90.335944
1.761  90.404798
1.760  90.426394
1.759  90.388226
1.758  90.377158
1.757  90.347962
1.756  90.324605
1.755  90.391655
1.754  90.415522
1.753  90.358492
1.752  90.411510
1.751  90.429821
1.750  90.379970
1.749  90.437422
1.748  90.471086
1.747  90.427098
1.746  90.415096
1.745  90.427454
1.744  90.457556
1.743  90.488484
1.742  90.461519
1.741  90.443152
1.740  90.444681
1.739  90.493753
1.738  90.551618
1.737  90.558690
1.736  90.511719
1.735  90.506412
1.734  90.572564
1.733  90.533699
1.732  90.543459
1.731  90.534305
1.730  90.512075
1.729  90.563095
1.728  90.595305
1.727  90.568875
1.726  90.528910
1.725  90.537626
1.724  90.533478
1.723  90.573720
1.722  90.571324
1.721  90.588241
1.720  90.557732
1.719  90.506398
1.718  90.586753
1.717  90.543758
1.716  90.550717
1.715  90.568183
1.714  90.556554
1.713  90.572459
1.712  90.590554
1.711  90.536565
1.710  90.499621
1.709  90.523792
1.708  90.529206
1.707  90.658568
1.706  90.571317
1.705  90.567339
1.704  90.502771
1.703  90.516553
1.702  90.570412
1.701  90.541467
1.700  90.544171
1.699  90.553312
1.698  90.540276
1.697  90.564595
1.696  90.631727
1.695  90.573583
1.694  90.530301
1.693  90.553057
1.692  90.509700
1.691  90.566792
1.690  90.563764
1.689  90.518865
1.688  90.544014
1.687  90.547873
1.686  90.528752
1.685  90.485017
1.684  90.606658
1.683  90.546933
1.682  90.517145
1.681  90.558051
1.680  90.608211
1.679  90.618922
1.678  90.605336
1.677  90.528678
1.676  90.526605
1.675  90.604185
1.674  90.491691
1.673  90.515710
1.672  90.572820
1.671  90.507641
1.670  90.564127
1.669  90.627958
1.668  90.572255
1.667  90.582434
1.666  90.608028
1.665  90.523759
1.664  90.557676
1.663  90.541327
1.662  90.569706
1.661  90.598629
1.660  90.572649
1.659  90.533777
1.658  90.574198
1.657  90.543786
1.656  90.589943
1.655  90.584502
1.654  90.479829
1.653  90.571275
1.652  90.508865
1.651  90.502467
1.650  90.573568
1.649  90.537743
1.648  90.584991
1.647  90.652058
1.646  90.564297
1.645  90.573266
1.644  90.606023
1.643  90.581250
1.642  90.600692
1.641  90.487396
1.640  90.555650
1.639  90.529675
1.638  90.603204
1.637  90.548891
1.636  90.590087
1.635  90.610083
1.634  90.513677
1.633  90.578163
1.632  90.631887
1.631  90.567286
1.630  90.622308
1.629  90.622123
1.628  90.528132
1.627  90.550955
1.626  90.561705
1.625  90.592278
1.624  90.545900
1.623  90.532941
1.622  90.595058
1.621  90.595674
1.620  90.563903
1.619  90.562141
1.618  90.572412
1.617  90.586264
1.616  90.635965
1.615  90.575402
1.614  90.604185
1.613  90.592023
1.612  90.542959
1.611  90.542008
1.610  90.513169
1.609  90.558504
1.608  90.610794
1.607  90.582749
1.606  90.531241
1.605  90.603703
1.604  90.652528
1.603  90.540407
1.602  90.590305
1.601  90.608089
1.600  90.578123
1.599  90.488996
1.598  90.621974
1.597  90.556999
1.596  90.529768
1.595  90.540512
1.594  90.585597
1.593  90.581200
1.592  90.549489
1.591  90.553924
1.590  90.568136
1.589  90.599537
1.588  90.538044
1.587  90.608958
1.586  90.599547
1.585  90.469278
1.584  90.551599
1.583  90.586451
1.582  90.541474
1.581  90.545206
1.580  90.560806
1.579  90.579827
1.578  90.569171
1.577  90.483224
1.576  90.527970
1.575  90.491904
1.574  90.508624
1.573  90.450864
1.572  90.520002
1.571  90.494773
1.570  90.510433
1.569  90.458845
1.568  90.457890
1.567  90.481674
1.566  90.471400
1.565  90.495834
1.564  90.472260
1.563  90.446187
1.562  90.445920
1.561  90.465525
1.560  90.538661
1.559  90.548163
1.558  90.471429
1.557  90.426121
1.556  90.494712
1.555  90.498804
1.554  90.471656
1.553  90.432264
1.552  90.401206
1.551  90.386286
1.550  90.340730
1.549  90.351723
1.548  90.404103
1.547  90.367693
1.546  90.387130
1.545  90.448889
1.544  90.435180
1.543  90.458278
1.542  90.395179
1.541  90.352399
1.540  90.338600
1.539  90.391988
1.538  90.386903
1.537  90.318128
1.536  90.395515
1.535  90.391063
1.534  90.357378
1.533  90.352526
1.532  90.376749
1.531  90.342968
1.530  90.304139
1.529  90.289914
1.528  90.317563
1.527  90.281339
1.526  90.306083
1.525  90.281469
1.524  90.252229
1.523  90.242541
1.522  90.253090
1.521  90.244583
1.520  90.194954
1.519  90.207707
1.518  90.212721
1.517  90.213030
1.516  90.218618
1.515  90.197121
1.514  90.178960
1.513  90.204191
1.512  90.217406
1.511  90.173685
1.510  90.135627
1.509  90.072970
1.508  90.065303
1.507  90.076626
1.506  90.134231
1.505  90.159166
1.504  90.086506
1.503  90.124644
1.502  90.162513
1.501  90.079988
1.500  90.059530
1.499  90.054628
1.498  90.024775
1.497  90.042332
1.496  90.093726
1.495  90.086967
1.494  90.118268
1.493  90.135185
1.492  90.088953
1.491  90.010303
1.490  90.038858
1.489  90.069984
1.488  90.020405
1.487  90.013047
1.486  90.055795
1.485  90.049512
1.484  89.979951
1.483  90.028295
1.482  90.020486
1.481  90.019567
1.480  89.996008
1.479  89.936482
1.478  89.895832
1.477  89.894822
1.476  89.911703
1.475  89.910779
1.474  89.893683
1.473  89.808061
1.472  89.818215
1.471  89.851865
1.470  89.839407
1.469  89.803648
1.468  89.768151
1.467  89.757839
1.466  89.770424
1.465  89.760050
1.464  89.764860
1.463  89.706796
1.462  89.649991
1.461  89.682462
1.460  89.619936
1.459  89.551262
1.458  89.553055
1.457  89.631478
1.456  89.620964
1.455  89.599896
1.454  89.611975
1.453  89.579762
1.452  89.691431
1.451  89.681773
1.450  89.689310
1.449  89.726087
1.448  89.718490
1.447  89.743361
1.446  89.722114
1.445  89.747853
1.444  89.804941
1.443  89.815739
1.442  89.836660
1.441  89.838327
1.440  89.785174
1.439  89.809832
1.438  89.774261
1.437  89.748719
1.436  89.758727
1.435  89.722611
1.434  89.706409
1.433  89.726779
1.432  89.710217
1.431  89.762484
1.430  89.766942
1.429  89.839445
1.428  89.740190
1.427  89.808501
1.426  89.825176
1.425  89.830056
1.424  89.863472
1.423  89.896097
1.422  89.952719
1.421  89.904390
1.420  89.861044
1.419  89.876162
1.418  89.982495
1.417  89.975275
1.416  89.984969
1.415  90.025727
1.414  89.927921
1.413  90.052512
1.412  90.055692
1.411  90.066107
1.410  90.058806
1.409  90.118121
1.408  90.114637
1.407  90.083576
1.406  90.097443
1.405  90.132826
1.404  90.162146
1.403  90.171138
1.402  90.201083
1.401  90.171331
1.400  90.206992
1.399  90.118398
1.398  90.252500
1.397  90.299184
1.396  90.323123
1.395  90.360812
1.394  90.358017
1.393  90.340141
1.392  90.415457
1.391  90.442471
1.390  90.437523
1.389  90.352751
1.388  90.407771
1.387  90.437494
1.386  90.386697
1.385  90.471469
1.384  90.438612
1.383  90.451312
1.382  90.427342
1.381  90.410026
1.380  90.492085
1.379  90.463303
1.378  90.432656
1.377  90.542926
1.376  90.487176
1.375  90.454861
1.374  90.481364
1.373  90.425475
1.372  90.456264
1.371  90.489369
1.370  90.480537
1.369  90.486293
1.368  90.552888
1.367  90.540596
1.366  90.528436
1.365  90.557132
1.364  90.558899
1.363  90.453311
1.362  90.455598
1.361  90.427740
1.360  90.490132
1.359  90.379168
1.358  90.452861
1.357  90.401749
1.356  90.477101
1.355  90.420926
1.354  90.465795
1.353  90.458472
1.352  90.499342
1.351  90.447612
1.350  90.440301
1.349  90.443077
1.348  90.388091
1.347  90.493692
1.346  90.414441
1.345  90.461249
1.344  90.333790
1.343  90.391924
1.342  90.465117
1.341  90.444851
1.340  90.451554
1.339  90.470741
1.338  90.422642
1.337  90.484219
1.336  90.471530
1.335  90.417099
1.334  90.543672
1.333  90.515882
1.332  90.478831
1.331  90.492281
1.330  90.474176
1.329  90.412678
1.328  90.415777
1.327  90.480466
1.326  90.475398
1.325  90.390188
1.324  90.442767
1.323  90.466811
1.322  90.409408
1.321  90.418579
1.320  90.479506
1.319  90.479883
1.318  90.373584
1.317  90.351002
1.316  90.492053
1.315  90.474951
1.314  90.424926
1.313  90.477326
1.312  90.452082
1.311  90.411333
1.310  90.470063
1.309  90.466541
1.308  90.430613
1.307  90.436286
1.306  90.427785
1.305  90.435760
1.304  90.472994
1.303  90.471660
1.302  90.450319
1.301  90.457563
1.300  90.450633
1.299  90.479474
1.298  90.437696
1.297  90.433993
1.296  90.485571
1.295  90.400373
1.294  90.431114
1.293  90.403246
1.292  90.415009
1.291  90.444864
1.290  90.432403
1.289  90.413466
1.288  90.446456
1.287  90.429004
1.286  90.446052
1.285  90.495785
1.284  90.482433
1.283  90.442851
1.282  90.412580
1.281  90.453025
1.280  90.383837
1.279  90.420570
1.278  90.427513
1.277  90.402622
1.276  90.394290
1.275  90.394734
1.274  90.414616
1.273  90.441920
1.272  90.472528
1.271  90.415667
1.270  90.380901
1.269  90.403040
1.268  90.403758
1.267  90.411997
1.266  90.429380
1.265  90.434322
1.264  90.421059
1.263  90.460752
1.262  90.402644
1.261  90.407445
1.260  90.428631
1.259  90.409826
1.258  90.394457
1.257  90.408507
1.256  90.425335
1.255  90.471218
1.254  90.416995
1.253  90.392055
1.252  90.396815
1.251  90.381748
1.250  90.376809
1.249  90.383811
1.248  90.420376
1.247  90.418010
1.246  90.363399
1.245  90.396899
1.244  90.380963
1.243  90.330351
1.242  90.348417
1.241  90.419465
1.240  90.386154
1.239  90.359017
1.238  90.430970
1.237  90.392078
1.236  90.374510
1.235  90.393774
1.234  90.337678
1.233  90.314176
1.232  90.312277
1.231  90.329277
1.230  90.373595
1.229  90.401088
1.228  90.391701
1.227  90.315528
1.226  90.279341
1.225  90.304029
1.224  90.311680
1.223  90.318023
1.222  90.360205
1.221  90.376009
1.220  90.331591
1.219  90.349813
1.218  90.364716
1.217  90.315195
1.216  90.255276
1.215  90.288214
1.214  90.342293
1.213  90.361009
1.212  90.410625
1.211  90.376205
1.210  90.355929
1.209  90.327060
1.208  90.283758
1.207  90.320919
1.206  90.327797
1.205  90.283292
1.204  90.297220
1.203  90.325831
1.202  90.334952
1.201  90.331695
1.200  90.291716
1.199  90.224425
1.198  90.231766
1.197  90.279213
1.196  90.306290
1.195  90.327134
1.194  90.357901
1.193  90.322390
1.192  90.318670
1.191  90.337471
1.190  90.262656
1.189  90.232172
1.188  90.230353
1.187  90.254575
1.186  90.349994
1.185  90.400351
1.184  90.365252
1.183  90.329250
1.182  90.292992
1.181  90.335324
1.180  90.361303
1.179  90.349319
1.178  90.331970
1.177  90.324973
1.176  90.300392
1.175  90.279601
1.174  90.333812
1.173  90.305603
1.172  90.323910
1.171  90.329627
1.170  90.314810
1.169  90.315849
1.168  90.282383
1.167  90.299115
1.166  90.282681
1.165  90.360581
1.164  90.388217
1.163  90.389778
1.162  90.359316
1.161  90.309268
1.160  90.286411
1.159  90.326702
1.158  90.294632
1.157  90.251164
1.156  90.284346
1.155  90.386961
1.154  90.389319
1.153  90.327325
1.152  90.317992
1.151  90.315272
1.150  90.399183
1.149  90.366428
1.148  90.275687
1.147  90.321381
1.146  90.364282
1.145  90.338789
1.144  90.336904
1.143  90.340789
1.142  90.399131
1.141  90.366358
1.140  90.392979
1.139  90.360743
1.138  90.432349
1.137  90.355556
1.136  90.296999
1.135  90.313862
1.134  90.308821
1.133  90.392273
1.132  90.420443
1.131  90.452240
1.130  90.403494
1.129  90.365387
1.128  90.374412
1.127  90.272923
1.126  90.351034
1.125  90.375561
1.124  90.340056
1.123  90.363250
1.122  90.347817
1.121  90.290066
1.120  90.340337
1.119  90.329427
1.118  90.364109
1.117  90.369155
1.116  90.353642
1.115  90.343840
1.114  90.398827
1.113  90.309440
1.112  90.334222
1.111  90.384091
1.110  90.305550
1.109  90.345150
1.108  90.368209
1.107  90.341234
1.106  90.361889
1.105  90.324569
1.104  90.456888
1.103  90.331682
1.102  90.349583
1.101  90.313847
1.100  90.310526
1.099  90.385104
1.098  90.282001
1.097  90.369782
1.096  90.414962
1.095  90.304392
1.094  90.377851
1.093  90.276795
1.092  90.275953
1.091  90.445085
1.090  90.345519
1.089  90.318161
1.088  90.373043
1.087  90.330279
1.086  90.395307
1.085  90.252956
1.084  90.409103
1.083  90.334954
1.082  90.371175
1.081  90.395454
1.080  90.348053
1.079  90.276295
1.078  90.326866
1.077  90.286869
1.076  90.375883
1.075  90.336112
1.074  90.377978
1.073  90.337784
1.072  90.335806
1.071  90.384541
1.070  90.360094
1.069  90.383211
1.068  90.269888
1.067  90.339440
1.066  90.379997
1.065  90.277359
1.064  90.316116
1.063  90.310828
1.062  90.360326
1.061  90.316616
1.060  90.335748
1.059  90.255299
1.058  90.329259
1.057  90.220590
1.056  90.400159
1.055  90.311683
1.054  90.301979
1.053  90.258167
1.052  90.302164
1.051  90.361598
1.050  90.194529
1.049  90.351107
1.048  90.273892
1.047  90.315451
1.046  90.331214
1.045  90.330286
1.044  90.339107
1.043  90.366581
1.042  90.357648
1.041  90.403723
1.040  90.396515
1.039  90.408244
1.038  90.336074
1.037  90.291357
1.036  90.330040
1.035  90.318523
1.034  90.351752
1.033  90.318420
1.032  90.303166
1.031  90.317649
1.030  90.346222
1.029  90.207552
1.028  90.357376
1.027  90.374478
1.026  90.300094
1.025  90.282086
1.024  90.323869
1.023  90.308081
1.022  90.318988
1.021  90.231397
1.020  90.254584
1.019  90.348674
1.018  90.276425
1.017  90.286014
1.016  90.354682
1.015  90.345464
1.014  90.286118
1.013  90.230913
1.012  90.216910
1.011  90.287544
1.010  90.343730
1.009  90.282322
1.008  90.339962
1.007  90.379117
1.006  90.390922
1.005  90.277030
1.004  90.269699
1.003  90.359281
1.002  90.288725
1.001  90.335663
1.000  90.284517
0.999  90.258766
0.998  90.262775
0.997  90.217605
0.996  90.262036
0.995  90.268044
0.994  90.293940
0.993  90.299929
0.992  90.249538
0.991  90.255346
0.990  90.273510
0.989  90.331328
0.988  90.289272
0.987  90.250168
0.986  90.267227
0.985  90.230069
0.984  90.284629
0.983  90.233918
0.982  90.240267
0.981  90.272595
0.980  90.279604
0.979  90.217485
0.978  90.234360
0.977  90.183486
0.976  90.243527
0.975  90.226278
0.974  90.219156
0.973  90.226486
0.972  90.277060
0.971  90.195577
0.970  90.213548
0.969  90.280894
0.968  90.234624
0.967  90.227149
0.966  90.226816
0.965  90.230597
0.964  90.264344
0.963  90.167521
0.962  90.204698
0.961  90.279059
0.960  90.250409
0.959  90.240394
0.958  90.218095
0.957  90.206502
0.956  90.248884
0.955  90.238694
0.954  90.248127
0.953  90.216765
0.952  90.221584
0.951  90.209666
0.950  90.191215
0.949  90.188291
0.948  90.200514
0.947  90.192768
0.946  90.176769
0.945  90.169121
0.944  90.160799
0.943  90.157712
0.942  90.198649
0.941  90.185647
0.940  90.166279
0.939  90.195638
0.938  90.184800
0.937  90.183473
0.936  90.168242
0.935  90.121531
0.934  90.169625
0.933  90.144554
0.932  90.088060
0.931  90.108362
0.930  90.151698
0.929  90.168550
0.928  90.171829
0.927  90.182529
0.926  90.170367
0.925  90.157003
0.924  90.104638
0.923  90.127223
0.922  90.161151
0.921  90.163405
0.920  90.187052
0.919  90.185875
0.918  90.175712
0.917  90.134479
0.916  90.109810
0.915  90.134636
0.914  90.106850
0.913  90.081011
0.912  90.125360
0.911  90.124435
0.910  90.065188
0.909  90.017901
0.908  89.982681
0.907  90.012766
0.906  90.067213
0.905  90.053245
0.904  90.054391
0.903  90.045570
0.902  90.040835
0.901  90.048775
0.900  90.001491
0.899  90.015156
0.898  90.068217
0.897  90.094191
0.896  90.080983
0.895  90.003376
0.894  90.027968
0.893  90.024816
0.892  89.931091
0.891  89.974534
0.890  89.942067
0.889  89.961865
0.888  89.974442
0.887  89.955903
0.886  89.966948
0.885  89.973270
0.884  89.923082
0.883  89.961288
0.882  89.919761
0.881  89.936774
0.880  89.954164
0.879  89.909145
0.878  89.924749
0.877  89.847083
0.876  89.828648
0.875  89.887066
0.874  89.883784
0.873  89.951365
0.872  89.822528
0.871  89.832970
0.870  89.778291
0.869  89.839292
0.868  89.858508
0.867  89.892811
0.866  89.879434
0.865  89.858093
0.864  89.861529
0.863  89.861024
0.862  89.787231
0.861  89.793943
0.860  89.871471
0.859  89.905139
0.858  89.806794
0.857  89.752536
0.856  89.954124
0.855  89.820103
0.854  89.700137
0.853  89.809808
0.852  89.827412
0.851  89.839580
0.850  89.817760
0.849  89.815322
0.848  89.787816
0.847  89.810204
0.846  89.800208
0.845  89.814223
0.844  89.895988
0.843  89.825931
0.842  89.755176
0.841  89.878737
0.840  89.825219
0.839  89.812846
0.838  89.836712
0.837  89.791466
0.836  89.821554
0.835  89.877509
0.834  89.880664
0.833  89.835804
0.832  89.867431
0.831  89.830259
0.830  89.826838
0.829  89.870011
0.828  89.836363
0.827  89.834177
0.826  89.861976
0.825  89.889655
0.824  89.876944
0.823  89.842460
0.822  89.859671
0.821  89.848581
0.820  89.868700
0.819  89.853797
0.818  89.866370
0.817  89.919402
0.816  89.849619
0.815  89.898075
0.814  89.904898
0.813  89.884371
0.812  89.923541
0.811  89.822886
0.810  89.865827
0.809  89.885698
0.808  89.930344
0.807  89.864611
0.806  89.905120
0.805  89.917697
0.804  89.884034
0.803  89.906349
0.802  89.906695
0.801  89.905093
0.800  89.901142
0.799  89.884614
0.798  89.830787
0.797  89.845699
0.796  89.837955
0.795  89.754821
0.794  89.828856
0.793  89.792867
0.792  89.773280
0.791  89.822900
0.790  89.777020
0.789  89.823430
0.788  89.849459
0.787  89.834859
0.786  89.779348
0.785  89.829429
0.784  89.821129
0.783  89.809377
0.782  89.807942
0.781  89.875187
0.780  89.773864
0.779  89.833210
0.778  89.737764
0.777  89.783882
0.776  89.746514
0.775  89.803381
0.774  89.797870
0.773  89.797488
0.772  89.804716
0.771  89.812430
0.770  89.802078
0.769  89.808719
0.768  89.783701
0.767  89.780793
0.766  89.778240
0.765  89.797095
0.764  89.802677
0.763  89.819150
0.762  89.785031
0.761  89.804588
0.760  89.787597
0.759  89.817685
0.758  89.768756
0.757  89.778243
0.756  89.786517
0.755  89.812750
0.754  89.795841
0.753  89.759517
0.752  89.760678
0.751  89.795420
0.750  89.789328
0.749  89.789110
0.748  89.777616
0.747  89.784761
0.746  89.816087
0.745  89.807343
0.744  89.755558
0.743  89.744044
0.742  89.815140
0.741  89.793986
0.740  89.801857
0.739  89.800830
0.738  89.783577
0.737  89.786935
0.736  89.772924
0.735  89.777162
0.734  89.797625
0.733  89.801366
0.732  89.777047
0.731  89.799996
0.730  89.790648
0.729  89.811970
0.728  89.792430
0.727  89.814714
0.726  89.785145
0.725  89.797609
0.724  89.792717
0.723  89.783340
0.722  89.793356
0.721  89.779425
0.720  89.773291
0.719  89.769506
0.718  89.771026
0.717  89.790758
0.716  89.766980
0.715  89.771957
0.714  89.783073
0.713  89.768667
0.712  89.785409
0.711  89.792948
0.710  89.759073
0.709  89.760494
0.708  89.760170
0.707  89.770132
0.706  89.757549
0.705  89.780273
0.704  89.789384
0.703  89.779013
0.702  89.770280
0.701  89.758480
0.700  89.766512
0.699  89.767739
0.698  89.762869
0.697  89.760938
0.696  89.769644
0.695  89.758343
0.694  89.766512
0.693  89.756304
0.692  89.757183
0.691  89.760888
0.690  89.766263
0.689  89.767219
0.688  89.777248
0.687  89.764228
0.686  89.741921
0.685  89.736461
0.684  89.754567
0.683  89.759840
0.682  89.768513
0.681  89.771929
0.680  89.741819
0.679  89.733678
0.678  89.738126
0.677  89.727258
0.676  89.733806
0.675  89.753518
0.674  89.757019
0.673  89.740523
0.672  89.757979
0.671  89.745374
0.670  89.758516
0.669  89.754018
0.668  89.731438
0.667  89.740963
0.666  89.739631
0.665  89.726006
0.664  89.715651
0.663  89.717843
0.662  89.730865
0.661  89.729768
0.660  89.754378
0.659  89.760698
0.658  89.747648
0.657  89.742433
0.656  89.749255
0.655  89.742047
0.654  89.736705
0.653  89.741573
0.652  89.729908
0.651  89.733465
0.650  89.741332
0.649  89.727595
0.648  89.700949
0.647  89.710133
0.646  89.727621
0.645  89.719197
0.644  89.711736
0.643  89.714622
0.642  89.730745
0.641  89.721001
0.640  89.710565
0.639  89.717090
0.638  89.712129
0.637  89.705697
0.636  89.723213
0.635  89.715894
0.634  89.723657
0.633  89.762199
0.632  89.768604
0.631  89.754812
0.630  89.742896
0.629  89.743670
0.628  89.752293
0.627  89.741672
0.626  89.741837
0.625  89.754390
0.624  89.757042
0.623  89.759558
0.622  89.743428
0.621  89.737734
0.620  89.747445
0.619  89.743666
0.618  89.748561
0.617  89.740590
0.616  89.728898
0.615  89.742984
0.614  89.758500
0.613  89.743620
0.612  89.724389
0.611  89.706810
0.610  89.725098
0.609  89.730935
0.608  89.723967
0.607  89.720522
0.606  89.712710
0.605  89.711095
0.604  89.710367
0.603  89.710635
0.602  89.709516
0.601  89.707478
0.600  89.701447
0.599  89.727865
0.598  89.722336
0.597  89.745873
0.596  89.760852
0.595  89.768744
0.594  89.779973
0.593  89.783894
0.592  89.768935
0.591  89.769991
0.590  89.773160
0.589  89.748287
0.588  89.746113
0.587  89.765684
0.586  89.751806
0.585  89.754210
0.584  89.754478
0.583  89.742973
0.582  89.740983
0.581  89.736625
0.580  89.713830
0.579  89.714639
0.578  89.731345
0.577  89.736368
0.576  89.718017
0.575  89.698426
0.574  89.696249
0.573  89.707786
0.572  89.694421
0.571  89.700188
0.570  89.682666
0.569  89.677041
0.568  89.683091
0.567  89.677042
0.566  89.672256
0.565  89.667129
0.564  89.672154
0.563  89.651866
0.562  89.664730
0.561  89.654040
0.560  89.631237
0.559  89.615577
0.558  89.636295
0.557  89.629920
0.556  89.618495
0.555  89.597759
0.554  89.585443
0.553  89.601996
0.552  89.591756
0.551  89.588552
0.550  89.577308
0.549  89.576239
0.548  89.553797
0.547  89.548143
0.546  89.561215
0.545  89.554050
0.544  89.551345
0.543  89.551094
0.542  89.539716
0.541  89.545495
0.540  89.522984
0.539  89.500365
0.538  89.495903
0.537  89.507462
0.536  89.488648
0.535  89.485160
0.534  89.454010
0.533  89.465939
0.532  89.473269
0.531  89.469237
0.530  89.450706
0.529  89.426328
0.528  89.441951
0.527  89.403865
0.526  89.394899
0.525  89.393432
0.524  89.387817
0.523  89.393733
0.522  89.370465
0.521  89.368746
0.520  89.363471
0.519  89.333758
0.518  89.329574
0.517  89.330759
0.516  89.312226
0.515  89.285870
0.514  89.277296
0.513  89.270895
0.512  89.262400
0.511  89.252408
0.510  89.218269
0.509  89.211584
0.508  89.186512
0.507  89.175543
0.506  89.151525
0.505  89.127322
0.504  89.143456
0.503  89.115804
0.502  89.094108
0.501  89.072689
0.500  89.058594
0.499  89.038904
0.498  89.025931
0.497  88.983828
0.496  88.981015
0.495  88.954658
0.494  88.914530
0.493  88.886551
0.492  88.861404
0.491  88.871689
0.490  88.863027
0.489  88.794024
0.488  88.803669
0.487  88.760313
0.486  88.746446
0.485  88.732188
0.484  88.682128
0.483  88.653023
0.482  88.632716
0.481  88.627704
0.480  88.597416
0.479  88.604703
0.478  88.555789
0.477  88.529252
0.476  88.507107
0.475  88.489680
0.474  88.469444
0.473  88.431140
0.472  88.408293
0.471  88.382668
0.470  88.358226
0.469  88.353712
0.468  88.314895
0.467  88.279501
0.466  88.261505
0.465  88.233011
0.464  88.207568
0.463  88.170868
0.462  88.137444
0.461  88.118551
0.460  88.084030
0.459  88.071417
0.458  88.027312
0.457  88.006296
0.456  87.965982
0.455  87.942726
0.454  87.919097
0.453  87.880558
0.452  87.839124
0.451  87.819011
0.450  87.763832
0.449  87.746562
0.448  87.713459
0.447  87.667644
0.446  87.664723
0.445  87.628193
0.444  87.580834
0.443  87.546022
0.442  87.526971
0.441  87.479556
0.440  87.470356
0.439  87.449156
0.438  87.399672
0.437  87.361634
0.436  87.322189
0.435  87.334809
0.434  87.270856
0.433  87.274016
0.432  87.209978
0.431  87.195605
0.430  87.178187
0.429  87.153730
0.428  87.146332
0.427  87.113360
0.426  87.100250
0.425  87.091844
0.424  87.069542
0.423  87.021208
0.422  86.996389
0.421  86.994780
0.420  86.950632
0.419  86.926269
0.418  86.899492
0.417  86.886681
0.416  86.863763
0.415  86.855722
0.414  86.839475
0.413  86.827802
0.412  86.811300
0.411  86.807099
0.410  86.795272
0.409  86.755375
0.408  86.763615
0.407  86.762823
0.406  86.726971
0.405  86.706932
0.404  86.699582
0.403  86.691386
0.402  86.686116
0.401  86.673603
0.400  86.664887
