Name: Carbonaceous Shale
Type: Rock
Class: Sedimentary
Subclass:  Shale 
Particle Size: Solid surface
Sample No.: Ward54.txt
Owner: JPL
Wavelength range:  VNIR SWIR IR
Origin: Ward's Collection of American Rocks.  Sample locality - Mingo County, West Virginia.
Collected by:  Ward's Natural Science
Description: A dull grayish black shaly rock with numerous fern and other
coal plant impressions.  A slight amount of carbonaceous material i
present.
Geologic age - Pennsylvanian (Pottsville).


Measurement: Hemispherical reflectance
First Column: X
Second Column: Y
X Units: Wavelength (micrometers)
Y Units: Reflectance (percent)
First X Value: 2.500
Last X Value: 0.400
Number of X Values: 2101
Additional information: None

2.500  10.825127
2.499  10.434468
2.498  11.028879
2.497  10.670934
2.496  10.554544
2.495  10.626793
2.494  10.745078
2.493  10.668578
2.492  10.765897
2.491  10.706447
2.490  10.777263
2.489  10.614788
2.488  10.749833
2.487  10.611702
2.486  10.931508
2.485  10.684774
2.484  10.930822
2.483  10.800548
2.482  10.858764
2.481  10.766012
2.480  10.873247
2.479  10.730465
2.478  10.980952
2.477  10.746796
2.476  10.960873
2.475  10.657878
2.474  10.896202
2.473  10.760250
2.472  10.850975
2.471  10.802331
2.470  10.988259
2.469  10.744067
2.468  10.969180
2.467  10.953805
2.466  10.886128
2.465  10.926225
2.464  11.131685
2.463  10.832582
2.462  10.974867
2.461  10.797143
2.460  11.030027
2.459  10.787674
2.458  10.968871
2.457  10.851957
2.456  11.008972
2.455  10.768712
2.454  11.002467
2.453  10.914808
2.452  11.006798
2.451  10.839731
2.450  10.993505
2.449  10.864348
2.448  10.994156
2.447  10.865014
2.446  11.071202
2.445  11.002734
2.444  11.087252
2.443  10.920349
2.442  11.097331
2.441  10.929205
2.440  11.038655
2.439  11.018489
2.438  11.168908
2.437  11.029977
2.436  11.139910
2.435  11.025966
2.434  11.210560
2.433  11.147163
2.432  11.275453
2.431  11.135506
2.430  11.169479
2.429  11.165334
2.428  11.300580
2.427  11.240673
2.426  11.262706
2.425  11.164326
2.424  11.316500
2.423  11.275235
2.422  11.308301
2.421  11.272413
2.420  11.470342
2.419  11.347154
2.418  11.517763
2.417  11.473689
2.416  11.448516
2.415  11.363612
2.414  11.465449
2.413  11.381705
2.412  11.455016
2.411  11.375506
2.410  11.425447
2.409  11.498381
2.408  11.567053
2.407  11.494900
2.406  11.558072
2.405  11.535915
2.404  11.549465
2.403  11.475233
2.402  11.560202
2.401  11.554434
2.400  11.573336
2.399  11.538528
2.398  11.598150
2.397  11.503213
2.396  11.545893
2.395  11.500437
2.394  11.575987
2.393  11.575224
2.392  11.585665
2.391  11.500577
2.390  11.568543
2.389  11.552850
2.388  11.549355
2.387  11.539293
2.386  11.576927
2.385  11.523878
2.384  11.555677
2.383  11.530839
2.382  11.541267
2.381  11.507702
2.380  11.509671
2.379  11.548634
2.378  11.576091
2.377  11.473943
2.376  11.495768
2.375  11.544367
2.374  11.556122
2.373  11.549277
2.372  11.623880
2.371  11.596364
2.370  11.586949
2.369  11.571397
2.368  11.597628
2.367  11.579051
2.366  11.565763
2.365  11.581711
2.364  11.628045
2.363  11.584851
2.362  11.569258
2.361  11.605258
2.360  11.581188
2.359  11.583736
2.358  11.562507
2.357  11.576451
2.356  11.616157
2.355  11.602603
2.354  11.632457
2.353  11.606174
2.352  11.566399
2.351  11.644469
2.350  11.644663
2.349  11.599324
2.348  11.585345
2.347  11.652281
2.346  11.680168
2.345  11.666502
2.344  11.670988
2.343  11.726318
2.342  11.688799
2.341  11.692784
2.340  11.687536
2.339  11.678257
2.338  11.718060
2.337  11.728950
2.336  11.735905
2.335  11.826792
2.334  11.828498
2.333  11.847526
2.332  11.895670
2.331  11.867062
2.330  11.800427
2.329  11.843587
2.328  11.864047
2.327  11.879325
2.326  11.887392
2.325  11.923349
2.324  11.890363
2.323  11.982965
2.322  11.966643
2.321  11.986979
2.320  11.999834
2.319  12.035591
2.318  11.959906
2.317  12.003557
2.316  12.054110
2.315  12.135955
2.314  12.081921
2.313  12.145211
2.312  12.140949
2.311  12.215294
2.310  12.107409
2.309  12.179089
2.308  12.213383
2.307  12.271359
2.306  12.254507
2.305  12.271332
2.304  12.215534
2.303  12.323970
2.302  12.270808
2.301  12.317523
2.300  12.294732
2.299  12.400438
2.298  12.346443
2.297  12.398478
2.296  12.366810
2.295  12.483981
2.294  12.455655
2.293  12.429315
2.292  12.385389
2.291  12.454550
2.290  12.413233
2.289  12.446060
2.288  12.500418
2.287  12.531511
2.286  12.514895
2.285  12.572089
2.284  12.517850
2.283  12.556200
2.282  12.517346
2.281  12.541446
2.280  12.540446
2.279  12.601371
2.278  12.481801
2.277  12.592343
2.276  12.530986
2.275  12.559796
2.274  12.495186
2.273  12.571790
2.272  12.587577
2.271  12.624840
2.270  12.525236
2.269  12.596284
2.268  12.555753
2.267  12.655106
2.266  12.579098
2.265  12.586168
2.264  12.492382
2.263  12.559090
2.262  12.493954
2.261  12.592013
2.260  12.522585
2.259  12.644137
2.258  12.484833
2.257  12.584475
2.256  12.531531
2.255  12.561172
2.254  12.484692
2.253  12.598018
2.252  12.465054
2.251  12.568381
2.250  12.486951
2.249  12.666621
2.248  12.494167
2.247  12.642637
2.246  12.563595
2.245  12.557764
2.244  12.588629
2.243  12.640508
2.242  12.574444
2.241  12.692739
2.240  12.522619
2.239  12.635588
2.238  12.494898
2.237  12.563525
2.236  12.501700
2.235  12.682527
2.234  12.537131
2.233  12.529987
2.232  12.514072
2.231  12.609774
2.230  12.540874
2.229  12.543542
2.228  12.416107
2.227  12.605344
2.226  12.446322
2.225  12.492954
2.224  12.455970
2.223  12.343214
2.222  12.396860
2.221  12.302235
2.220  12.251297
2.219  12.280868
2.218  12.163323
2.217  12.251506
2.216  12.022108
2.215  12.035293
2.214  11.945401
2.213  12.034086
2.212  11.975374
2.211  11.791826
2.210  11.757452
2.209  11.787011
2.208  11.736324
2.207  11.841538
2.206  11.764115
2.205  11.999583
2.204  11.748855
2.203  11.921306
2.202  11.872168
2.201  12.024938
2.200  11.955474
2.199  12.118998
2.198  12.010792
2.197  12.183776
2.196  12.133802
2.195  12.269581
2.194  12.193210
2.193  12.321072
2.192  12.246868
2.191  12.390654
2.190  12.335893
2.189  12.489030
2.188  12.355579
2.187  12.509351
2.186  12.463942
2.185  12.541470
2.184  12.477567
2.183  12.608523
2.182  12.638789
2.181  12.694044
2.180  12.625112
2.179  12.737289
2.178  12.648560
2.177  12.749254
2.176  12.709680
2.175  12.828866
2.174  12.719862
2.173  12.850345
2.172  12.826820
2.171  12.796726
2.170  12.755555
2.169  12.872860
2.168  12.816222
2.167  12.965323
2.166  12.853720
2.165  12.933712
2.164  12.879411
2.163  13.008835
2.162  12.896815
2.161  13.023253
2.160  13.005363
2.159  13.056493
2.158  12.989761
2.157  13.068526
2.156  12.991711
2.155  13.151637
2.154  13.125627
2.153  13.173536
2.152  13.136604
2.151  13.258518
2.150  13.148094
2.149  13.272291
2.148  13.175256
2.147  13.318276
2.146  13.289772
2.145  13.385672
2.144  13.346325
2.143  13.374416
2.142  13.344100
2.141  13.522419
2.140  13.431424
2.139  13.545089
2.138  13.473367
2.137  13.494878
2.136  13.461870
2.135  13.517746
2.134  13.465832
2.133  13.596581
2.132  13.512559
2.131  13.589861
2.130  13.524921
2.129  13.526763
2.128  13.518685
2.127  13.545969
2.126  13.519871
2.125  13.548737
2.124  13.450588
2.123  13.498674
2.122  13.502968
2.121  13.494927
2.120  13.427048
2.119  13.517365
2.118  13.464511
2.117  13.495968
2.116  13.458606
2.115  13.455299
2.114  13.417968
2.113  13.487323
2.112  13.407370
2.111  13.436593
2.110  13.396357
2.109  13.446942
2.108  13.394137
2.107  13.452969
2.106  13.397932
2.105  13.437314
2.104  13.376653
2.103  13.392268
2.102  13.400037
2.101  13.414042
2.100  13.404197
2.099  13.398506
2.098  13.397626
2.097  13.472868
2.096  13.424171
2.095  13.436171
2.094  13.371419
2.093  13.381477
2.092  13.417806
2.091  13.473470
2.090  13.494892
2.089  13.515983
2.088  13.454035
2.087  13.464976
2.086  13.475741
2.085  13.505269
2.084  13.512068
2.083  13.519689
2.082  13.462376
2.081  13.458067
2.080  13.481424
2.079  13.511296
2.078  13.533039
2.077  13.519698
2.076  13.522619
2.075  13.539180
2.074  13.512957
2.073  13.521055
2.072  13.498455
2.071  13.488760
2.070  13.511516
2.069  13.571692
2.068  13.559379
2.067  13.540962
2.066  13.611478
2.065  13.607695
2.064  13.593249
2.063  13.539202
2.062  13.550278
2.061  13.576426
2.060  13.565704
2.059  13.539308
2.058  13.605347
2.057  13.616569
2.056  13.610448
2.055  13.586373
2.054  13.582407
2.053  13.613295
2.052  13.643550
2.051  13.613594
2.050  13.628748
2.049  13.597485
2.048  13.605371
2.047  13.588418
2.046  13.599312
2.045  13.588020
2.044  13.589346
2.043  13.609766
2.042  13.645043
2.041  13.568921
2.040  13.621490
2.039  13.634889
2.038  13.641087
2.037  13.665108
2.036  13.682214
2.035  13.655080
2.034  13.633863
2.033  13.613959
2.032  13.640038
2.031  13.576542
2.030  13.652361
2.029  13.600411
2.028  13.695104
2.027  13.602086
2.026  13.634013
2.025  13.570151
2.024  13.623968
2.023  13.562836
2.022  13.577379
2.021  13.585980
2.020  13.624114
2.019  13.609310
2.018  13.681618
2.017  13.624984
2.016  13.639152
2.015  13.659697
2.014  13.717108
2.013  13.617256
2.012  13.609600
2.011  13.595860
2.010  13.699634
2.009  13.622702
2.008  13.624279
2.007  13.556433
2.006  13.621891
2.005  13.583355
2.004  13.624491
2.003  13.661759
2.002  13.700038
2.001  13.675627
2.000  13.679588
1.999  13.615279
1.998  13.667992
1.997  13.576755
1.996  13.684199
1.995  13.655299
1.994  13.671610
1.993  13.632951
1.992  13.636933
1.991  13.704340
1.990  13.650643
1.989  13.568432
1.988  13.692433
1.987  13.620726
1.986  13.679068
1.985  13.625433
1.984  13.701496
1.983  13.641232
1.982  13.715737
1.981  13.602396
1.980  13.715321
1.979  13.582841
1.978  13.727942
1.977  13.674864
1.976  13.692779
1.975  13.671119
1.974  13.745370
1.973  13.649299
1.972  13.759718
1.971  13.646443
1.970  13.746566
1.969  13.661067
1.968  13.752287
1.967  13.725055
1.966  13.765498
1.965  13.673438
1.964  13.796902
1.963  13.576070
1.962  13.768522
1.961  13.670877
1.960  13.831917
1.959  13.674504
1.958  13.828984
1.957  13.757928
1.956  13.795323
1.955  13.735880
1.954  13.802442
1.953  13.704780
1.952  13.916974
1.951  13.729563
1.950  13.844069
1.949  13.755386
1.948  13.904366
1.947  13.744362
1.946  13.917493
1.945  13.719067
1.944  13.830449
1.943  13.844051
1.942  13.919709
1.941  13.798895
1.940  13.865469
1.939  13.844194
1.938  13.971069
1.937  13.880928
1.936  13.943131
1.935  13.746997
1.934  14.006146
1.933  13.809561
1.932  14.052539
1.931  13.826021
1.930  13.934386
1.929  13.815642
1.928  13.947930
1.927  13.910258
1.926  13.906488
1.925  13.873025
1.924  13.996532
1.923  13.815059
1.922  13.897071
1.921  13.829128
1.920  13.894540
1.919  13.835532
1.918  13.964244
1.917  13.886152
1.916  13.907136
1.915  13.839587
1.914  13.972721
1.913  13.927969
1.912  13.796954
1.911  13.804392
1.910  13.984412
1.909  13.913623
1.908  13.982140
1.907  13.867230
1.906  13.961640
1.905  13.904541
1.904  13.982756
1.903  13.876112
1.902  14.017432
1.901  13.992791
1.900  14.036655
1.899  13.952132
1.898  14.038070
1.897  13.955703
1.896  14.085231
1.895  14.031645
1.894  14.060953
1.893  13.947410
1.892  14.113811
1.891  13.998710
1.890  14.180682
1.889  14.043664
1.888  14.187994
1.887  14.036226
1.886  14.132900
1.885  14.069215
1.884  14.172270
1.883  14.084901
1.882  14.191310
1.881  14.128866
1.880  14.146881
1.879  14.086408
1.878  14.229650
1.877  14.160179
1.876  14.319118
1.875  14.222406
1.874  14.390671
1.873  14.207341
1.872  14.355384
1.871  14.272720
1.870  14.321769
1.869  14.211968
1.868  14.345049
1.867  14.268866
1.866  14.284746
1.865  14.297123
1.864  14.314227
1.863  14.224759
1.862  14.307697
1.861  14.212455
1.860  14.289802
1.859  14.198601
1.858  14.260013
1.857  14.204721
1.856  14.268238
1.855  14.147015
1.854  14.215090
1.853  14.195159
1.852  14.335041
1.851  14.233314
1.850  14.262081
1.849  14.245644
1.848  14.280617
1.847  14.232104
1.846  14.233208
1.845  14.224117
1.844  14.263893
1.843  14.219569
1.842  14.269805
1.841  14.248740
1.840  14.280807
1.839  14.247597
1.838  14.299433
1.837  14.248771
1.836  14.226575
1.835  14.218735
1.834  14.327152
1.833  14.257607
1.832  14.295846
1.831  14.200809
1.830  14.219668
1.829  14.223207
1.828  14.276037
1.827  14.198694
1.826  14.245999
1.825  14.250793
1.824  14.271829
1.823  14.192753
1.822  14.304973
1.821  14.229487
1.820  14.195229
1.819  14.225548
1.818  14.221307
1.817  14.213745
1.816  14.207442
1.815  14.200736
1.814  14.236934
1.813  14.149912
1.812  14.225103
1.811  14.231997
1.810  14.231698
1.809  14.184043
1.808  14.239525
1.807  14.237121
1.806  14.222690
1.805  14.168689
1.804  14.223462
1.803  14.226730
1.802  14.252673
1.801  14.245863
1.800  14.267449
1.799  14.208507
1.798  14.199597
1.797  14.219274
1.796  14.242194
1.795  14.247132
1.794  14.238204
1.793  14.225013
1.792  14.260858
1.791  14.287511
1.790  14.198040
1.789  14.193208
1.788  14.260569
1.787  14.262377
1.786  14.292891
1.785  14.230749
1.784  14.249521
1.783  14.296749
1.782  14.274268
1.781  14.241101
1.780  14.224072
1.779  14.239869
1.778  14.242695
1.777  14.275819
1.776  14.246319
1.775  14.276187
1.774  14.298780
1.773  14.299857
1.772  14.314845
1.771  14.332055
1.770  14.320471
1.769  14.330720
1.768  14.305552
1.767  14.332962
1.766  14.293589
1.765  14.310468
1.764  14.302574
1.763  14.323728
1.762  14.266636
1.761  14.325608
1.760  14.314969
1.759  14.335104
1.758  14.284064
1.757  14.378408
1.756  14.343306
1.755  14.339838
1.754  14.375652
1.753  14.396463
1.752  14.347093
1.751  14.362547
1.750  14.309603
1.749  14.365665
1.748  14.331509
1.747  14.366570
1.746  14.299143
1.745  14.385037
1.744  14.415746
1.743  14.440875
1.742  14.359341
1.741  14.383831
1.740  14.341251
1.739  14.407020
1.738  14.339223
1.737  14.390158
1.736  14.342834
1.735  14.416530
1.734  14.361251
1.733  14.403862
1.732  14.350282
1.731  14.409378
1.730  14.365586
1.729  14.376001
1.728  14.366410
1.727  14.404456
1.726  14.374535
1.725  14.381271
1.724  14.404560
1.723  14.449537
1.722  14.390133
1.721  14.448035
1.720  14.348163
1.719  14.433545
1.718  14.397977
1.717  14.434764
1.716  14.342267
1.715  14.486193
1.714  14.433934
1.713  14.466587
1.712  14.366639
1.711  14.471970
1.710  14.409177
1.709  14.438418
1.708  14.361131
1.707  14.405098
1.706  14.427328
1.705  14.426788
1.704  14.403238
1.703  14.411228
1.702  14.437734
1.701  14.405939
1.700  14.353980
1.699  14.487507
1.698  14.387557
1.697  14.399073
1.696  14.319591
1.695  14.388664
1.694  14.372228
1.693  14.429885
1.692  14.368462
1.691  14.464323
1.690  14.382888
1.689  14.443886
1.688  14.336401
1.687  14.427485
1.686  14.357455
1.685  14.435191
1.684  14.388077
1.683  14.475995
1.682  14.361166
1.681  14.371489
1.680  14.348832
1.679  14.460447
1.678  14.363296
1.677  14.403615
1.676  14.439386
1.675  14.382549
1.674  14.413999
1.673  14.481627
1.672  14.372545
1.671  14.508200
1.670  14.362894
1.669  14.483123
1.668  14.185387
1.667  14.435934
1.666  14.351063
1.665  14.375248
1.664  14.376430
1.663  14.426322
1.662  14.338416
1.661  14.441488
1.660  14.314188
1.659  14.445886
1.658  14.320013
1.657  14.438455
1.656  14.343812
1.655  14.372852
1.654  14.306045
1.653  14.468057
1.652  14.369779
1.651  14.458508
1.650  14.364894
1.649  14.482523
1.648  14.366902
1.647  14.296655
1.646  14.372471
1.645  14.480327
1.644  14.306889
1.643  14.483071
1.642  14.393886
1.641  14.293885
1.640  14.399275
1.639  14.430998
1.638  14.318118
1.637  14.458133
1.636  14.351012
1.635  14.435856
1.634  14.335619
1.633  14.410963
1.632  14.362331
1.631  14.475446
1.630  14.361528
1.629  14.490975
1.628  14.336061
1.627  14.434674
1.626  14.292874
1.625  14.431410
1.624  14.337018
1.623  14.486246
1.622  14.371468
1.621  14.431735
1.620  14.353547
1.619  14.460086
1.618  14.372221
1.617  14.392866
1.616  14.401915
1.615  14.495542
1.614  14.383459
1.613  14.436172
1.612  14.353479
1.611  14.420850
1.610  14.391151
1.609  14.413535
1.608  14.400338
1.607  14.428369
1.606  14.369797
1.605  14.519605
1.604  14.365062
1.603  14.428038
1.602  14.315372
1.601  14.492778
1.600  14.353049
1.599  14.429646
1.598  14.369415
1.597  14.503477
1.596  14.397458
1.595  14.432777
1.594  14.354621
1.593  14.510221
1.592  14.326704
1.591  14.460446
1.590  14.392495
1.589  14.388815
1.588  14.364773
1.587  14.429000
1.586  14.405994
1.585  14.411435
1.584  14.405765
1.583  14.487569
1.582  14.343397
1.581  14.427224
1.580  14.355764
1.579  14.461385
1.578  14.450656
1.577  14.478297
1.576  14.344057
1.575  14.399203
1.574  14.460084
1.573  14.493142
1.572  14.395646
1.571  14.418860
1.570  14.400261
1.569  14.494031
1.568  14.376672
1.567  14.427682
1.566  14.392223
1.565  14.397415
1.564  14.323876
1.563  14.426890
1.562  14.447511
1.561  14.446397
1.560  14.335070
1.559  14.392286
1.558  14.321620
1.557  14.445313
1.556  14.331479
1.555  14.428182
1.554  14.426331
1.553  14.447932
1.552  14.404825
1.551  14.435555
1.550  14.388791
1.549  14.429918
1.548  14.373944
1.547  14.437532
1.546  14.328450
1.545  14.392164
1.544  14.362014
1.543  14.438252
1.542  14.467630
1.541  14.412321
1.540  14.361081
1.539  14.398039
1.538  14.388363
1.537  14.427000
1.536  14.357040
1.535  14.397547
1.534  14.367350
1.533  14.380679
1.532  14.435985
1.531  14.441785
1.530  14.380481
1.529  14.411836
1.528  14.398311
1.527  14.402087
1.526  14.419936
1.525  14.437071
1.524  14.332228
1.523  14.333244
1.522  14.358277
1.521  14.398841
1.520  14.400203
1.519  14.361756
1.518  14.373725
1.517  14.385177
1.516  14.351397
1.515  14.399790
1.514  14.403270
1.513  14.387986
1.512  14.365838
1.511  14.410302
1.510  14.406077
1.509  14.356899
1.508  14.337180
1.507  14.383433
1.506  14.370508
1.505  14.336171
1.504  14.332862
1.503  14.338568
1.502  14.385090
1.501  14.377797
1.500  14.352380
1.499  14.371209
1.498  14.405494
1.497  14.409938
1.496  14.375002
1.495  14.389749
1.494  14.406132
1.493  14.340682
1.492  14.357161
1.491  14.384437
1.490  14.370707
1.489  14.356769
1.488  14.360356
1.487  14.343704
1.486  14.387868
1.485  14.386844
1.484  14.388880
1.483  14.342911
1.482  14.366849
1.481  14.349566
1.480  14.385205
1.479  14.384109
1.478  14.406328
1.477  14.311307
1.476  14.366806
1.475  14.381622
1.474  14.335029
1.473  14.282586
1.472  14.317384
1.471  14.280227
1.470  14.335170
1.469  14.353251
1.468  14.365611
1.467  14.339957
1.466  14.338423
1.465  14.323311
1.464  14.416423
1.463  14.360348
1.462  14.334772
1.461  14.334971
1.460  14.371764
1.459  14.328061
1.458  14.355102
1.457  14.325497
1.456  14.366344
1.455  14.244239
1.454  14.337178
1.453  14.295776
1.452  14.295396
1.451  14.247077
1.450  14.331773
1.449  14.332750
1.448  14.352200
1.447  14.307672
1.446  14.355854
1.445  14.336185
1.444  14.372135
1.443  14.260669
1.442  14.322735
1.441  14.276290
1.440  14.312727
1.439  14.295127
1.438  14.350787
1.437  14.292944
1.436  14.307337
1.435  14.252927
1.434  14.250589
1.433  14.184240
1.432  14.236601
1.431  14.190389
1.430  14.179784
1.429  14.200005
1.428  14.179583
1.427  14.127904
1.426  14.106384
1.425  14.058758
1.424  14.094518
1.423  13.979662
1.422  13.958840
1.421  13.955843
1.420  13.840348
1.419  13.732436
1.418  13.634860
1.417  13.454070
1.416  13.485725
1.415  13.446921
1.414  13.518804
1.413  13.624638
1.412  13.693383
1.411  13.670382
1.410  13.745915
1.409  13.627511
1.408  13.773549
1.407  13.659181
1.406  13.713159
1.405  13.792878
1.404  13.841523
1.403  13.745960
1.402  13.939470
1.401  13.641452
1.400  13.833402
1.399  13.670695
1.398  13.985475
1.397  13.848189
1.396  13.990428
1.395  13.811924
1.394  13.932262
1.393  13.943873
1.392  14.101267
1.391  14.069247
1.390  14.161853
1.389  14.095117
1.388  14.219560
1.387  14.152504
1.386  14.353185
1.385  14.140587
1.384  14.339629
1.383  14.228072
1.382  14.214628
1.381  14.222665
1.380  14.280785
1.379  14.250861
1.378  14.365302
1.377  14.178102
1.376  14.343519
1.375  14.228511
1.374  14.359360
1.373  14.202884
1.372  14.339611
1.371  14.245505
1.370  14.339553
1.369  14.256152
1.368  14.340187
1.367  14.222919
1.366  14.351724
1.365  14.355843
1.364  14.309608
1.363  14.279240
1.362  14.326305
1.361  14.131255
1.360  14.377846
1.359  14.273525
1.358  14.427391
1.357  14.273198
1.356  14.425662
1.355  14.105580
1.354  14.360499
1.353  14.177630
1.352  14.310740
1.351  14.269087
1.350  14.316240
1.349  14.152428
1.348  14.356258
1.347  14.251876
1.346  14.406976
1.345  14.181332
1.344  14.328152
1.343  14.290082
1.342  14.299668
1.341  14.191337
1.340  14.347623
1.339  14.183112
1.338  14.321274
1.337  14.232125
1.336  14.306088
1.335  14.204045
1.334  14.294599
1.333  14.188559
1.332  14.297421
1.331  14.177967
1.330  14.276928
1.329  14.168359
1.328  14.271110
1.327  14.223828
1.326  14.285001
1.325  14.152449
1.324  14.248417
1.323  14.214211
1.322  14.278386
1.321  14.151544
1.320  14.298615
1.319  14.223696
1.318  14.281178
1.317  14.133060
1.316  14.246035
1.315  14.150590
1.314  14.209087
1.313  14.116977
1.312  14.282540
1.311  14.148993
1.310  14.260340
1.309  14.144786
1.308  14.235020
1.307  14.180957
1.306  14.207348
1.305  14.140783
1.304  14.249726
1.303  14.165094
1.302  14.191600
1.301  14.169354
1.300  14.187492
1.299  14.163769
1.298  14.269459
1.297  14.083288
1.296  14.144474
1.295  14.187806
1.294  14.235622
1.293  14.128836
1.292  14.226345
1.291  14.179077
1.290  14.224194
1.289  14.127199
1.288  14.193584
1.287  14.177931
1.286  14.250717
1.285  14.152348
1.284  14.201793
1.283  14.126374
1.282  14.210406
1.281  14.188895
1.280  14.204876
1.279  14.138425
1.278  14.153255
1.277  14.139635
1.276  14.118580
1.275  14.105684
1.274  14.189481
1.273  14.120560
1.272  14.202405
1.271  14.107732
1.270  14.157052
1.269  14.221274
1.268  14.175463
1.267  14.149499
1.266  14.168280
1.265  14.079342
1.264  14.202246
1.263  14.090068
1.262  14.142061
1.261  14.117448
1.260  14.165091
1.259  14.087322
1.258  14.155291
1.257  14.124723
1.256  14.116988
1.255  14.100655
1.254  14.093993
1.253  14.078477
1.252  14.130546
1.251  14.088732
1.250  14.126186
1.249  14.036031
1.248  14.047787
1.247  14.088127
1.246  14.118932
1.245  14.077576
1.244  14.130454
1.243  14.054881
1.242  14.075849
1.241  14.060939
1.240  14.096071
1.239  14.095117
1.238  14.071377
1.237  14.009111
1.236  14.085354
1.235  14.085355
1.234  14.073837
1.233  14.055847
1.232  14.088637
1.231  14.120040
1.230  14.085428
1.229  14.072606
1.228  14.128066
1.227  14.060957
1.226  14.055372
1.225  14.040937
1.224  14.020519
1.223  14.074199
1.222  14.109811
1.221  14.030936
1.220  14.050968
1.219  14.087577
1.218  14.079135
1.217  14.063582
1.216  14.030630
1.215  14.038781
1.214  14.084419
1.213  14.061132
1.212  14.053119
1.211  14.029518
1.210  14.020879
1.209  14.060858
1.208  14.077230
1.207  14.096793
1.206  14.040041
1.205  14.041214
1.204  14.047753
1.203  14.046806
1.202  14.029776
1.201  14.047093
1.200  14.048046
1.199  14.039409
1.198  13.970731
1.197  13.973635
1.196  13.997783
1.195  14.058563
1.194  14.067241
1.193  14.097793
1.192  14.051245
1.191  13.985280
1.190  14.022614
1.189  14.057955
1.188  13.886707
1.187  14.005153
1.186  14.023763
1.185  14.001715
1.184  14.072560
1.183  14.098857
1.182  13.974473
1.181  14.018363
1.180  14.022062
1.179  14.044060
1.178  14.025437
1.177  14.007551
1.176  13.980024
1.175  14.075801
1.174  14.029692
1.173  14.017290
1.172  14.008030
1.171  14.025528
1.170  14.001694
1.169  14.084484
1.168  13.987180
1.167  14.049076
1.166  14.021254
1.165  14.034658
1.164  13.966097
1.163  13.985659
1.162  13.973190
1.161  13.996140
1.160  13.991195
1.159  14.076187
1.158  13.953766
1.157  14.037142
1.156  13.975245
1.155  14.027121
1.154  13.993046
1.153  14.080475
1.152  14.051422
1.151  14.052444
1.150  13.965844
1.149  14.056056
1.148  13.987718
1.147  14.047275
1.146  13.987272
1.145  14.009453
1.144  13.934953
1.143  13.970788
1.142  13.981399
1.141  14.075061
1.140  14.045735
1.139  13.959750
1.138  13.975844
1.137  14.056868
1.136  13.930933
1.135  14.024257
1.134  13.962855
1.133  14.047965
1.132  14.009286
1.131  14.067513
1.130  13.991160
1.129  14.077204
1.128  14.033853
1.127  14.097563
1.126  13.963900
1.125  14.080951
1.124  14.011958
1.123  14.061450
1.122  13.941986
1.121  14.061836
1.120  14.002339
1.119  14.086604
1.118  13.977767
1.117  14.022229
1.116  14.010609
1.115  14.149026
1.114  14.011599
1.113  14.051153
1.112  14.003153
1.111  14.156050
1.110  13.995816
1.109  14.114253
1.108  13.979163
1.107  14.081636
1.106  13.986970
1.105  14.101624
1.104  14.010236
1.103  14.091137
1.102  14.042724
1.101  14.081720
1.100  13.898419
1.099  14.133825
1.098  13.974462
1.097  14.128127
1.096  13.998020
1.095  14.089159
1.094  14.009453
1.093  14.106873
1.092  14.026907
1.091  14.152332
1.090  13.966274
1.089  14.099187
1.088  14.009654
1.087  14.178793
1.086  13.978906
1.085  14.141200
1.084  14.000361
1.083  14.022679
1.082  14.071089
1.081  14.202884
1.080  14.084867
1.079  14.072261
1.078  14.008217
1.077  14.104880
1.076  14.001152
1.075  14.188263
1.074  14.015095
1.073  14.215064
1.072  14.043057
1.071  14.263882
1.070  13.931861
1.069  14.286524
1.068  14.097959
1.067  14.114130
1.066  13.988639
1.065  14.108892
1.064  14.014547
1.063  14.231551
1.062  14.076221
1.061  14.203906
1.060  13.970899
1.059  14.131142
1.058  14.010761
1.057  14.189980
1.056  14.083532
1.055  14.164944
1.054  14.098604
1.053  14.211085
1.052  14.122018
1.051  14.217069
1.050  14.065686
1.049  14.184826
1.048  14.152064
1.047  14.142811
1.046  14.086740
1.045  14.175569
1.044  14.080869
1.043  14.228137
1.042  14.046705
1.041  14.200476
1.040  14.168139
1.039  14.243108
1.038  14.100379
1.037  14.186843
1.036  14.183877
1.035  14.185564
1.034  14.138810
1.033  14.248214
1.032  14.086781
1.031  14.252292
1.030  14.193991
1.029  14.234121
1.028  14.170156
1.027  14.197170
1.026  14.172181
1.025  14.278169
1.024  14.188878
1.023  14.261094
1.022  14.150539
1.021  14.270208
1.020  14.124031
1.019  14.308084
1.018  14.186522
1.017  14.260612
1.016  14.156296
1.015  14.246602
1.014  14.266066
1.013  14.290462
1.012  14.192262
1.011  14.243665
1.010  14.207195
1.009  14.274358
1.008  14.184419
1.007  14.245898
1.006  14.167687
1.005  14.319032
1.004  14.247854
1.003  14.280630
1.002  14.238375
1.001  14.355889
1.000  14.300511
0.999  14.343726
0.998  14.239147
0.997  14.325058
0.996  14.246860
0.995  14.294698
0.994  14.226355
0.993  14.299806
0.992  14.253978
0.991  14.296462
0.990  14.221696
0.989  14.294882
0.988  14.212361
0.987  14.318178
0.986  14.268849
0.985  14.306676
0.984  14.250480
0.983  14.305930
0.982  14.280269
0.981  14.322181
0.980  14.268228
0.979  14.311217
0.978  14.321515
0.977  14.332020
0.976  14.287027
0.975  14.383646
0.974  14.394762
0.973  14.363982
0.972  14.265204
0.971  14.282664
0.970  14.287723
0.969  14.350696
0.968  14.277950
0.967  14.368128
0.966  14.349593
0.965  14.334276
0.964  14.357677
0.963  14.393446
0.962  14.341051
0.961  14.408879
0.960  14.377429
0.959  14.406789
0.958  14.383457
0.957  14.357657
0.956  14.346000
0.955  14.382480
0.954  14.375763
0.953  14.421697
0.952  14.428347
0.951  14.445093
0.950  14.425855
0.949  14.426963
0.948  14.384617
0.947  14.439279
0.946  14.396718
0.945  14.445449
0.944  14.451624
0.943  14.449315
0.942  14.436169
0.941  14.454857
0.940  14.466290
0.939  14.468516
0.938  14.454741
0.937  14.495423
0.936  14.478944
0.935  14.438760
0.934  14.423256
0.933  14.456400
0.932  14.498673
0.931  14.508469
0.930  14.461088
0.929  14.475466
0.928  14.524538
0.927  14.525922
0.926  14.522487
0.925  14.495873
0.924  14.512792
0.923  14.529521
0.922  14.514772
0.921  14.499344
0.920  14.560023
0.919  14.572620
0.918  14.526018
0.917  14.512869
0.916  14.511784
0.915  14.528811
0.914  14.612520
0.913  14.596643
0.912  14.604026
0.911  14.605541
0.910  14.611845
0.909  14.619953
0.908  14.657751
0.907  14.695126
0.906  14.691829
0.905  14.688705
0.904  14.704156
0.903  14.714508
0.902  14.813537
0.901  14.741076
0.900  14.741978
0.899  14.687348
0.898  14.763697
0.897  14.773334
0.896  14.783634
0.895  14.744343
0.894  14.827053
0.893  14.804688
0.892  14.869232
0.891  14.863163
0.890  14.875990
0.889  14.883753
0.888  14.933907
0.887  14.850199
0.886  14.927614
0.885  14.895683
0.884  14.954734
0.883  14.935466
0.882  14.992145
0.881  14.945245
0.880  14.963027
0.879  14.971331
0.878  15.004405
0.877  15.021389
0.876  15.070053
0.875  14.976534
0.874  15.014885
0.873  15.019063
0.872  15.019531
0.871  15.003226
0.870  15.098144
0.869  15.056133
0.868  15.032523
0.867  15.025053
0.866  15.110746
0.865  15.124652
0.864  15.087528
0.863  15.063578
0.862  15.118465
0.861  15.043564
0.860  15.326785
0.859  15.347150
0.858  15.347862
0.857  15.321379
0.856  15.354138
0.855  15.341729
0.854  15.357082
0.853  15.394507
0.852  15.417159
0.851  15.411319
0.850  15.424129
0.849  15.445604
0.848  15.430308
0.847  15.440145
0.846  15.462035
0.845  15.454546
0.844  15.453071
0.843  15.475771
0.842  15.484662
0.841  15.492118
0.840  15.505782
0.839  15.506542
0.838  15.505671
0.837  15.510990
0.836  15.518848
0.835  15.521724
0.834  15.527209
0.833  15.501749
0.832  15.525873
0.831  15.534243
0.830  15.530697
0.829  15.538912
0.828  15.555604
0.827  15.543013
0.826  15.555507
0.825  15.563374
0.824  15.567857
0.823  15.564095
0.822  15.557615
0.821  15.557952
0.820  15.558045
0.819  15.559380
0.818  15.558653
0.817  15.569357
0.816  15.577498
0.815  15.557024
0.814  15.575145
0.813  15.577516
0.812  15.572897
0.811  15.581212
0.810  15.594844
0.809  15.575921
0.808  15.598242
0.807  15.574836
0.806  15.578086
0.805  15.591691
0.804  15.584436
0.803  15.605290
0.802  15.585126
0.801  15.589583
0.800  15.578326
0.799  15.586124
0.798  15.581389
0.797  15.581974
0.796  15.587782
0.795  15.558167
0.794  15.568777
0.793  15.553859
0.792  15.558277
0.791  15.569928
0.790  15.555462
0.789  15.552754
0.788  15.558624
0.787  15.551220
0.786  15.548318
0.785  15.546492
0.784  15.552805
0.783  15.540058
0.782  15.528189
0.781  15.528068
0.780  15.533440
0.779  15.538799
0.778  15.521692
0.777  15.526967
0.776  15.523493
0.775  15.517338
0.774  15.505628
0.773  15.516190
0.772  15.498169
0.771  15.515578
0.770  15.502315
0.769  15.498972
0.768  15.515809
0.767  15.505958
0.766  15.501141
0.765  15.494249
0.764  15.495767
0.763  15.491527
0.762  15.478300
0.761  15.481325
0.760  15.478101
0.759  15.482116
0.758  15.477022
0.757  15.477493
0.756  15.465843
0.755  15.471288
0.754  15.462363
0.753  15.461392
0.752  15.452455
0.751  15.449685
0.750  15.446586
0.749  15.437847
0.748  15.444732
0.747  15.446958
0.746  15.440578
0.745  15.425881
0.744  15.424719
0.743  15.434852
0.742  15.421169
0.741  15.428618
0.740  15.416264
0.739  15.409275
0.738  15.418798
0.737  15.416796
0.736  15.408359
0.735  15.411842
0.734  15.409270
0.733  15.407246
0.732  15.403823
0.731  15.399443
0.730  15.399142
0.729  15.401557
0.728  15.396788
0.727  15.393191
0.726  15.392264
0.725  15.388368
0.724  15.389974
0.723  15.393687
0.722  15.393917
0.721  15.381570
0.720  15.381301
0.719  15.381421
0.718  15.373049
0.717  15.378393
0.716  15.376433
0.715  15.374010
0.714  15.367846
0.713  15.366483
0.712  15.367894
0.711  15.370233
0.710  15.370335
0.709  15.370162
0.708  15.364818
0.707  15.356046
0.706  15.362469
0.705  15.367358
0.704  15.364332
0.703  15.363889
0.702  15.362478
0.701  15.360470
0.700  15.357410
0.699  15.358995
0.698  15.356713
0.697  15.356157
0.696  15.358151
0.695  15.351369
0.694  15.348894
0.693  15.350823
0.692  15.354310
0.691  15.350331
0.690  15.348892
0.689  15.346544
0.688  15.348838
0.687  15.350891
0.686  15.351010
0.685  15.350969
0.684  15.354650
0.683  15.347292
0.682  15.347716
0.681  15.350740
0.680  15.346017
0.679  15.347857
0.678  15.347308
0.677  15.345243
0.676  15.347336
0.675  15.348333
0.674  15.348863
0.673  15.345859
0.672  15.344212
0.671  15.343576
0.670  15.340770
0.669  15.339784
0.668  15.344214
0.667  15.347867
0.666  15.344297
0.665  15.340689
0.664  15.341781
0.663  15.339242
0.662  15.338148
0.661  15.337934
0.660  15.339128
0.659  15.339442
0.658  15.340869
0.657  15.337723
0.656  15.336055
0.655  15.336268
0.654  15.337810
0.653  15.337802
0.652  15.335668
0.651  15.334090
0.650  15.336251
0.649  15.339159
0.648  15.337010
0.647  15.332215
0.646  15.326615
0.645  15.326000
0.644  15.328635
0.643  15.328836
0.642  15.328479
0.641  15.323517
0.640  15.322027
0.639  15.323131
0.638  15.321602
0.637  15.321087
0.636  15.324100
0.635  15.324222
0.634  15.320161
0.633  15.320174
0.632  15.321673
0.631  15.322744
0.630  15.315583
0.629  15.308174
0.628  15.306521
0.627  15.309847
0.626  15.310236
0.625  15.306889
0.624  15.302746
0.623  15.301157
0.622  15.303493
0.621  15.301859
0.620  15.298934
0.619  15.298884
0.618  15.299233
0.617  15.296428
0.616  15.290909
0.615  15.288050
0.614  15.288606
0.613  15.286705
0.612  15.283842
0.611  15.283935
0.610  15.282340
0.609  15.279953
0.608  15.276328
0.607  15.277186
0.606  15.274400
0.605  15.271449
0.604  15.268687
0.603  15.265228
0.602  15.261107
0.601  15.259419
0.600  15.257500
0.599  15.258291
0.598  15.257707
0.597  15.254755
0.596  15.256595
0.595  15.257022
0.594  15.254095
0.593  15.251757
0.592  15.251570
0.591  15.245921
0.590  15.239224
0.589  15.238703
0.588  15.236685
0.587  15.235558
0.586  15.229242
0.585  15.223708
0.584  15.220891
0.583  15.220354
0.582  15.214302
0.581  15.205436
0.580  15.197697
0.579  15.193339
0.578  15.193219
0.577  15.185718
0.576  15.179410
0.575  15.177481
0.574  15.176326
0.573  15.172158
0.572  15.167391
0.571  15.161503
0.570  15.155520
0.569  15.148275
0.568  15.146212
0.567  15.143357
0.566  15.139056
0.565  15.130183
0.564  15.125598
0.563  15.117749
0.562  15.109513
0.561  15.105900
0.560  15.103684
0.559  15.095979
0.558  15.087042
0.557  15.081371
0.556  15.071898
0.555  15.067578
0.554  15.062910
0.553  15.053601
0.552  15.044963
0.551  15.038147
0.550  15.034082
0.549  15.025844
0.548  15.014641
0.547  15.010791
0.546  15.003446
0.545  14.993557
0.544  14.983822
0.543  14.978524
0.542  14.968347
0.541  14.961349
0.540  14.952344
0.539  14.943057
0.538  14.936785
0.537  14.928417
0.536  14.919237
0.535  14.911867
0.534  14.905658
0.533  14.891293
0.532  14.879881
0.531  14.873311
0.530  14.865969
0.529  14.852641
0.528  14.847589
0.527  14.838454
0.526  14.827657
0.525  14.815945
0.524  14.808543
0.523  14.795830
0.522  14.792483
0.521  14.778923
0.520  14.769267
0.519  14.754536
0.518  14.747235
0.517  14.736125
0.516  14.721987
0.515  14.708052
0.514  14.702320
0.513  14.689654
0.512  14.678481
0.511  14.665484
0.510  14.656092
0.509  14.644683
0.508  14.634488
0.507  14.621284
0.506  14.612481
0.505  14.601671
0.504  14.582984
0.503  14.579814
0.502  14.567098
0.501  14.555300
0.500  14.545438
0.499  14.535947
0.498  14.520926
0.497  14.508735
0.496  14.496457
0.495  14.495414
0.494  14.475948
0.493  14.461899
0.492  14.459514
0.491  14.452911
0.490  14.438621
0.489  14.431083
0.488  14.425354
0.487  14.408977
0.486  14.391980
0.485  14.389371
0.484  14.375940
0.483  14.358740
0.482  14.349135
0.481  14.333182
0.480  14.320615
0.479  14.308133
0.478  14.285797
0.477  14.278334
0.476  14.265580
0.475  14.255740
0.474  14.241639
0.473  14.230975
0.472  14.216986
0.471  14.204521
0.470  14.195923
0.469  14.181519
0.468  14.168066
0.467  14.156367
0.466  14.142281
0.465  14.131579
0.464  14.118704
0.463  14.114359
0.462  14.096846
0.461  14.086934
0.460  14.071489
0.459  14.060933
0.458  14.046832
0.457  14.032956
0.456  14.021939
0.455  14.002195
0.454  13.988105
0.453  13.977102
0.452  13.964991
0.451  13.953412
0.450  13.939741
0.449  13.919212
0.448  13.907458
0.447  13.888320
0.446  13.872685
0.445  13.857907
0.444  13.841785
0.443  13.824836
0.442  13.805746
0.441  13.792906
0.440  13.773326
0.439  13.757119
0.438  13.737798
0.437  13.716162
0.436  13.703972
0.435  13.683935
0.434  13.662362
0.433  13.644071
0.432  13.629067
0.431  13.602476
0.430  13.580697
0.429  13.564029
0.428  13.545171
0.427  13.523706
0.426  13.502583
0.425  13.480268
0.424  13.461544
0.423  13.442172
0.422  13.416845
0.421  13.397691
0.420  13.381030
0.419  13.358245
0.418  13.338607
0.417  13.318014
0.416  13.301145
0.415  13.278422
0.414  13.261211
0.413  13.236596
0.412  13.214248
0.411  13.195094
0.410  13.178962
0.409  13.157258
0.408  13.137455
0.407  13.116460
0.406  13.088096
0.405  13.067553
0.404  13.047804
0.403  13.027067
0.402  12.996920
0.401  12.972026
0.400  12.953809
