Name: Muscovite-Biotite Granite
Type: Rock
Class: Igneous
Subclass:  Felsic 
Particle Size: Solid surface
Sample No.: Ward12.txt
Owner: JPL
Wavelength range:  VNIR SWIR IR 
Origin: Ward's Collection of American Rocks.  Sample locality - Concord, Merrimack County, New Hampshire.
Collected by:  Ward's Natural Science
Description: A light-colored medium-grained rock composed of feldspar,
quartz, muscovite and biotite.
Geologic age - Late Paleozoic.



Measurement: Hemispherical reflectance
First Column: X
Second Column: Y
X Units: Wavelength (micrometers)
Y Units: Reflectance (percent)
First X Value: 2.500
Last X Value: 0.400
Number of X Values: 2101
Additional information: None

2.500  22.693988
2.499  22.776767
2.498  22.730739
2.497  23.040056
2.496  22.360454
2.495  22.977431
2.494  22.610162
2.493  22.745852
2.492  22.714486
2.491  22.736208
2.490  22.669831
2.489  22.732333
2.488  22.646666
2.487  22.714416
2.486  22.548761
2.485  22.739015
2.484  22.532223
2.483  22.621491
2.482  22.593720
2.481  22.551716
2.480  22.665241
2.479  22.699880
2.478  22.481532
2.477  22.633343
2.476  22.542661
2.475  22.604860
2.474  22.514115
2.473  22.598223
2.472  22.461913
2.471  22.498845
2.470  22.428228
2.469  22.409018
2.468  22.416289
2.467  22.470230
2.466  22.295636
2.465  22.400400
2.464  22.234489
2.463  22.409587
2.462  22.141175
2.461  22.404209
2.460  22.257025
2.459  22.227267
2.458  22.201741
2.457  22.194996
2.456  22.166253
2.455  22.168392
2.454  22.036925
2.453  22.228387
2.452  22.081375
2.451  22.166714
2.450  22.072837
2.449  22.161748
2.448  21.993327
2.447  22.087880
2.446  22.041756
2.445  22.144654
2.444  22.030408
2.443  22.087235
2.442  22.053077
2.441  22.196928
2.440  22.071324
2.439  22.145752
2.438  22.048411
2.437  22.136798
2.436  22.160719
2.435  22.112872
2.434  22.186840
2.433  22.294028
2.432  22.241829
2.431  22.352946
2.430  22.321349
2.429  22.333151
2.428  22.378263
2.427  22.422536
2.426  22.349449
2.425  22.511855
2.424  22.509674
2.423  22.571463
2.422  22.599705
2.421  22.640299
2.420  22.634246
2.419  22.678907
2.418  22.673934
2.417  22.875695
2.416  22.868646
2.415  22.938195
2.414  22.920704
2.413  23.031510
2.412  23.004981
2.411  23.050598
2.410  23.095635
2.409  23.119226
2.408  23.052849
2.407  23.229246
2.406  23.187360
2.405  23.222889
2.404  23.306436
2.403  23.431930
2.402  23.291900
2.401  23.385220
2.400  23.356837
2.399  23.378627
2.398  23.332728
2.397  23.433536
2.396  23.449952
2.395  23.477669
2.394  23.461886
2.393  23.486182
2.392  23.450050
2.391  23.519406
2.390  23.478542
2.389  23.466469
2.388  23.492020
2.387  23.519761
2.386  23.466832
2.385  23.483521
2.384  23.453414
2.383  23.483299
2.382  23.415207
2.381  23.434920
2.380  23.471357
2.379  23.461063
2.378  23.444561
2.377  23.469754
2.376  23.399157
2.375  23.451251
2.374  23.395232
2.373  23.441715
2.372  23.385121
2.371  23.335568
2.370  23.287396
2.369  23.285832
2.368  23.287640
2.367  23.263632
2.366  23.239899
2.365  23.266954
2.364  23.225303
2.363  23.123900
2.362  23.166928
2.361  23.183648
2.360  23.078338
2.359  23.072184
2.358  23.068053
2.357  23.090746
2.356  23.077340
2.355  23.022373
2.354  22.990834
2.353  22.958052
2.352  23.009647
2.351  23.006543
2.350  22.952741
2.349  22.969254
2.348  23.027718
2.347  23.034440
2.346  23.039426
2.345  23.092527
2.344  23.157404
2.343  23.192259
2.342  23.280878
2.341  23.309560
2.340  23.341767
2.339  23.404969
2.338  23.515506
2.337  23.563712
2.336  23.670364
2.335  23.772682
2.334  23.842507
2.333  23.843339
2.332  23.979557
2.331  24.113370
2.330  24.253726
2.329  24.346810
2.328  24.450720
2.327  24.519088
2.326  24.634949
2.325  24.711943
2.324  24.887497
2.323  24.978885
2.322  25.070099
2.321  25.143845
2.320  25.291815
2.319  25.414006
2.318  25.607716
2.317  25.678699
2.316  25.809743
2.315  25.903523
2.314  26.027848
2.313  26.105212
2.312  26.260735
2.311  26.366219
2.310  26.497827
2.309  26.597724
2.308  26.754927
2.307  26.808532
2.306  26.906945
2.305  27.016537
2.304  27.174817
2.303  27.224841
2.302  27.342277
2.301  27.423809
2.300  27.541018
2.299  27.601178
2.298  27.648655
2.297  27.701166
2.296  27.840388
2.295  27.869023
2.294  27.901281
2.293  27.970407
2.292  28.028329
2.291  28.100064
2.290  28.230392
2.289  28.150109
2.288  28.224053
2.287  28.180203
2.286  28.247164
2.285  28.297619
2.284  28.281450
2.283  28.307210
2.282  28.325827
2.281  28.255601
2.280  28.296785
2.279  28.243929
2.278  28.248680
2.277  28.224333
2.276  28.247808
2.275  28.206767
2.274  28.229371
2.273  28.114526
2.272  28.129833
2.271  28.025233
2.270  28.085571
2.269  28.011579
2.268  28.032085
2.267  27.902782
2.266  27.874541
2.265  27.810572
2.264  27.770347
2.263  27.606886
2.262  27.665221
2.261  27.585088
2.260  27.536517
2.259  27.445684
2.258  27.469636
2.257  27.404427
2.256  27.397610
2.255  27.337213
2.254  27.396460
2.253  27.223662
2.252  27.272395
2.251  27.194581
2.250  27.155937
2.249  27.094455
2.248  27.196144
2.247  27.082109
2.246  27.143165
2.245  27.048163
2.244  27.111336
2.243  27.080256
2.242  27.074587
2.241  26.967553
2.240  27.035135
2.239  26.880943
2.238  26.967139
2.237  26.845144
2.236  26.841367
2.235  26.690815
2.234  26.704634
2.233  26.646349
2.232  26.650957
2.231  26.448215
2.230  26.328333
2.229  26.260315
2.228  26.114304
2.227  26.037622
2.226  25.920135
2.225  25.740974
2.224  25.628972
2.223  25.491315
2.222  25.346117
2.221  25.117230
2.220  25.153635
2.219  24.915543
2.218  24.909057
2.217  24.577863
2.216  24.617589
2.215  24.580610
2.214  24.543963
2.213  24.303456
2.212  24.419519
2.211  24.125765
2.210  24.314711
2.209  24.199356
2.208  24.127615
2.207  24.127142
2.206  24.244611
2.205  24.094531
2.204  24.203240
2.203  24.177553
2.202  24.244803
2.201  24.315966
2.200  24.502562
2.199  24.430095
2.198  24.578975
2.197  24.683053
2.196  24.792020
2.195  24.857418
2.194  25.016857
2.193  25.081505
2.192  25.381196
2.191  25.517446
2.190  25.667245
2.189  25.811703
2.188  26.005977
2.187  26.137998
2.186  26.369508
2.185  26.482860
2.184  26.794236
2.183  26.810262
2.182  27.189413
2.181  27.322622
2.180  27.518104
2.179  27.715617
2.178  27.969869
2.177  28.092775
2.176  28.315750
2.175  28.452997
2.174  28.646876
2.173  28.728542
2.172  28.946345
2.171  29.009174
2.170  29.235208
2.169  29.312640
2.168  29.530440
2.167  29.527614
2.166  29.717920
2.165  29.723851
2.164  29.888815
2.163  30.014504
2.162  30.142446
2.161  30.101952
2.160  30.295098
2.159  30.234012
2.158  30.363550
2.157  30.393644
2.156  30.537566
2.155  30.532267
2.154  30.658972
2.153  30.667774
2.152  30.714652
2.151  30.729573
2.150  30.809665
2.149  30.808594
2.148  30.911044
2.147  30.870362
2.146  30.907742
2.145  30.892055
2.144  31.025064
2.143  30.989113
2.142  30.981304
2.141  31.030599
2.140  31.051846
2.139  30.981001
2.138  31.006077
2.137  30.983647
2.136  31.072498
2.135  30.982868
2.134  31.012492
2.133  30.958130
2.132  30.930685
2.131  30.863314
2.130  30.924651
2.129  30.859474
2.128  30.818697
2.127  30.756783
2.126  30.781906
2.125  30.757436
2.124  30.740876
2.123  30.687671
2.122  30.724562
2.121  30.705567
2.120  30.733652
2.119  30.638933
2.118  30.684852
2.117  30.695353
2.116  30.683105
2.115  30.664872
2.114  30.676773
2.113  30.646922
2.112  30.743601
2.111  30.691326
2.110  30.700881
2.109  30.717624
2.108  30.782825
2.107  30.722546
2.106  30.785707
2.105  30.798460
2.104  30.827361
2.103  30.812265
2.102  30.869827
2.101  30.875035
2.100  30.917581
2.099  30.979085
2.098  31.024502
2.097  31.011575
2.096  31.108963
2.095  31.144706
2.094  31.155270
2.093  31.208013
2.092  31.347661
2.091  31.327171
2.090  31.346184
2.089  31.426506
2.088  31.505908
2.087  31.524776
2.086  31.547840
2.085  31.568525
2.084  31.619252
2.083  31.643379
2.082  31.704119
2.081  31.716336
2.080  31.709025
2.079  31.742191
2.078  31.792136
2.077  31.808207
2.076  31.815136
2.075  31.825815
2.074  31.851959
2.073  31.827490
2.072  31.835596
2.071  31.887357
2.070  31.836847
2.069  31.848935
2.068  31.887081
2.067  31.857551
2.066  31.852656
2.065  31.884706
2.064  31.847796
2.063  31.822662
2.062  31.834137
2.061  31.909882
2.060  31.914646
2.059  31.873809
2.058  31.910235
2.057  31.901211
2.056  31.853074
2.055  31.857987
2.054  31.881481
2.053  31.882138
2.052  31.814824
2.051  31.823046
2.050  31.883050
2.049  31.898411
2.048  31.847414
2.047  31.892097
2.046  31.865269
2.045  31.864977
2.044  31.852352
2.043  31.861702
2.042  31.869575
2.041  31.847201
2.040  31.836665
2.039  31.829292
2.038  31.851911
2.037  31.841645
2.036  31.776640
2.035  31.860628
2.034  31.841761
2.033  31.851359
2.032  31.807696
2.031  31.833678
2.030  31.786111
2.029  31.791711
2.028  31.719797
2.027  31.757297
2.026  31.754653
2.025  31.746894
2.024  31.708676
2.023  31.762105
2.022  31.701943
2.021  31.754652
2.020  31.750211
2.019  31.738004
2.018  31.717742
2.017  31.725732
2.016  31.675124
2.015  31.703852
2.014  31.689585
2.013  31.684112
2.012  31.559494
2.011  31.674485
2.010  31.580718
2.009  31.631112
2.008  31.570476
2.007  31.592399
2.006  31.567383
2.005  31.647790
2.004  31.576001
2.003  31.607221
2.002  31.540111
2.001  31.620990
2.000  31.598835
1.999  31.572535
1.998  31.484664
1.997  31.577454
1.996  31.518489
1.995  31.573630
1.994  31.484841
1.993  31.570460
1.992  31.558477
1.991  31.558494
1.990  31.595655
1.989  31.609579
1.988  31.499249
1.987  31.644076
1.986  31.561655
1.985  31.598090
1.984  31.562916
1.983  31.588261
1.982  31.516789
1.981  31.563096
1.980  31.565329
1.979  31.564754
1.978  31.536985
1.977  31.575620
1.976  31.531459
1.975  31.528493
1.974  31.505251
1.973  31.525855
1.972  31.494080
1.971  31.559030
1.970  31.467240
1.969  31.550808
1.968  31.526718
1.967  31.628452
1.966  31.509234
1.965  31.486573
1.964  31.521919
1.963  31.559770
1.962  31.484643
1.961  31.499855
1.960  31.503839
1.959  31.525939
1.958  31.404956
1.957  31.463323
1.956  31.494726
1.955  31.547898
1.954  31.416533
1.953  31.580158
1.952  31.518073
1.951  31.499539
1.950  31.532108
1.949  31.532710
1.948  31.537477
1.947  31.498754
1.946  31.491578
1.945  31.506323
1.944  31.542050
1.943  31.586908
1.942  31.553837
1.941  31.627170
1.940  31.443253
1.939  31.683231
1.938  31.552640
1.937  31.715690
1.936  31.600282
1.935  31.626236
1.934  31.554254
1.933  31.571057
1.932  31.483201
1.931  31.629968
1.930  31.527921
1.929  31.579660
1.928  31.582157
1.927  31.685933
1.926  31.389343
1.925  31.725257
1.924  31.506340
1.923  31.543053
1.922  31.401274
1.921  31.501519
1.920  31.470768
1.919  31.497833
1.918  31.423371
1.917  31.453094
1.916  31.398547
1.915  31.454754
1.914  31.400156
1.913  31.372000
1.912  31.480716
1.911  31.506369
1.910  31.418185
1.909  31.540756
1.908  31.424492
1.907  31.554161
1.906  31.517841
1.905  31.589394
1.904  31.640747
1.903  31.642918
1.902  31.536150
1.901  31.623050
1.900  31.567775
1.899  31.663010
1.898  31.679061
1.897  31.695783
1.896  31.719522
1.895  31.812093
1.894  31.786227
1.893  31.873937
1.892  31.887903
1.891  31.930199
1.890  31.888583
1.889  31.998584
1.888  31.961645
1.887  32.014003
1.886  32.049763
1.885  32.143198
1.884  32.018625
1.883  32.115503
1.882  32.119663
1.881  32.234105
1.880  32.196914
1.879  32.262422
1.878  32.284823
1.877  32.384576
1.876  32.291360
1.875  32.428021
1.874  32.455356
1.873  32.478102
1.872  32.403380
1.871  32.371742
1.870  32.285111
1.869  32.260368
1.868  32.189226
1.867  32.206110
1.866  32.191295
1.865  32.243628
1.864  32.284307
1.863  32.303127
1.862  32.262846
1.861  32.295667
1.860  32.271305
1.859  32.266611
1.858  32.177726
1.857  32.201245
1.856  32.131842
1.855  32.149286
1.854  32.180482
1.853  32.265637
1.852  32.197271
1.851  32.172803
1.850  32.125956
1.849  32.173575
1.848  32.115245
1.847  32.078281
1.846  32.047104
1.845  32.091155
1.844  32.050323
1.843  32.159159
1.842  32.139789
1.841  32.147858
1.840  32.121885
1.839  32.143372
1.838  32.099559
1.837  32.047216
1.836  32.031446
1.835  32.090561
1.834  32.053004
1.833  32.027071
1.832  32.002379
1.831  32.043564
1.830  32.029747
1.829  32.011613
1.828  31.976924
1.827  32.013753
1.826  31.988937
1.825  31.975989
1.824  32.067743
1.823  32.073961
1.822  32.004268
1.821  32.057990
1.820  32.006725
1.819  31.940977
1.818  31.941546
1.817  31.984220
1.816  31.971820
1.815  31.997636
1.814  32.000487
1.813  32.024765
1.812  31.985101
1.811  31.934839
1.810  31.964292
1.809  31.997212
1.808  31.993155
1.807  31.979508
1.806  31.925572
1.805  31.953837
1.804  31.972439
1.803  31.935544
1.802  31.896120
1.801  31.910223
1.800  31.850438
1.799  31.882141
1.798  31.918981
1.797  31.874219
1.796  31.863574
1.795  31.917592
1.794  31.907993
1.793  31.899586
1.792  31.865278
1.791  31.855815
1.790  31.831327
1.789  31.796389
1.788  31.815455
1.787  31.820492
1.786  31.824832
1.785  31.834242
1.784  31.833364
1.783  31.823802
1.782  31.805674
1.781  31.795665
1.780  31.808608
1.779  31.781603
1.778  31.780413
1.777  31.742042
1.776  31.760867
1.775  31.804649
1.774  31.803152
1.773  31.753879
1.772  31.732153
1.771  31.707379
1.770  31.717593
1.769  31.755132
1.768  31.735014
1.767  31.725389
1.766  31.734651
1.765  31.726176
1.764  31.743989
1.763  31.760745
1.762  31.702876
1.761  31.660000
1.760  31.734081
1.759  31.703786
1.758  31.692578
1.757  31.705965
1.756  31.677293
1.755  31.652224
1.754  31.685017
1.753  31.663147
1.752  31.658709
1.751  31.585389
1.750  31.593087
1.749  31.624007
1.748  31.675587
1.747  31.635578
1.746  31.673404
1.745  31.612628
1.744  31.639360
1.743  31.627527
1.742  31.616181
1.741  31.589515
1.740  31.644788
1.739  31.617955
1.738  31.647043
1.737  31.584821
1.736  31.570485
1.735  31.569244
1.734  31.647082
1.733  31.559165
1.732  31.604952
1.731  31.555464
1.730  31.519179
1.729  31.518777
1.728  31.556984
1.727  31.548894
1.726  31.560116
1.725  31.556873
1.724  31.554108
1.723  31.512630
1.722  31.507735
1.721  31.478823
1.720  31.491859
1.719  31.458584
1.718  31.508064
1.717  31.403679
1.716  31.518579
1.715  31.379500
1.714  31.375660
1.713  31.427692
1.712  31.418119
1.711  31.387090
1.710  31.408925
1.709  31.329319
1.708  31.373130
1.707  31.329015
1.706  31.431835
1.705  31.356320
1.704  31.283175
1.703  31.326692
1.702  31.353519
1.701  31.338470
1.700  31.374795
1.699  31.290124
1.698  31.237466
1.697  31.287675
1.696  31.232747
1.695  31.182457
1.694  31.221427
1.693  31.146317
1.692  31.220266
1.691  31.144475
1.690  31.224833
1.689  31.189456
1.688  31.216354
1.687  31.140895
1.686  31.200425
1.685  31.104274
1.684  31.142513
1.683  31.055890
1.682  31.192452
1.681  31.079252
1.680  31.110184
1.679  31.037965
1.678  31.172292
1.677  30.973803
1.676  31.006373
1.675  31.009787
1.674  31.082917
1.673  30.941838
1.672  31.007411
1.671  31.007972
1.670  31.036608
1.669  31.070556
1.668  30.843455
1.667  30.923925
1.666  30.849930
1.665  30.881245
1.664  30.944006
1.663  30.871950
1.662  30.926830
1.661  30.825619
1.660  30.838379
1.659  30.867635
1.658  30.813678
1.657  30.808007
1.656  30.922298
1.655  30.803946
1.654  30.816101
1.653  30.808985
1.652  30.848569
1.651  30.730043
1.650  30.846602
1.649  30.769950
1.648  30.793347
1.647  30.801685
1.646  30.844693
1.645  30.736528
1.644  30.791219
1.643  30.665294
1.642  30.782921
1.641  30.544134
1.640  30.753501
1.639  30.713237
1.638  30.738258
1.637  30.685602
1.636  30.665072
1.635  30.603246
1.634  30.710839
1.633  30.617120
1.632  30.631028
1.631  30.612899
1.630  30.756066
1.629  30.532772
1.628  30.654472
1.627  30.531789
1.626  30.648745
1.625  30.512784
1.624  30.635820
1.623  30.533843
1.622  30.580807
1.621  30.466607
1.620  30.628625
1.619  30.403152
1.618  30.521735
1.617  30.412765
1.616  30.605704
1.615  30.538099
1.614  30.603145
1.613  30.409631
1.612  30.522314
1.611  30.436850
1.610  30.475760
1.609  30.402518
1.608  30.457775
1.607  30.350239
1.606  30.500654
1.605  30.338252
1.604  30.446341
1.603  30.405645
1.602  30.416953
1.601  30.320099
1.600  30.394238
1.599  30.336752
1.598  30.358811
1.597  30.348670
1.596  30.352866
1.595  30.278966
1.594  30.340842
1.593  30.295003
1.592  30.404516
1.591  30.213140
1.590  30.316668
1.589  30.288227
1.588  30.272485
1.587  30.251113
1.586  30.296137
1.585  30.279400
1.584  30.215907
1.583  30.146900
1.582  30.226678
1.581  30.106733
1.580  30.234175
1.579  30.183279
1.578  30.208489
1.577  30.082193
1.576  30.141688
1.575  30.122399
1.574  30.146970
1.573  30.106559
1.572  30.169031
1.571  30.067164
1.570  30.110625
1.569  30.063555
1.568  30.070915
1.567  29.997127
1.566  30.112028
1.565  30.017491
1.564  30.070478
1.563  30.011445
1.562  29.972412
1.561  30.028630
1.560  30.057098
1.559  29.978445
1.558  30.023909
1.557  29.971605
1.556  29.939999
1.555  29.872493
1.554  29.914939
1.553  29.871719
1.552  29.968884
1.551  29.937917
1.550  29.883465
1.549  29.827509
1.548  29.879784
1.547  29.852171
1.546  29.868832
1.545  29.884417
1.544  29.857824
1.543  29.872773
1.542  29.855370
1.541  29.798039
1.540  29.811389
1.539  29.806682
1.538  29.857449
1.537  29.782143
1.536  29.790011
1.535  29.724462
1.534  29.748069
1.533  29.755128
1.532  29.742456
1.531  29.707279
1.530  29.692915
1.529  29.710577
1.528  29.733877
1.527  29.656378
1.526  29.710713
1.525  29.672556
1.524  29.662400
1.523  29.689613
1.522  29.664024
1.521  29.675989
1.520  29.685829
1.519  29.649255
1.518  29.623028
1.517  29.618107
1.516  29.627677
1.515  29.593091
1.514  29.607119
1.513  29.574651
1.512  29.601312
1.511  29.540801
1.510  29.492505
1.509  29.517779
1.508  29.515372
1.507  29.504078
1.506  29.495185
1.505  29.493467
1.504  29.481971
1.503  29.470682
1.502  29.427895
1.501  29.418771
1.500  29.463480
1.499  29.451273
1.498  29.417727
1.497  29.428602
1.496  29.385359
1.495  29.377640
1.494  29.392285
1.493  29.373829
1.492  29.337303
1.491  29.361924
1.490  29.329684
1.489  29.317030
1.488  29.334624
1.487  29.323107
1.486  29.323844
1.485  29.302565
1.484  29.255769
1.483  29.265739
1.482  29.251114
1.481  29.227240
1.480  29.223232
1.479  29.221179
1.478  29.214607
1.477  29.228697
1.476  29.169281
1.475  29.202113
1.474  29.199652
1.473  29.201970
1.472  29.161848
1.471  29.170106
1.470  29.100485
1.469  29.075382
1.468  29.045616
1.467  29.112834
1.466  29.041038
1.465  29.047210
1.464  29.005350
1.463  29.009337
1.462  28.961111
1.461  29.020675
1.460  29.027339
1.459  28.946115
1.458  28.911898
1.457  28.930467
1.456  28.944527
1.455  28.963927
1.454  28.859278
1.453  28.861280
1.452  28.854049
1.451  28.885119
1.450  28.780625
1.449  28.805325
1.448  28.818316
1.447  28.773001
1.446  28.710442
1.445  28.821767
1.444  28.705625
1.443  28.736529
1.442  28.629185
1.441  28.659629
1.440  28.532493
1.439  28.558664
1.438  28.461609
1.437  28.457471
1.436  28.359649
1.435  28.348544
1.434  28.186592
1.433  28.157593
1.432  27.958174
1.431  27.824729
1.430  27.752641
1.429  27.639293
1.428  27.423291
1.427  27.276300
1.426  27.049159
1.425  26.853023
1.424  26.553899
1.423  26.416011
1.422  26.219251
1.421  26.078157
1.420  25.775761
1.419  25.491676
1.418  25.263521
1.417  25.180301
1.416  24.975255
1.415  24.814110
1.414  24.639795
1.413  24.697967
1.412  24.618875
1.411  24.812295
1.410  24.824846
1.409  24.899378
1.408  24.962564
1.407  25.030816
1.406  25.068879
1.405  25.240306
1.404  25.322423
1.403  25.489167
1.402  25.530846
1.401  25.700392
1.400  25.758563
1.399  26.027292
1.398  26.235127
1.397  26.563047
1.396  26.711123
1.395  26.905403
1.394  27.040849
1.393  27.244656
1.392  27.338255
1.391  27.624340
1.390  27.711176
1.389  27.777418
1.388  27.759475
1.387  27.921540
1.386  27.899144
1.385  28.129234
1.384  28.038062
1.383  28.127389
1.382  28.074202
1.381  28.034449
1.380  27.974344
1.379  28.175870
1.378  28.096793
1.377  28.265580
1.376  28.098653
1.375  28.282427
1.374  28.113152
1.373  28.326300
1.372  28.195232
1.371  28.219153
1.370  28.181956
1.369  28.252822
1.368  28.163381
1.367  28.290972
1.366  28.173401
1.365  28.331202
1.364  28.197826
1.363  28.307151
1.362  28.127541
1.361  28.257137
1.360  28.159167
1.359  28.202760
1.358  28.164156
1.357  28.253653
1.356  28.199795
1.355  27.967845
1.354  28.062939
1.353  28.149902
1.352  28.074585
1.351  28.149553
1.350  28.088596
1.349  28.047117
1.348  28.036224
1.347  28.044845
1.346  27.902821
1.345  28.076493
1.344  27.968709
1.343  28.031261
1.342  27.950673
1.341  28.011168
1.340  27.867929
1.339  27.963304
1.338  27.811176
1.337  27.948080
1.336  27.798794
1.335  27.856779
1.334  27.877307
1.333  27.830588
1.332  27.806039
1.331  27.876300
1.330  27.805404
1.329  27.807035
1.328  27.746008
1.327  27.814333
1.326  27.670978
1.325  27.719620
1.324  27.782811
1.323  27.761474
1.322  27.661854
1.321  27.771146
1.320  27.696319
1.319  27.662211
1.318  27.589195
1.317  27.669217
1.316  27.574020
1.315  27.648150
1.314  27.607910
1.313  27.671876
1.312  27.591551
1.311  27.613061
1.310  27.522823
1.309  27.562374
1.308  27.492368
1.307  27.589450
1.306  27.455131
1.305  27.497446
1.304  27.459058
1.303  27.552622
1.302  27.455921
1.301  27.510067
1.300  27.479029
1.299  27.479133
1.298  27.423591
1.297  27.404454
1.296  27.391150
1.295  27.478890
1.294  27.402084
1.293  27.455529
1.292  27.429450
1.291  27.396632
1.290  27.352065
1.289  27.386123
1.288  27.374097
1.287  27.431378
1.286  27.383490
1.285  27.376693
1.284  27.329781
1.283  27.399136
1.282  27.357976
1.281  27.358403
1.280  27.306695
1.279  27.321882
1.278  27.254630
1.277  27.250716
1.276  27.224382
1.275  27.271600
1.274  27.239870
1.273  27.257133
1.272  27.267368
1.271  27.289006
1.270  27.219625
1.269  27.187990
1.268  27.154322
1.267  27.180998
1.266  27.182127
1.265  27.154740
1.264  27.137747
1.263  27.118410
1.262  27.042801
1.261  27.068085
1.260  27.024352
1.259  27.122832
1.258  27.135827
1.257  27.080924
1.256  27.014884
1.255  27.018125
1.254  26.991249
1.253  27.036493
1.252  27.011464
1.251  27.047371
1.250  26.976428
1.249  27.011715
1.248  26.994271
1.247  26.949467
1.246  26.910979
1.245  26.979395
1.244  26.940724
1.243  26.909749
1.242  26.903148
1.241  26.876781
1.240  26.881616
1.239  26.945209
1.238  26.913330
1.237  26.902521
1.236  26.882570
1.235  26.834818
1.234  26.816865
1.233  26.827663
1.232  26.779336
1.231  26.780501
1.230  26.799889
1.229  26.815881
1.228  26.764943
1.227  26.781439
1.226  26.770026
1.225  26.744212
1.224  26.757467
1.223  26.753058
1.222  26.737136
1.221  26.745168
1.220  26.707780
1.219  26.723101
1.218  26.721102
1.217  26.716374
1.216  26.701171
1.215  26.718995
1.214  26.657672
1.213  26.628209
1.212  26.676817
1.211  26.647300
1.210  26.661479
1.209  26.654412
1.208  26.631112
1.207  26.658841
1.206  26.634684
1.205  26.600815
1.204  26.654518
1.203  26.606286
1.202  26.583037
1.201  26.541654
1.200  26.533646
1.199  26.572768
1.198  26.604236
1.197  26.560296
1.196  26.510257
1.195  26.499967
1.194  26.513223
1.193  26.443333
1.192  26.460381
1.191  26.488498
1.190  26.519669
1.189  26.569957
1.188  26.459772
1.187  26.406580
1.186  26.429416
1.185  26.450673
1.184  26.453290
1.183  26.411647
1.182  26.422844
1.181  26.440647
1.180  26.456420
1.179  26.397687
1.178  26.392281
1.177  26.390271
1.176  26.448846
1.175  26.400307
1.174  26.435479
1.173  26.437339
1.172  26.403944
1.171  26.358467
1.170  26.446178
1.169  26.403020
1.168  26.383511
1.167  26.379331
1.166  26.364451
1.165  26.342097
1.164  26.396815
1.163  26.331539
1.162  26.348117
1.161  26.358773
1.160  26.367049
1.159  26.336320
1.158  26.379718
1.157  26.314767
1.156  26.394834
1.155  26.313112
1.154  26.327181
1.153  26.324777
1.152  26.362150
1.151  26.301486
1.150  26.332115
1.149  26.245944
1.148  26.385784
1.147  26.268898
1.146  26.364601
1.145  26.306178
1.144  26.358054
1.143  26.288018
1.142  26.332845
1.141  26.253004
1.140  26.285595
1.139  26.316190
1.138  26.397172
1.137  26.276025
1.136  26.396686
1.135  26.171446
1.134  26.239142
1.133  26.245797
1.132  26.260777
1.131  26.274760
1.130  26.348927
1.129  26.270441
1.128  26.345882
1.127  26.250919
1.126  26.368154
1.125  26.288525
1.124  26.408564
1.123  26.276948
1.122  26.305605
1.121  26.236511
1.120  26.243337
1.119  26.269033
1.118  26.274100
1.117  26.218577
1.116  26.272296
1.115  26.265705
1.114  26.360572
1.113  26.380218
1.112  26.268815
1.111  26.332542
1.110  26.318268
1.109  26.282463
1.108  26.394311
1.107  26.300901
1.106  26.363421
1.105  26.314656
1.104  26.417481
1.103  26.320476
1.102  26.309559
1.101  26.320040
1.100  26.305940
1.099  26.296813
1.098  26.346525
1.097  26.280229
1.096  26.309807
1.095  26.387145
1.094  26.377838
1.093  26.412203
1.092  26.392740
1.091  26.357665
1.090  26.430959
1.089  26.300517
1.088  26.455381
1.087  26.350482
1.086  26.468198
1.085  26.306239
1.084  26.472609
1.083  26.355393
1.082  26.450167
1.081  26.380337
1.080  26.422016
1.079  26.384969
1.078  26.450908
1.077  26.402785
1.076  26.466834
1.075  26.468848
1.074  26.547331
1.073  26.346693
1.072  26.488410
1.071  26.487012
1.070  26.391290
1.069  26.460108
1.068  26.562840
1.067  26.474233
1.066  26.442771
1.065  26.490637
1.064  26.525544
1.063  26.447492
1.062  26.608573
1.061  26.464700
1.060  26.583622
1.059  26.515083
1.058  26.526148
1.057  26.541717
1.056  26.598676
1.055  26.578212
1.054  26.581892
1.053  26.523878
1.052  26.692729
1.051  26.432559
1.050  26.601754
1.049  26.598226
1.048  26.664469
1.047  26.557033
1.046  26.663665
1.045  26.626494
1.044  26.670494
1.043  26.696087
1.042  26.712175
1.041  26.575703
1.040  26.728239
1.039  26.653647
1.038  26.765223
1.037  26.669582
1.036  26.679544
1.035  26.641154
1.034  26.731346
1.033  26.646136
1.032  26.745325
1.031  26.716192
1.030  26.760954
1.029  26.742495
1.028  26.805277
1.027  26.690568
1.026  26.786915
1.025  26.690401
1.024  26.836660
1.023  26.773965
1.022  26.851649
1.021  26.665798
1.020  26.785375
1.019  26.794429
1.018  26.830539
1.017  26.757392
1.016  26.827003
1.015  26.793409
1.014  26.830624
1.013  26.762153
1.012  26.834010
1.011  26.785600
1.010  26.869964
1.009  26.793227
1.008  26.834186
1.007  26.763049
1.006  26.920563
1.005  26.883356
1.004  26.838072
1.003  26.860695
1.002  26.934456
1.001  26.883422
1.000  26.912531
0.999  26.845073
0.998  26.917709
0.997  26.828736
0.996  26.899374
0.995  26.826706
0.994  26.939894
0.993  26.848883
0.992  26.851935
0.991  26.835576
0.990  26.876284
0.989  26.807254
0.988  26.920595
0.987  26.907429
0.986  26.903008
0.985  26.817718
0.984  26.866249
0.983  26.895237
0.982  26.846171
0.981  26.875765
0.980  26.859313
0.979  26.847579
0.978  26.901129
0.977  26.832066
0.976  26.842372
0.975  26.854769
0.974  26.861812
0.973  26.888291
0.972  26.853248
0.971  26.812755
0.970  26.823922
0.969  26.801160
0.968  26.773832
0.967  26.744421
0.966  26.803872
0.965  26.771499
0.964  26.758001
0.963  26.795761
0.962  26.803577
0.961  26.772940
0.960  26.820247
0.959  26.821523
0.958  26.833164
0.957  26.853112
0.956  26.836230
0.955  26.816753
0.954  26.868303
0.953  26.886867
0.952  26.887089
0.951  26.843618
0.950  26.919870
0.949  26.883231
0.948  26.800713
0.947  26.796842
0.946  26.878093
0.945  26.861349
0.944  26.851511
0.943  26.861164
0.942  26.934382
0.941  26.901098
0.940  26.881566
0.939  26.865207
0.938  26.889359
0.937  26.881541
0.936  26.887568
0.935  26.910804
0.934  26.889982
0.933  26.857984
0.932  26.840932
0.931  26.905618
0.930  26.910536
0.929  26.848745
0.928  26.884422
0.927  26.891812
0.926  26.908095
0.925  26.949997
0.924  26.974382
0.923  27.086511
0.922  27.056127
0.921  26.993433
0.920  27.010616
0.919  27.016893
0.918  27.033859
0.917  27.065172
0.916  27.074381
0.915  27.071745
0.914  27.089242
0.913  27.144396
0.912  27.092435
0.911  27.097938
0.910  27.135554
0.909  27.159377
0.908  27.186660
0.907  27.214383
0.906  27.191104
0.905  27.256385
0.904  27.246232
0.903  27.221704
0.902  27.215674
0.901  27.298036
0.900  27.291631
0.899  27.363078
0.898  27.361606
0.897  27.332808
0.896  27.324015
0.895  27.446369
0.894  27.448443
0.893  27.459917
0.892  27.457086
0.891  27.511668
0.890  27.523393
0.889  27.563406
0.888  27.560875
0.887  27.602537
0.886  27.563863
0.885  27.654665
0.884  27.691126
0.883  27.758576
0.882  27.671266
0.881  27.758535
0.880  27.750743
0.879  27.821378
0.878  27.834145
0.877  27.924479
0.876  27.963476
0.875  27.979539
0.874  27.965476
0.873  28.031341
0.872  28.000053
0.871  28.092593
0.870  28.067413
0.869  28.114583
0.868  28.088332
0.867  28.170129
0.866  28.115937
0.865  28.240997
0.864  28.180962
0.863  28.292498
0.862  28.307226
0.861  28.321733
0.860  28.531682
0.859  28.555307
0.858  28.558480
0.857  28.577458
0.856  28.559555
0.855  28.602796
0.854  28.601397
0.853  28.597954
0.852  28.625745
0.851  28.655271
0.850  28.644587
0.849  28.684924
0.848  28.679105
0.847  28.687396
0.846  28.700983
0.845  28.707856
0.844  28.711350
0.843  28.725451
0.842  28.732981
0.841  28.732986
0.840  28.750864
0.839  28.762331
0.838  28.777987
0.837  28.765084
0.836  28.774738
0.835  28.776692
0.834  28.806502
0.833  28.818988
0.832  28.803396
0.831  28.818509
0.830  28.825693
0.829  28.831255
0.828  28.845915
0.827  28.865791
0.826  28.863021
0.825  28.844171
0.824  28.859320
0.823  28.891033
0.822  28.907280
0.821  28.900601
0.820  28.904627
0.819  28.893777
0.818  28.901486
0.817  28.911851
0.816  28.905493
0.815  28.925372
0.814  28.918812
0.813  28.949816
0.812  28.965066
0.811  28.960264
0.810  28.943508
0.809  28.937268
0.808  28.955407
0.807  28.931247
0.806  28.958438
0.805  28.952692
0.804  28.936692
0.803  28.945847
0.802  28.951133
0.801  28.960767
0.800  28.965059
0.799  28.949791
0.798  28.965686
0.797  28.940597
0.796  28.962924
0.795  28.921365
0.794  28.962152
0.793  28.939589
0.792  28.947504
0.791  28.933200
0.790  28.949288
0.789  28.931054
0.788  28.969238
0.787  28.959331
0.786  28.958082
0.785  28.949817
0.784  28.952857
0.783  28.956935
0.782  28.928307
0.781  28.948265
0.780  28.958758
0.779  28.944222
0.778  28.943712
0.777  28.934951
0.776  28.926490
0.775  28.918574
0.774  28.904727
0.773  28.929935
0.772  28.916874
0.771  28.906979
0.770  28.896467
0.769  28.892426
0.768  28.890003
0.767  28.885275
0.766  28.888167
0.765  28.883152
0.764  28.880238
0.763  28.869674
0.762  28.843773
0.761  28.852800
0.760  28.843896
0.759  28.840589
0.758  28.833993
0.757  28.820486
0.756  28.823314
0.755  28.820020
0.754  28.814319
0.753  28.810844
0.752  28.792750
0.751  28.793155
0.750  28.792023
0.749  28.771853
0.748  28.768955
0.747  28.753467
0.746  28.749355
0.745  28.740018
0.744  28.738509
0.743  28.728883
0.742  28.723705
0.741  28.731022
0.740  28.725663
0.739  28.709804
0.738  28.698088
0.737  28.692917
0.736  28.678838
0.735  28.678529
0.734  28.682501
0.733  28.680043
0.732  28.671037
0.731  28.669094
0.730  28.651914
0.729  28.652013
0.728  28.646554
0.727  28.641994
0.726  28.631356
0.725  28.622322
0.724  28.608810
0.723  28.607814
0.722  28.581738
0.721  28.577880
0.720  28.570126
0.719  28.560295
0.718  28.560441
0.717  28.557542
0.716  28.540369
0.715  28.535783
0.714  28.534529
0.713  28.519641
0.712  28.503785
0.711  28.496267
0.710  28.484146
0.709  28.493622
0.708  28.476511
0.707  28.467017
0.706  28.459242
0.705  28.444256
0.704  28.436818
0.703  28.430491
0.702  28.421682
0.701  28.413369
0.700  28.399534
0.699  28.396381
0.698  28.388059
0.697  28.374860
0.696  28.371800
0.695  28.360938
0.694  28.348254
0.693  28.340878
0.692  28.338842
0.691  28.328363
0.690  28.314625
0.689  28.302476
0.688  28.296274
0.687  28.289908
0.686  28.275395
0.685  28.263815
0.684  28.256994
0.683  28.249903
0.682  28.241111
0.681  28.228624
0.680  28.228902
0.679  28.218525
0.678  28.205658
0.677  28.195264
0.676  28.177298
0.675  28.172961
0.674  28.170555
0.673  28.163283
0.672  28.149720
0.671  28.141058
0.670  28.133305
0.669  28.125796
0.668  28.120890
0.667  28.104655
0.666  28.093996
0.665  28.092957
0.664  28.087469
0.663  28.067144
0.662  28.047451
0.661  28.045991
0.660  28.041684
0.659  28.028293
0.658  28.023185
0.657  28.024562
0.656  28.013211
0.655  28.003352
0.654  28.000808
0.653  27.993586
0.652  27.978822
0.651  27.963590
0.650  27.959414
0.649  27.956387
0.648  27.949116
0.647  27.937738
0.646  27.926062
0.645  27.919562
0.644  27.907260
0.643  27.897961
0.642  27.888212
0.641  27.878190
0.640  27.873417
0.639  27.862956
0.638  27.854529
0.637  27.849021
0.636  27.837622
0.635  27.826907
0.634  27.818196
0.633  27.806546
0.632  27.797065
0.631  27.790639
0.630  27.781700
0.629  27.770354
0.628  27.757173
0.627  27.746703
0.626  27.743497
0.625  27.733754
0.624  27.721701
0.623  27.712741
0.622  27.708767
0.621  27.704177
0.620  27.693295
0.619  27.680258
0.618  27.669920
0.617  27.659557
0.616  27.650185
0.615  27.640035
0.614  27.627744
0.613  27.616378
0.612  27.605231
0.611  27.593175
0.610  27.584165
0.609  27.578538
0.608  27.571016
0.607  27.556496
0.606  27.549414
0.605  27.541129
0.604  27.522999
0.603  27.515682
0.602  27.507858
0.601  27.498294
0.600  27.480568
0.599  27.477818
0.598  27.477350
0.597  27.475827
0.596  27.473288
0.595  27.463089
0.594  27.452672
0.593  27.438922
0.592  27.427830
0.591  27.423410
0.590  27.413094
0.589  27.407702
0.588  27.393720
0.587  27.382132
0.586  27.371722
0.585  27.360633
0.584  27.351089
0.583  27.334983
0.582  27.330147
0.581  27.313561
0.580  27.305071
0.579  27.296108
0.578  27.290687
0.577  27.283816
0.576  27.275982
0.575  27.268684
0.574  27.261167
0.573  27.254823
0.572  27.246222
0.571  27.238701
0.570  27.232729
0.569  27.226272
0.568  27.216592
0.567  27.213912
0.566  27.210079
0.565  27.202876
0.564  27.200053
0.563  27.197018
0.562  27.187389
0.561  27.142463
0.560  27.127442
0.559  27.119021
0.558  27.107219
0.557  27.095263
0.556  27.083853
0.555  27.074021
0.554  27.068669
0.553  27.057437
0.552  27.045255
0.551  27.044189
0.550  27.026435
0.549  27.019459
0.548  27.010846
0.547  26.999747
0.546  26.986092
0.545  26.976513
0.544  26.977683
0.543  26.961979
0.542  26.947935
0.541  26.942719
0.540  26.933778
0.539  26.918484
0.538  26.911700
0.537  26.899640
0.536  26.889592
0.535  26.879904
0.534  26.870756
0.533  26.867032
0.532  26.850863
0.531  26.830792
0.530  26.827493
0.529  26.818271
0.528  26.803305
0.527  26.798006
0.526  26.782584
0.525  26.770935
0.524  26.755352
0.523  26.745916
0.522  26.736661
0.521  26.724210
0.520  26.710242
0.519  26.693074
0.518  26.675154
0.517  26.666005
0.516  26.658265
0.515  26.638227
0.514  26.620425
0.513  26.604528
0.512  26.586623
0.511  26.572819
0.510  26.545335
0.509  26.529471
0.508  26.508941
0.507  26.498093
0.506  26.478732
0.505  26.466249
0.504  26.443826
0.503  26.424530
0.502  26.414757
0.501  26.384090
0.500  26.366997
0.499  26.340013
0.498  26.320005
0.497  26.307568
0.496  26.278350
0.495  26.260043
0.494  26.216356
0.493  26.197523
0.492  26.182746
0.491  26.155852
0.490  26.115651
0.489  26.093296
0.488  26.062774
0.487  26.022790
0.486  25.999835
0.485  25.951231
0.484  25.917797
0.483  25.880686
0.482  25.839976
0.481  25.824496
0.480  25.832553
0.479  25.839708
0.478  25.857018
0.477  25.855977
0.476  25.847172
0.475  25.836891
0.474  25.814146
0.473  25.798755
0.472  25.780133
0.471  25.769832
0.470  25.757893
0.469  25.726774
0.468  25.716552
0.467  25.713506
0.466  25.698736
0.465  25.690590
0.464  25.666476
0.463  25.655761
0.462  25.633190
0.461  25.616160
0.460  25.599626
0.459  25.575790
0.458  25.548110
0.457  25.526216
0.456  25.502518
0.455  25.475583
0.454  25.448757
0.453  25.412034
0.452  25.387064
0.451  25.359652
0.450  25.322915
0.449  25.292938
0.448  25.258450
0.447  25.221995
0.446  25.186556
0.445  25.142719
0.444  25.098046
0.443  25.065033
0.442  25.038707
0.441  25.005269
0.440  24.973558
0.439  24.946505
0.438  24.912817
0.437  24.882732
0.436  24.839980
0.435  24.809988
0.434  24.770582
0.433  24.732558
0.432  24.694290
0.431  24.648339
0.430  24.610456
0.429  24.566471
0.428  24.523173
0.427  24.481966
0.426  24.441608
0.425  24.404235
0.424  24.357397
0.423  24.314455
0.422  24.271894
0.421  24.237875
0.420  24.196258
0.419  24.158434
0.418  24.120637
0.417  24.082887
0.416  24.043356
0.415  24.002795
0.414  23.962957
0.413  23.926200
0.412  23.883358
0.411  23.842008
0.410  23.805141
0.409  23.764137
0.408  23.724806
0.407  23.682935
0.406  23.647909
0.405  23.594414
0.404  23.559585
0.403  23.508265
0.402  23.460056
0.401  23.418621
0.400  23.379721
