Name: Vesuvianite Ca_10(Mg,Fe^2+)_2Al_4(Si_2O_7)_2(SiO_4)_5(OH,F)_4
Type: Mineral
Class: Silicates
Subclass: Sorosilicate
Particle Size: 125-500um
Sample No.: SS-3A
Owner: JPL
Wavelength range: IR
Origin: USA, California, Riverside County, Crestmore Quarry
Collected by Burminco
Description: 





Measurement: Hemispherical reflectance
First Column: X
Second Column: Y
X Units:  Wavelength (micrometers)
Y Units:  Reflectance (percent)
First X Value: 15.3853
Last X Value: 2.00032
Number of X Values: 2256
Additional information: ss03aa.txt
 
15.3853	1.9449
15.3397	1.88633
15.2945	1.72432
15.2495	1.60075
15.2048	1.56792
15.1603	1.73503
15.1161	1.92367
15.0722	1.78505
15.0285	1.78474
14.9851	1.85755
14.9419	1.67716
14.8989	1.8022
14.8563	1.78611
14.8138	1.66342
14.7716	1.84111
14.7296	2.11931
14.6879	2.23367
14.6464	2.24692
14.6052	2.11741
14.5641	1.93876
14.5233	1.94951
14.4828	2.07722
14.4424	2.10098
14.4023	2.10587
14.3624	1.98903
14.3227	2.03866
14.2833	2.08889
14.244	1.93363
14.205	1.95988
14.1662	2.21127
14.1276	2.34054
14.0892	2.43783
14.051	2.46983
14.0131	2.33153
13.9753	2.27697
13.9377	2.39811
13.9004	2.61021
13.8632	2.74977
13.8262	2.75114
13.7895	2.74973
13.7529	2.92913
13.7165	3.14451
13.6803	3.1397
13.6443	3.25739
13.6085	3.38362
13.5729	3.55512
13.5374	3.73191
13.5022	3.7176
13.4671	3.73087
13.4322	3.89151
13.3975	4.11457
13.363	4.09651
13.3286	3.81223
13.2944	3.76893
13.2604	3.92436
13.2266	4.13536
13.193	4.18621
13.1595	4.19739
13.1262	4.40772
13.093	4.46112
13.06	4.54533
13.0272	4.79906
12.9946	4.84285
12.9621	4.87453
12.9298	5.02204
12.8976	5.15346
12.8656	5.36646
12.8337	5.53707
12.8021	5.53918
12.7705	5.7142
12.7391	5.96178
12.7079	5.99222
12.6769	5.90041
12.6459	5.90268
12.6152	5.94943
12.5845	5.96436
12.5541	5.98695
12.5238	6.03061
12.4936	6.04372
12.4635	5.9851
12.4337	5.7397
12.4039	5.75703
12.3743	5.94345
12.3448	6.02074
12.3155	5.91334
12.2863	5.75052
12.2573	5.84767
12.2284	6.0277
12.1996	6.14675
12.171	6.27086
12.1425	6.37714
12.1141	6.62183
12.0859	6.6245
12.0578	6.64157
12.0298	6.8956
12.0019	7.19764
11.9742	7.32585
11.9466	7.3463
11.9192	7.40186
11.8918	7.61625
11.8646	7.85909
11.8375	7.82581
11.8106	7.76815
11.7837	7.89066
11.757	8.08206
11.7304	8.16277
11.7039	8.18183
11.6776	8.12198
11.6513	8.07287
11.6252	8.12542
11.5992	8.21317
11.5733	8.39392
11.5475	8.45517
11.5219	8.39478
11.4963	8.49881
11.4709	8.63642
11.4455	8.68946
11.4203	8.86604
11.3952	9.29716
11.3702	9.50385
11.3454	9.50232
11.3206	9.58819
11.2959	9.67187
11.2714	9.61269
11.2469	9.46336
11.2226	9.20511
11.1983	9.11105
11.1742	8.99313
11.1502	8.92056
11.1263	8.96343
11.1024	8.91412
11.0787	8.87788
11.0551	9.01859
11.0316	9.28838
11.0081	9.49491
10.9848	9.69331
10.9616	9.93607
10.9385	10.1031
10.9154	10.2019
10.8925	10.2528
10.8697	10.2969
10.8469	10.1841
10.8243	9.88953
10.8017	9.65802
10.7793	9.32101
10.7569	9.01598
10.7346	8.87457
10.7125	8.62265
10.6904	8.31156
10.6684	8.25226
10.6465	8.33364
10.6247	8.40613
10.6029	8.49353
10.5813	8.74436
10.5597	8.9206
10.5383	9.07736
10.5169	9.23048
10.4956	9.40345
10.4744	9.60699
10.4533	9.81095
10.4323	10.0762
10.4113	10.3346
10.3904	10.5076
10.3697	10.5967
10.349	10.5955
10.3284	10.6426
10.3078	10.6388
10.2874	10.4688
10.267	10.4188
10.2467	10.3827
10.2265	10.1023
10.2064	9.78413
10.1863	9.58248
10.1663	9.34488
10.1464	9.01941
10.1266	8.82697
10.1069	8.69507
10.0872	8.62779
10.0676	8.64551
10.0481	8.67847
10.0287	8.90546
10.0093	9.4382
9.99005	10.0808
9.97084	10.7943
9.95169	11.6952
9.93263	12.6411
9.91364	13.441
9.89472	14.3343
9.87587	15.2725
9.8571	16.1136
9.83839	17.0935
9.81976	17.9565
9.80119	18.653
9.78271	19.2372
9.76428	19.7241
9.74592	20.1168
9.72764	20.2441
9.70943	20.2701
9.69128	20.2535
9.6732	20.041
9.65518	19.6698
9.63724	19.1412
9.61935	18.5762
9.60155	17.9099
9.5838	17.1372
9.56611	16.2628
9.5485	15.1579
9.53094	14.093
9.51345	13.0594
9.49604	11.8023
9.47867	10.5052
9.46137	9.15618
9.44414	7.77798
9.42697	6.53947
9.40986	5.42846
9.39281	4.47471
9.37583	3.66962
9.35891	3.1705
9.34204	2.7416
9.32524	2.30014
9.3085	1.84897
9.29182	1.55709
9.27519	1.48233
9.25863	1.35977
9.24213	1.16184
9.22568	0.956485
9.2093	0.962808
9.19297	0.928372
9.17669	0.896605
9.16048	1.01922
9.14433	0.984675
9.12823	0.86985
9.11218	0.866028
9.0962	0.734287
9.08027	0.502886
9.06439	0.55707
9.04858	0.704337
9.03281	0.753274
9.0171	0.777763
9.00145	0.892595
8.98585	0.911934
8.9703	0.79037
8.9548	0.80201
8.93937	0.796921
8.92398	0.585181
8.90865	0.558592
8.89337	0.652424
8.87814	0.546036
8.86296	0.486935
8.84784	0.655665
8.83277	0.781678
8.81774	0.777374
8.80277	0.779099
8.78786	0.775935
8.77298	0.663513
8.75816	0.562422
8.7434	0.517857
8.72868	0.549145
8.714	0.595828
8.69938	0.621194
8.68481	0.663255
8.67029	0.585735
8.65581	0.531827
8.64139	0.575667
8.62701	0.587088
8.61268	0.68863
8.5984	0.721786
8.58416	0.691314
8.56997	0.689901
8.55583	0.605077
8.54174	0.623422
8.52769	0.748576
8.51368	0.729975
8.49973	0.846283
8.48582	0.880205
8.47195	0.815428
8.45813	0.917605
8.44436	0.933289
8.43062	1.00802
8.41693	1.02583
8.4033	0.957789
8.3897	1.01709
8.37614	1.13909
8.36264	1.18062
8.34917	1.08179
8.33574	1.13978
8.32236	1.17007
8.30903	1.14944
8.29573	1.1703
8.28248	1.17666
8.26927	1.16882
8.2561	1.22054
8.24298	1.23087
8.2299	1.36338
8.21685	1.3747
8.20385	1.27502
8.19089	1.2723
8.17797	1.30272
8.16509	1.38919
8.15225	1.54764
8.13946	1.6746
8.1267	1.59403
8.11398	1.46938
8.10131	1.4991
8.08867	1.55832
8.07606	1.56803
8.0635	1.51241
8.05099	1.4657
8.0385	1.54217
8.02606	1.54394
8.01366	1.53359
8.00129	1.58501
7.98896	1.56975
7.97667	1.62742
7.96442	1.71635
7.9522	1.76021
7.94002	1.7775
7.92788	1.72055
7.91578	1.71688
7.90371	1.75422
7.89168	1.7866
7.87969	1.80547
7.86773	1.76848
7.85581	1.7592
7.84392	1.70261
7.83207	1.65642
7.82026	1.73424
7.80849	1.85441
7.79674	1.87277
7.78503	1.85824
7.77337	1.83034
7.76173	1.88466
7.75012	1.90896
7.73856	1.94506
7.72703	2.02062
7.71553	2.02248
7.70406	2.07111
7.69263	2.07147
7.68123	2.05938
7.66987	2.07941
7.65855	2.08346
7.64725	2.1098
7.63598	2.18489
7.62475	2.16923
7.61356	2.07619
7.60239	2.0971
7.59126	2.15265
7.58017	2.26011
7.5691	2.3289
7.55806	2.33156
7.54707	2.33598
7.5361	2.41917
7.52516	2.40444
7.51425	2.42088
7.50338	2.47298
7.49253	2.4328
7.48172	2.43579
7.47094	2.42335
7.46019	2.35697
7.44947	2.38289
7.43879	2.51797
7.42813	2.53777
7.4175	2.50185
7.4069	2.44691
7.39634	2.34981
7.3858	2.28166
7.37529	2.3638
7.36482	2.40746
7.35437	2.42734
7.34396	2.48735
7.33357	2.50228
7.32321	2.5051
7.31288	2.428
7.30258	2.50999
7.29231	2.64496
7.28207	2.67326
7.27185	2.68652
7.26167	2.71301
7.25152	2.83256
7.24139	2.94662
7.23129	3.04625
7.22122	3.13355
7.21117	3.19229
7.20116	3.12386
7.19117	3.15146
7.18121	3.31846
7.17128	3.50627
7.16137	3.61252
7.1515	3.58321
7.14164	3.52442
7.13182	3.56514
7.12203	3.64319
7.11225	3.78853
7.10251	3.87414
7.0928	3.97114
7.08311	4.02545
7.07344	4.00206
7.06381	4.04455
7.0542	4.10348
7.04461	4.14159
7.03506	4.18238
7.02552	4.32146
7.01601	4.35235
7.00653	4.348
6.99708	4.43302
6.98765	4.52794
6.97824	4.60907
6.96886	4.67425
6.95951	4.68734
6.95018	4.61014
6.94087	4.65609
6.9316	4.71166
6.92234	4.73817
6.91311	4.79458
6.90391	4.8157
6.89473	4.67207
6.88557	4.49269
6.87644	4.40973
6.86733	4.40105
6.85824	4.27425
6.84918	4.0865
6.84015	4.00367
6.83114	4.09831
6.82215	4.15569
6.81319	3.97064
6.80424	3.91523
6.79532	4.06013
6.78643	4.17043
6.77756	4.17019
6.76871	4.1929
6.75989	4.25559
6.75109	4.40129
6.74231	4.68825
6.73355	4.96708
6.72482	5.13493
6.71611	5.21293
6.70742	5.38605
6.69875	5.59466
6.69011	5.77875
6.68149	5.97642
6.67289	6.09396
6.66431	6.12755
6.65576	6.15634
6.64722	6.394
6.63871	6.66243
6.63022	6.65229
6.62175	6.52287
6.61331	6.43913
6.60488	6.50972
6.59648	6.57202
6.5881	6.46339
6.57974	6.4154
6.5714	6.35309
6.56308	6.08553
6.55478	5.90355
6.54651	5.74743
6.53825	5.42063
6.53001	5.15507
6.5218	5.1024
6.51361	4.93414
6.50544	4.82288
6.49729	4.85456
6.48915	4.72124
6.48104	4.49572
6.47295	4.39546
6.46488	4.21803
6.45683	4.00166
6.4488	3.73566
6.44079	3.45731
6.4328	3.30434
6.42482	3.20839
6.41687	3.06232
6.40894	2.90979
6.40103	2.83571
6.39314	2.78118
6.38526	2.71676
6.37741	2.67864
6.36957	2.73426
6.36176	2.80502
6.35396	2.9994
6.34618	3.1948
6.33843	3.28208
6.33069	3.469
6.32297	3.78606
6.31527	3.98171
6.30758	4.18736
6.29992	4.41976
6.29227	4.58494
6.28465	4.65565
6.27704	4.76298
6.26945	4.85259
6.26188	4.90774
6.25432	4.97199
6.24679	4.99315
6.23927	4.98255
6.23177	4.95886
6.22429	4.96997
6.21683	4.94771
6.20938	4.84548
6.20195	4.88327
6.19454	4.89829
6.18715	4.9325
6.17978	4.89054
6.17242	4.78234
6.16508	4.79637
6.15776	4.7483
6.15045	4.62114
6.14317	4.50601
6.1359	4.39533
6.12864	4.36245
6.12141	4.43654
6.11419	4.45834
6.10699	4.32297
6.0998	4.14161
6.09263	4.06003
6.08549	4.1805
6.07835	4.35294
6.07123	4.32844
6.06413	4.20787
6.05705	4.30082
6.04998	4.49694
6.04293	4.3452
6.0359	4.17782
6.02888	4.18362
6.02187	4.20412
6.01489	4.27191
6.00792	4.19414
6.00096	4.07353
5.99403	4.19799
5.98711	4.31486
5.9802	4.2282
5.97331	4.23317
5.96644	4.34672
5.95958	4.27897
5.95274	4.20467
5.94591	4.35775
5.9391	4.52196
5.9323	4.37542
5.92552	4.27708
5.91876	4.29086
5.91201	4.25012
5.90528	4.25725
5.89856	4.33159
5.89186	4.28695
5.88517	4.38139
5.8785	4.46975
5.87184	4.30257
5.8652	4.21596
5.85857	4.14356
5.85196	4.17211
5.84536	4.19106
5.83878	4.10698
5.83221	4.12408
5.82566	4.2442
5.81912	4.21736
5.81259	4.09864
5.80608	4.04567
5.79959	4.02019
5.79311	3.94873
5.78665	3.92623
5.78019	3.94381
5.77376	3.95452
5.76734	4.02395
5.76093	3.94474
5.75453	3.87383
5.74815	3.89955
5.74179	3.86364
5.73543	3.88985
5.7291	3.86186
5.72277	3.8547
5.71646	3.80484
5.71017	3.75294
5.70389	3.61249
5.69762	3.61337
5.69136	3.67964
5.68513	3.70534
5.6789	3.71838
5.67268	3.6332
5.66648	3.53817
5.6603	3.53015
5.65413	3.49122
5.64797	3.51013
5.64182	3.56119
5.63569	3.51499
5.62957	3.49528
5.62347	3.44186
5.61737	3.37344
5.61129	3.35031
5.60522	3.33477
5.59917	3.25755
5.59313	3.23142
5.5871	3.218
5.58109	3.24476
5.57509	3.17623
5.5691	3.12968
5.56312	3.21732
5.55716	3.29438
5.55121	3.28997
5.54528	3.23109
5.53935	3.27474
5.53344	3.29461
5.52754	3.32156
5.52166	3.40047
5.51578	3.40196
5.50992	3.43094
5.50407	3.50891
5.49823	3.55598
5.49241	3.50091
5.4866	3.42864
5.4808	3.51061
5.47501	3.61191
5.46923	3.69475
5.46347	3.7062
5.45772	3.71286
5.45198	3.72533
5.44625	3.79567
5.44054	3.85267
5.43484	3.90034
5.42914	3.89543
5.42347	3.96383
5.4178	4.03892
5.41214	4.01808
5.4065	3.99237
5.40087	4.03433
5.39525	4.10474
5.38964	4.12605
5.38404	4.07873
5.37846	4.03598
5.37288	4.1038
5.36732	4.19502
5.36177	4.25265
5.35623	4.317
5.35071	4.4383
5.34519	4.30954
5.33968	4.21668
5.33419	4.27015
5.32871	4.36968
5.32324	4.42457
5.31778	4.43877
5.31233	4.49827
5.30689	4.5507
5.30147	4.54143
5.29605	4.5748
5.29065	4.70535
5.28525	4.72183
5.27987	4.73318
5.2745	4.8205
5.26914	4.90285
5.26379	4.93279
5.25845	5.01079
5.25312	5.10818
5.24781	5.1161
5.2425	5.1656
5.23721	5.25147
5.23192	5.235
5.22665	5.26845
5.22138	5.39905
5.21613	5.45936
5.21089	5.44682
5.20566	5.5028
5.20044	5.64772
5.19522	5.73138
5.19002	5.80133
5.18483	5.83944
5.17965	5.89029
5.17448	6.01377
5.16933	6.10684
5.16418	6.19838
5.15904	6.27898
5.15391	6.36885
5.14879	6.44227
5.14368	6.43176
5.13859	6.45033
5.1335	6.56248
5.12842	6.64853
5.12335	6.82463
5.1183	6.94294
5.11325	6.97589
5.10821	6.93531
5.10318	6.93597
5.09817	7.06601
5.09316	7.31321
5.08816	7.44866
5.08317	7.55344
5.07819	7.65881
5.07322	7.75267
5.06826	7.88657
5.06331	7.98625
5.05837	8.05743
5.05344	8.19796
5.04852	8.33033
5.04361	8.41205
5.03871	8.50994
5.03382	8.59734
5.02894	8.71003
5.02406	8.8799
5.0192	9.0097
5.01435	9.10866
5.0095	9.19079
5.00467	9.24281
4.99984	9.29737
4.99502	9.44012
4.99021	9.63411
4.98542	9.71373
4.98063	9.75379
4.97585	9.91922
4.97108	10.0911
4.96632	10.2253
4.96156	10.2175
4.95682	10.2755
4.95209	10.4414
4.94736	10.665
4.94264	10.8211
4.93794	10.8567
4.93324	10.9597
4.92855	11.1078
4.92387	11.1839
4.9192	11.2571
4.91453	11.3759
4.90988	11.5108
4.90524	11.649
4.9006	11.801
4.89597	11.8773
4.89135	11.9909
4.88674	12.0371
4.88214	12.0704
4.87755	12.2618
4.87296	12.4307
4.86839	12.4813
4.86382	12.5636
4.85926	12.6801
4.85471	12.8433
4.85017	12.971
4.84564	13.0434
4.84111	13.1471
4.8366	13.2848
4.83209	13.3691
4.82759	13.4352
4.8231	13.5341
4.81862	13.629
4.81415	13.7106
4.80968	13.8188
4.80522	13.9454
4.80077	13.9989
4.79633	13.9798
4.7919	14.1065
4.78747	14.2538
4.78306	14.3416
4.77865	14.4758
4.77425	14.499
4.76986	14.4866
4.76547	14.6105
4.7611	14.692
4.75673	14.7106
4.75237	14.7837
4.74802	14.7801
4.74367	14.7882
4.73934	14.8326
4.73501	14.8865
4.73069	14.957
4.72638	14.9855
4.72207	14.8506
4.71777	14.7967
4.71348	14.765
4.7092	14.7926
4.70493	14.7551
4.70066	14.6655
4.69641	14.5817
4.69216	14.5623
4.68791	14.5383
4.68368	14.5315
4.67945	14.565
4.67523	14.5695
4.67102	14.5979
4.66682	14.6378
4.66262	14.722
4.65843	14.8194
4.65425	14.8369
4.65007	14.906
4.64591	15.0108
4.64175	15.1267
4.6376	15.2264
4.63345	15.29
4.62932	15.3483
4.62519	15.4652
4.62106	15.5516
4.61695	15.6242
4.61284	15.7135
4.60874	15.7458
4.60465	15.7371
4.60056	15.7594
4.59648	15.7878
4.59241	15.8395
4.58835	15.9186
4.58429	15.9494
4.58024	15.9405
4.5762	16.0032
4.57216	16.0535
4.56814	16.1093
4.56411	16.1652
4.5601	16.1213
4.55609	16.1193
4.55209	16.0678
4.5481	16.0255
4.54411	16.1207
4.54013	16.2067
4.53616	16.2405
4.5322	16.2081
4.52824	16.1837
4.52429	16.1988
4.52034	16.2594
4.51641	16.3153
4.51247	16.4188
4.50855	16.4889
4.50463	16.4701
4.50072	16.4524
4.49682	16.4155
4.49292	16.4396
4.48903	16.5405
4.48515	16.6733
4.48127	16.7391
4.4774	16.756
4.47354	16.7472
4.46968	16.8224
4.46584	16.8791
4.46199	16.8861
4.45815	16.8319
4.45432	16.89
4.4505	16.9787
4.44668	17.027
4.44287	17.0753
4.43907	17.1215
4.43527	17.2036
4.43148	17.1959
4.4277	17.2132
4.42392	17.2102
4.42015	17.2271
4.41638	17.2815
4.41262	17.3647
4.40887	17.3911
4.40513	17.4399
4.40139	17.4762
4.39765	17.4159
4.39393	17.4161
4.39021	17.4779
4.38649	17.4957
4.38278	17.5356
4.37908	17.565
4.37539	17.5124
4.3717	17.517
4.36801	17.5127
4.36434	17.5426
4.36067	17.5694
4.357	17.6253
4.35335	17.6723
4.34969	17.6726
4.34605	17.6845
4.34241	17.607
4.33877	17.552
4.33514	17.6045
4.33152	17.6013
4.32791	17.6079
4.3243	17.6948
4.32069	17.735
4.3171	17.7564
4.31351	17.8125
4.30992	17.8412
4.30634	17.8512
4.30277	17.8667
4.2992	17.8097
4.29564	17.8017
4.29208	17.9294
4.28853	18.0205
4.28499	18.0026
4.28145	17.9529
4.27792	17.9484
4.27439	17.9352
4.27087	17.9115
4.26735	17.913
4.26384	17.9086
4.26034	17.9226
4.25684	17.9616
4.25335	18.0068
4.24986	17.9849
4.24638	17.8991
4.24291	17.9131
4.23944	18.0522
4.23598	18.1229
4.23252	18.1044
4.22906	18.067
4.22562	17.9638
4.22218	17.9069
4.21874	17.9029
4.21531	17.86
4.21189	17.8095
4.20847	17.77
4.20506	17.7228
4.20165	17.7082
4.19825	17.7351
4.19485	17.673
4.19146	17.6782
4.18807	17.6265
4.18469	17.5756
4.18132	17.5518
4.17795	17.5196
4.17458	17.5328
4.17123	17.5881
4.16787	17.615
4.16453	17.5957
4.16118	17.5649
4.15785	17.4728
4.15451	17.4275
4.15119	17.4684
4.14787	17.447
4.14455	17.3318
4.14124	17.2346
4.13794	17.1914
4.13464	17.1932
4.13134	17.1592
4.12805	17.1168
4.12477	17.1129
4.12149	17.1191
4.11822	17.091
4.11495	17.0848
4.11168	17.0796
4.10843	17.0456
4.10517	16.9331
4.10192	16.846
4.09868	16.7847
4.09545	16.7375
4.09221	16.7629
4.08899	16.8291
4.08576	16.7235
4.08255	16.5621
4.07933	16.5561
4.07613	16.5092
4.07292	16.4743
4.06973	16.416
4.06654	16.4392
4.06335	16.4049
4.06017	16.3072
4.05699	16.2583
4.05382	16.1546
4.05065	16.0701
4.04749	15.9484
4.04433	15.8045
4.04118	15.6586
4.03803	15.4949
4.03489	15.3961
4.03175	15.3441
4.02862	15.2679
4.02549	15.2341
4.02237	15.1974
4.01925	15.0161
4.01614	14.8478
4.01303	14.7983
4.00993	14.7534
4.00683	14.6148
4.00373	14.4866
4.00064	14.4354
3.99756	14.3596
3.99448	14.2626
3.9914	14.166
3.98833	14.165
3.98527	14.1321
3.98221	14.1134
3.97915	14.0669
3.9761	13.9996
3.97305	13.9817
3.97001	13.9418
3.96697	13.9338
3.96394	13.9949
3.96091	14.036
3.95789	14.0381
3.95487	14.0437
3.95186	14.1594
3.94885	14.1839
3.94584	14.0482
3.94284	14.0415
3.93984	14.1054
3.93685	14.0964
3.93386	14.0032
3.93088	13.9135
3.9279	13.9047
3.92493	13.8178
3.92196	13.7092
3.919	13.6013
3.91604	13.556
3.91308	13.5253
3.91013	13.42
3.90718	13.2853
3.90424	13.2549
3.9013	13.3072
3.89837	13.2966
3.89544	13.2589
3.89252	13.2114
3.8896	13.1901
3.88668	13.1459
3.88377	13.1063
3.88086	13.1536
3.87796	13.2849
3.87506	13.4039
3.87217	13.4474
3.86928	13.3059
3.86639	13.2249
3.86351	13.3671
3.86064	13.4619
3.85776	13.4655
3.8549	13.4509
3.85203	13.4599
3.84917	13.516
3.84631	13.5136
3.84346	13.4327
3.84062	13.349
3.83777	13.4086
3.83494	13.3871
3.8321	13.3949
3.82927	13.3837
3.82644	13.3115
3.82362	13.4255
3.82081	13.4804
3.81799	13.4658
3.81518	13.4432
3.81238	13.4956
3.80958	13.5832
3.80678	13.5578
3.80399	13.5128
3.8012	13.6034
3.79841	13.6648
3.79563	13.6842
3.79286	13.742
3.79008	13.7647
3.78731	13.7004
3.78455	13.7167
3.78179	13.7145
3.77903	13.6709
3.77628	13.7341
3.77353	13.7297
3.77079	13.6362
3.76805	13.4495
3.76531	13.355
3.76258	13.3495
3.75985	13.2989
3.75713	13.2006
3.7544	13.187
3.75169	13.2281
3.74898	13.276
3.74627	13.2556
3.74356	13.1634
3.74086	13.18
3.73816	13.162
3.73547	13.0812
3.73278	13.0531
3.7301	13.054
3.72741	12.9744
3.72474	13.0016
3.72206	13.0024
3.71939	12.8823
3.71673	12.8322
3.71406	12.7286
3.71141	12.6129
3.70875	12.6179
3.7061	12.6244
3.70345	12.5672
3.70081	12.5563
3.69817	12.4848
3.69553	12.3867
3.6929	12.3157
3.69027	12.2287
3.68765	12.1373
3.68503	12.0585
3.68241	12.0874
3.6798	12.0854
3.67719	12.0004
3.67458	11.9271
3.67198	11.8406
3.66938	11.7969
3.66678	11.7268
3.66419	11.6561
3.66161	11.5568
3.65902	11.4072
3.65644	11.2961
3.65387	11.2757
3.65129	11.2652
3.64872	11.2146
3.64616	11.1406
3.64359	11.0726
3.64103	10.9816
3.63848	10.8829
3.63593	10.8508
3.63338	10.809
3.63084	10.6907
3.6283	10.5554
3.62576	10.4959
3.62322	10.4438
3.62069	10.368
3.61817	10.2666
3.61564	10.2006
3.61312	10.1683
3.61061	10.1753
3.6081	10.1183
3.60559	9.99192
3.60308	9.91571
3.60058	9.79424
3.59808	9.67625
3.59558	9.61453
3.59309	9.61892
3.59061	9.54951
3.58812	9.37873
3.58564	9.21412
3.58316	9.07769
3.58069	9.02301
3.57822	8.92389
3.57575	8.82576
3.57328	8.82799
3.57082	8.83366
3.56836	8.70501
3.56591	8.5684
3.56346	8.53716
3.56101	8.48339
3.55857	8.42025
3.55613	8.36478
3.55369	8.2747
3.55126	8.16502
3.54883	8.06367
3.5464	8.00088
3.54397	7.89877
3.54155	7.76519
3.53914	7.7162
3.53672	7.67089
3.53431	7.49079
3.5319	7.35114
3.5295	7.22137
3.5271	7.1009
3.5247	6.97351
3.52231	6.88241
3.51991	6.82351
3.51753	6.70457
3.51514	6.57158
3.51276	6.54493
3.51038	6.43947
3.50801	6.30672
3.50563	6.25171
3.50327	6.20731
3.5009	6.13048
3.49854	6.06055
3.49618	5.95908
3.49382	5.98919
3.49147	5.95223
3.48912	5.94265
3.48677	5.97166
3.48443	5.9069
3.48209	5.74128
3.47975	5.71892
3.47742	5.75869
3.47509	5.71904
3.47276	5.64772
3.47044	5.57102
3.46812	5.58133
3.4658	5.57479
3.46348	5.49862
3.46117	5.48066
3.45886	5.47996
3.45656	5.42822
3.45425	5.37938
3.45195	5.33577
3.44966	5.28711
3.44736	5.28195
3.44507	5.2985
3.44279	5.34361
3.4405	5.24321
3.43822	5.12529
3.43594	5.11145
3.43367	5.08366
3.43139	5.03069
3.42912	4.97959
3.42686	4.9322
3.42459	4.88686
3.42233	4.94325
3.42007	4.91422
3.41782	4.84636
3.41557	4.85284
3.41332	4.82808
3.41108	4.73615
3.40883	4.67237
3.40659	4.69512
3.40435	4.65495
3.40212	4.7093
3.39989	4.6828
3.39766	4.54081
3.39544	4.47558
3.39322	4.51875
3.391	4.54014
3.38878	4.52426
3.38657	4.4583
3.38436	4.41136
3.38215	4.41066
3.37994	4.33078
3.37774	4.33867
3.37554	4.31006
3.37335	4.21574
3.37115	4.19933
3.36896	4.24476
3.36678	4.23152
3.36459	4.12355
3.36241	4.18537
3.36023	4.22748
3.35805	4.07346
3.35588	4.01023
3.35371	4.04602
3.35154	3.97766
3.34938	3.90645
3.34721	3.88238
3.34505	3.86028
3.3429	3.94721
3.34074	3.97724
3.33859	4.06902
3.33644	4.1449
3.3343	4.12327
3.33215	4.12818
3.33001	4.09535
3.32788	4.04753
3.32574	4.01799
3.32361	3.99987
3.32148	4.05403
3.31936	4.05012
3.31723	4.1182
3.31511	4.10185
3.31299	4.04335
3.31088	3.98848
3.30876	3.99916
3.30665	3.96396
3.30455	3.9151
3.30244	3.97978
3.30034	3.99789
3.29824	3.96153
3.29614	4.06877
3.29405	4.09229
3.29196	4.05177
3.28987	4.04818
3.28778	4.10977
3.2857	4.05535
3.28362	3.92229
3.28154	3.90837
3.27946	3.90618
3.27739	3.82999
3.27532	3.82741
3.27325	3.80955
3.27119	3.81419
3.26913	3.86973
3.26707	3.86388
3.26501	3.81325
3.26295	3.7905
3.2609	3.90773
3.25885	3.97004
3.2568	3.91279
3.25476	3.87722
3.25272	3.81413
3.25068	3.74193
3.24864	3.72911
3.24661	3.78608
3.24458	3.72362
3.24255	3.67945
3.24052	3.77336
3.2385	3.70688
3.23648	3.70291
3.23446	3.78006
3.23244	3.77196
3.23043	3.70884
3.22841	3.69864
3.2264	3.78374
3.2244	3.86815
3.22239	3.81025
3.22039	3.71553
3.21839	3.66531
3.2164	3.69606
3.2144	3.70533
3.21241	3.76148
3.21042	3.78189
3.20844	3.70271
3.20645	3.73254
3.20447	3.72671
3.20249	3.60432
3.20051	3.5848
3.19854	3.65531
3.19657	3.66021
3.1946	3.67129
3.19263	3.67498
3.19067	3.66214
3.1887	3.69129
3.18674	3.76272
3.18479	3.70569
3.18283	3.52987
3.18088	3.50094
3.17893	3.55144
3.17698	3.54899
3.17504	3.59244
3.17309	3.50046
3.17115	3.40339
3.16921	3.41293
3.16728	3.44057
3.16534	3.48035
3.16341	3.55452
3.16148	3.49218
3.15956	3.46468
3.15763	3.56699
3.15571	3.66591
3.15379	3.59625
3.15187	3.38123
3.14996	3.31952
3.14805	3.51521
3.14614	3.5768
3.14423	3.47286
3.14232	3.34702
3.14042	3.27589
3.13852	3.31728
3.13662	3.44647
3.13472	3.47157
3.13283	3.40116
3.13094	3.30497
3.12905	3.3092
3.12716	3.41754
3.12528	3.49076
3.12339	3.47958
3.12151	3.44808
3.11964	3.52199
3.11776	3.54983
3.11589	3.43909
3.11401	3.35719
3.11214	3.37031
3.11028	3.45645
3.10841	3.45086
3.10655	3.27715
3.10469	3.28577
3.10283	3.39273
3.10098	3.33983
3.09912	3.29221
3.09727	3.20326
3.09542	3.22233
3.09358	3.46505
3.09173	3.53476
3.08989	3.36535
3.08805	3.30029
3.08621	3.35934
3.08437	3.42038
3.08254	3.41265
3.08071	3.40311
3.07888	3.49267
3.07705	3.52447
3.07523	3.46706
3.0734	3.35739
3.07158	3.31971
3.06977	3.27782
3.06795	3.33944
3.06613	3.36214
3.06432	3.34936
3.06251	3.35989
3.0607	3.39665
3.0589	3.45292
3.0571	3.47636
3.05529	3.532
3.05349	3.50575
3.0517	3.47176
3.0499	3.53144
3.04811	3.54122
3.04632	3.48235
3.04453	3.53158
3.04274	3.49512
3.04096	3.44837
3.03918	3.43922
3.0374	3.37669
3.03562	3.4139
3.03384	3.41209
3.03207	3.3237
3.03029	3.43766
3.02852	3.50331
3.02676	3.54004
3.02499	3.60483
3.02323	3.53626
3.02146	3.4299
3.0197	3.54828
3.01795	3.64093
3.01619	3.61157
3.01444	3.50957
3.01269	3.4914
3.01094	3.56545
3.00919	3.60691
3.00744	3.54069
3.0057	3.52307
3.00396	3.5375
3.00222	3.652
3.00048	3.60073
2.99875	3.5552
2.99701	3.51545
2.99528	3.51843
2.99355	3.62613
2.99183	3.57905
2.9901	3.33439
2.98838	3.37733
2.98666	3.4936
2.98494	3.54516
2.98322	3.64567
2.9815	3.64814
2.97979	3.4879
2.97808	3.5371
2.97637	3.76417
2.97466	3.71986
2.97295	3.52033
2.97125	3.42096
2.96955	3.65614
2.96785	3.71375
2.96615	3.56752
2.96446	3.51377
2.96276	3.52007
2.96107	3.58141
2.95938	3.61109
2.95769	3.5574
2.95601	3.41001
2.95432	3.46251
2.95264	3.50509
2.95096	3.49498
2.94928	3.5612
2.9476	3.55763
2.94593	3.4529
2.94425	3.47259
2.94258	3.46655
2.94092	3.48499
2.93925	3.59007
2.93758	3.5656
2.93592	3.59294
2.93426	3.68553
2.9326	3.58984
2.93094	3.50662
2.92928	3.45776
2.92763	3.46366
2.92598	3.55628
2.92433	3.45118
2.92268	3.37836
2.92103	3.58877
2.91939	3.61421
2.91775	3.47036
2.9161	3.43975
2.91447	3.44847
2.91283	3.39745
2.91119	3.44739
2.90956	3.55425
2.90793	3.52952
2.9063	3.49433
2.90467	3.4708
2.90304	3.46451
2.90142	3.55893
2.89979	3.55553
2.89817	3.37125
2.89656	3.44664
2.89494	3.55296
2.89332	3.50314
2.89171	3.49846
2.8901	3.57387
2.88849	3.4832
2.88688	3.48682
2.88527	3.54919
2.88367	3.46537
2.88206	3.518
2.88046	3.56656
2.87886	3.49904
2.87727	3.36504
2.87567	3.42011
2.87408	3.45479
2.87248	3.50399
2.87089	3.46075
2.8693	3.44495
2.86772	3.55682
2.86613	3.62651
2.86455	3.48234
2.86297	3.33031
2.86139	3.45091
2.85981	3.53069
2.85823	3.50318
2.85666	3.49902
2.85508	3.49269
2.85351	3.58264
2.85194	3.53837
2.85038	3.5254
2.84881	3.61367
2.84724	3.6385
2.84568	3.44756
2.84412	3.41467
2.84256	3.42586
2.841	3.27269
2.83945	3.27604
2.83789	3.51708
2.83634	3.51476
2.83479	3.50217
2.83324	3.53103
2.83169	3.50056
2.83015	3.43534
2.82861	3.37598
2.82706	3.4442
2.82552	3.39493
2.82398	3.58467
2.82245	3.66018
2.82091	3.65446
2.81938	3.66125
2.81784	3.54542
2.81631	3.53741
2.81479	3.4343
2.81326	3.3341
2.81173	3.4057
2.81021	3.46166
2.80869	3.48694
2.80716	3.56753
2.80565	3.56998
2.80413	3.56326
2.80261	3.4085
2.8011	3.26965
2.79959	3.37519
2.79808	3.4777
2.79657	3.36917
2.79506	3.38579
2.79355	3.39207
2.79205	3.23469
2.79055	3.28133
2.78904	3.50058
2.78754	3.37292
2.78605	3.38792
2.78455	3.45859
2.78306	3.46129
2.78156	3.42054
2.78007	3.4989
2.77858	3.31162
2.77709	3.2154
2.77561	3.62197
2.77412	3.80741
2.77264	3.76905
2.77116	3.86096
2.76968	3.95548
2.7682	3.854
2.76672	3.7469
2.76524	3.49587
2.76377	3.44811
2.7623	3.66719
2.76083	3.65931
2.75936	3.43578
2.75789	3.41486
2.75642	3.70206
2.75496	3.87362
2.7535	3.75668
2.75203	3.72559
2.75057	3.62711
2.74912	3.61815
2.74766	3.71976
2.7462	3.81483
2.74475	3.74472
2.7433	3.52269
2.74185	3.50941
2.7404	3.58247
2.73895	3.49938
2.7375	3.67115
2.73606	3.63079
2.73462	3.60064
2.73318	3.4688
2.73174	3.66425
2.7303	3.75351
2.72886	3.59455
2.72742	3.60537
2.72599	3.66658
2.72456	3.76862
2.72313	3.70302
2.7217	3.68476
2.72027	3.9098
2.71884	3.99661
2.71742	3.95298
2.71599	3.77855
2.71457	3.95485
2.71315	4.47669
2.71173	4.95317
2.71032	5.32028
2.7089	5.66804
2.70748	6.24579
2.70607	6.916
2.70466	7.47924
2.70325	8.07821
2.70184	8.66419
2.70043	9.1778
2.69903	9.49984
2.69762	9.8006
2.69622	10.286
2.69482	10.7249
2.69342	10.9908
2.69202	11.0963
2.69062	11.291
2.68923	11.4972
2.68783	11.7022
2.68644	11.94
2.68505	12.2183
2.68366	12.6157
2.68227	12.9536
2.68089	13.079
2.6795	13.4932
2.67812	13.7805
2.67673	14.0704
2.67535	14.169
2.67397	14.0625
2.6726	14.1702
2.67122	14.8835
2.66984	15.3355
2.66847	15.1911
2.6671	15.4297
2.66572	15.7134
2.66435	15.757
2.66299	15.6704
2.66162	15.866
2.66025	15.9961
2.65889	16.0777
2.65753	16.0954
2.65616	16.1967
2.65481	16.3061
2.65345	16.5812
2.65209	16.7837
2.65073	16.7792
2.64938	16.8158
2.64803	16.9326
2.64667	17.1046
2.64532	17.2515
2.64397	17.3429
2.64263	17.4613
2.64128	17.5406
2.63994	17.6714
2.63859	17.7987
2.63725	18.0157
2.63591	18.317
2.63457	18.6955
2.63323	18.8266
2.6319	18.9933
2.63056	19.4116
2.62923	19.4856
2.62789	19.6738
2.62656	20.096
2.62523	19.9216
2.6239	19.7508
2.62258	19.7865
2.62125	20.3451
2.61993	20.8499
2.6186	20.8925
2.61728	21.1896
2.61596	21.2647
2.61464	21.0937
2.61332	21.1565
2.61201	21.1884
2.61069	21.3954
2.60938	21.6614
2.60807	21.8645
2.60675	22.0753
2.60544	22.2739
2.60414	22.0645
2.60283	22.0373
2.60152	21.9831
2.60022	21.9114
2.59891	22.1571
2.59761	22.5389
2.59631	23.0596
2.59501	23.5612
2.59371	23.1153
2.59242	22.5809
2.59112	22.654
2.58983	22.9073
2.58853	23.1728
2.58724	23.2257
2.58595	23.0968
2.58466	23.3544
2.58338	23.4936
2.58209	23.3129
2.5808	23.342
2.57952	23.2532
2.57824	23.4253
2.57695	23.6415
2.57567	23.6097
2.5744	23.773
2.57312	24.0093
2.57184	23.879
2.57057	24.0638
2.56929	24.2199
2.56802	24.1019
2.56675	24.0166
2.56548	24.2826
2.56421	24.6371
2.56294	24.7656
2.56168	24.8789
2.56041	24.809
2.55915	24.7963
2.55789	24.9354
2.55662	25.0041
2.55536	25.1135
2.5541	25.3039
2.55285	25.5011
2.55159	25.5779
2.55034	25.6422
2.54908	25.5445
2.54783	25.6462
2.54658	25.7343
2.54533	25.8061
2.54408	26.0018
2.54283	26.1225
2.54159	26.1359
2.54034	26.1106
2.5391	26.1728
2.53785	26.1984
2.53661	26.3804
2.53537	26.5534
2.53413	26.5297
2.53289	26.5855
2.53166	26.7554
2.53042	26.685
2.52919	26.6924
2.52795	26.8972
2.52672	27.0255
2.52549	27.0427
2.52426	27.2048
2.52303	27.1605
2.52181	27.1322
2.52058	27.2245
2.51936	27.2452
2.51813	27.2611
2.51691	27.2589
2.51569	27.2843
2.51447	27.3679
2.51325	27.3329
2.51203	27.1668
2.51082	27.1164
2.5096	27.1061
2.50839	27.0762
2.50717	27.1567
2.50596	27.2355
2.50475	27.2701
2.50354	27.3101
2.50233	27.2114
2.50113	27.1693
2.49992	27.2589
2.49872	27.2734
2.49751	27.1182
2.49631	27.1448
2.49511	27.2901
2.49391	27.3012
2.49271	27.2532
2.49151	27.2109
2.49031	27.1654
2.48912	27.1983
2.48792	27.1805
2.48673	27.1569
2.48554	27.2463
2.48435	27.252
2.48316	27.2074
2.48197	27.2746
2.48078	27.3077
2.4796	27.193
2.47841	27.1723
2.47723	27.2619
2.47604	27.2197
2.47486	27.1725
2.47368	27.2106
2.4725	27.2058
2.47132	27.1134
2.47014	27.1293
2.46897	27.2886
2.46779	27.3244
2.46662	27.2105
2.46545	27.1006
2.46427	27.1
2.4631	27.1227
2.46193	27.2514
2.46077	27.3539
2.4596	27.3338
2.45843	27.2493
2.45727	27.2096
2.4561	27.2124
2.45494	27.2258
2.45378	27.1517
2.45262	27.103
2.45146	27.0777
2.4503	27.0072
2.44914	26.9985
2.44799	26.9698
2.44683	26.8064
2.44568	26.7272
2.44452	26.7543
2.44337	26.7097
2.44222	26.6409
2.44107	26.6015
2.43992	26.5829
2.43877	26.5167
2.43763	26.4661
2.43648	26.6727
2.43534	26.8016
2.43419	26.6213
2.43305	26.6081
2.43191	26.5383
2.43077	26.478
2.42963	26.6369
2.42849	26.6869
2.42736	26.6798
2.42622	26.6455
2.42509	26.57
2.42395	26.6538
2.42282	26.6447
2.42169	26.6773
2.42056	26.7858
2.41943	26.6738
2.4183	26.6318
2.41717	26.8093
2.41605	26.9031
2.41492	26.7391
2.4138	26.6444
2.41267	26.7669
2.41155	26.9305
2.41043	26.8046
2.40931	26.768
2.40819	26.8675
2.40707	26.7578
2.40595	26.7219
2.40484	26.7871
2.40372	26.8518
2.40261	26.9174
2.4015	26.9255
2.40039	26.883
2.39928	26.9188
2.39817	27.0241
2.39706	27.1549
2.39595	27.2453
2.39484	27.277
2.39374	27.2612
2.39263	27.3078
2.39153	27.3226
2.39043	27.4114
2.38932	27.4831
2.38822	27.6069
2.38712	27.6785
2.38603	27.6013
2.38493	27.5532
2.38383	27.4421
2.38274	27.3086
2.38164	27.3454
2.38055	27.5595
2.37946	27.552
2.37836	27.4076
2.37727	27.3378
2.37618	27.3823
2.3751	27.4601
2.37401	27.3797
2.37292	27.2407
2.37184	27.2175
2.37075	27.1389
2.36967	27.0204
2.36859	26.9199
2.3675	26.9064
2.36642	26.6892
2.36534	26.3218
2.36427	26.1447
2.36319	26.2234
2.36211	26.1701
2.36104	25.9525
2.35996	25.7982
2.35889	25.6637
2.35781	25.5221
2.35674	25.4296
2.35567	25.3554
2.3546	25.3945
2.35353	25.5524
2.35247	25.487
2.3514	25.3838
2.35033	25.453
2.34927	25.6687
2.3482	25.7712
2.34714	25.6341
2.34608	25.7294
2.34502	25.9769
2.34396	26.0231
2.3429	26.3052
2.34184	26.6959
2.34078	26.7835
2.33973	26.7124
2.33867	27.0415
2.33762	27.5558
2.33656	27.7934
2.33551	27.9058
2.33446	28.1151
2.33341	28.3189
2.33236	28.5769
2.33131	28.8265
2.33026	29.0026
2.32922	29.1961
2.32817	29.4371
2.32712	29.728
2.32608	29.9399
2.32504	30.0151
2.324	29.9544
2.32295	30.0214
2.32191	30.2297
2.32087	30.2933
2.31984	30.3446
2.3188	30.3639
2.31776	30.2367
2.31673	30.2452
2.31569	30.4989
2.31466	30.5902
2.31362	30.4859
2.31259	30.4999
2.31156	30.6096
2.31053	30.713
2.3095	30.6746
2.30847	30.6348
2.30745	30.6767
2.30642	30.6734
2.3054	30.6001
2.30437	30.7095
2.30335	30.9828
2.30232	31.2348
2.3013	31.335
2.30028	31.4709
2.29926	31.8037
2.29824	32.1007
2.29722	32.3718
2.29621	32.6672
2.29519	32.8976
2.29417	33.1039
2.29316	33.2381
2.29215	33.5188
2.29113	33.7776
2.29012	33.8819
2.28911	34.0767
2.2881	34.1965
2.28709	34.2935
2.28608	34.4915
2.28507	34.6753
2.28407	34.8194
2.28306	34.9073
2.28206	35.0216
2.28105	35.201
2.28005	35.1492
2.27905	35.0935
2.27805	35.2398
2.27705	35.3697
2.27605	35.5211
2.27505	35.7568
2.27405	35.8863
2.27305	35.8479
2.27206	35.9683
2.27106	36.1929
2.27007	36.2256
2.26907	36.2614
2.26808	36.4562
2.26709	36.6689
2.2661	36.6844
2.26511	36.663
2.26412	36.9258
2.26313	37.2767
2.26214	37.3457
2.26116	37.358
2.26017	37.4366
2.25919	37.6224
2.2582	37.9856
2.25722	38.3412
2.25624	38.5632
2.25526	38.7013
2.25428	38.761
2.2533	38.8611
2.25232	38.9437
2.25134	39.2677
2.25036	39.535
2.24939	39.6083
2.24841	39.8802
2.24744	39.9735
2.24646	40.0664
2.24549	40.2486
2.24452	40.3131
2.24355	40.5128
2.24257	40.6557
2.24161	40.792
2.24064	40.816
2.23967	40.8831
2.2387	41.1041
2.23774	41.2758
2.23677	41.3097
2.23581	41.3979
2.23484	41.4818
2.23388	41.5656
2.23292	41.6161
2.23196	41.6429
2.231	41.7915
2.23004	41.9504
2.22908	42.1446
2.22812	42.1708
2.22716	42.2023
2.22621	42.3448
2.22525	42.411
2.2243	42.4017
2.22334	42.3481
2.22239	42.308
2.22144	42.4087
2.22049	42.3752
2.21953	42.2885
2.21859	42.3551
2.21764	42.3934
2.21669	42.3645
2.21574	42.3494
2.21479	42.3598
2.21385	42.4677
2.2129	42.5722
2.21196	42.6919
2.21102	42.8307
2.21007	42.9325
2.20913	43.0986
2.20819	43.3221
2.20725	43.7279
2.20631	44.1681
2.20537	44.4685
2.20444	44.7167
2.2035	45.0217
2.20256	45.2079
2.20163	45.2728
2.20069	45.5195
2.19976	45.8832
2.19883	46.252
2.19789	46.5037
2.19696	46.581
2.19603	46.8944
2.1951	47.2077
2.19417	47.4002
2.19325	47.6404
2.19232	47.6716
2.19139	47.7405
2.19047	47.9573
2.18954	47.9928
2.18862	47.9068
2.18769	48.0088
2.18677	48.0592
2.18585	48.123
2.18493	48.4545
2.18401	48.5361
2.18309	48.3918
2.18217	48.4868
2.18125	48.6593
2.18033	48.8746
2.17942	49.0544
2.1785	49.0359
2.17759	49.0703
2.17667	49.0551
2.17576	49.0122
2.17485	49.1702
2.17393	49.2834
2.17302	49.3858
2.17211	49.3988
2.1712	49.4321
2.17029	49.5412
2.16939	49.5781
2.16848	49.7172
2.16757	49.7777
2.16667	49.603
2.16576	49.6321
2.16486	49.8176
2.16395	49.8544
2.16305	49.9673
2.16215	49.9689
2.16125	49.8493
2.16035	49.7678
2.15945	49.6476
2.15855	49.5113
2.15765	49.5286
2.15675	49.6194
2.15586	49.5691
2.15496	49.6242
2.15406	49.7674
2.15317	49.7567
2.15228	49.5363
2.15138	49.3432
2.15049	49.2809
2.1496	49.0921
2.14871	49.0657
2.14782	49.3897
2.14693	49.693
2.14604	49.7185
2.14515	49.6956
2.14427	49.8301
2.14338	50.0312
2.14249	50.2383
2.14161	50.2686
2.14072	50.3115
2.13984	50.551
2.13896	50.7358
2.13808	50.8452
2.13719	50.9698
2.13631	51.3609
2.13543	51.8038
2.13455	51.9484
2.13368	51.9987
2.1328	52.1222
2.13192	52.3732
2.13105	52.6666
2.13017	52.8205
2.1293	52.9064
2.12842	53.2337
2.12755	53.5413
2.12668	53.7083
2.1258	53.898
2.12493	54.0253
2.12406	54.0014
2.12319	54.2404
2.12232	54.4732
2.12145	54.8233
2.12059	55.1364
2.11972	55.2409
2.11885	55.4133
2.11799	55.4074
2.11712	55.5468
2.11626	55.8761
2.1154	56.1643
2.11453	56.3815
2.11367	56.4416
2.11281	56.5432
2.11195	56.7881
2.11109	56.9631
2.11023	57.2262
2.10937	57.37
2.10851	57.3909
2.10766	57.5344
2.1068	57.8377
2.10594	58.0426
2.10509	58.3097
2.10423	58.5877
2.10338	58.5941
2.10253	58.7216
2.10168	58.8197
2.10082	58.9182
2.09997	59.1408
2.09912	59.3364
2.09827	59.396
2.09742	59.4255
2.09658	59.698
2.09573	59.7897
2.09488	59.6834
2.09404	59.8785
2.09319	60.1337
2.09235	60.4243
2.0915	60.5677
2.09066	60.7026
2.08982	60.6466
2.08897	60.6158
2.08813	60.6757
2.08729	60.7122
2.08645	60.858
2.08561	60.9753
2.08477	61.0931
2.08394	61.2518
2.0831	61.2918
2.08226	61.3295
2.08143	61.5345
2.08059	61.5822
2.07976	61.6313
2.07892	61.7823
2.07809	61.8126
2.07726	61.791
2.07643	61.8767
2.07559	61.8567
2.07476	61.8015
2.07393	61.7879
2.0731	62.001
2.07228	62.0797
2.07145	61.939
2.07062	61.926
2.06979	61.8905
2.06897	61.7747
2.06814	61.9003
2.06732	62.1124
2.06649	62.3014
2.06567	62.2241
2.06485	62.2173
2.06403	62.2959
2.0632	62.2851
2.06238	62.1454
2.06156	62.2186
2.06074	62.5003
2.05993	62.7615
2.05911	62.6496
2.05829	62.5007
2.05747	62.8326
2.05666	62.699
2.05584	62.2948
2.05503	62.3547
2.05421	62.4698
2.0534	62.2568
2.05259	62.3343
2.05177	62.6779
2.05096	62.8697
2.05015	62.722
2.04934	62.4916
2.04853	62.6093
2.04772	62.6683
2.04691	62.7982
2.04611	62.5477
2.0453	62.7436
2.04449	63.0986
2.04369	63.0798
2.04288	63.0696
2.04208	62.9798
2.04127	62.9961
2.04047	63.0644
2.03967	63.0868
2.03886	63.0594
2.03806	63.1216
2.03726	63.2769
2.03646	63.1681
2.03566	63.0256
2.03486	63.0898
2.03407	63.2579
2.03327	63.3732
2.03247	63.248
2.03167	63.0346
2.03088	62.9463
2.03008	62.8967
2.02929	62.8586
2.0285	62.9368
2.0277	62.965
2.02691	63.0524
2.02612	62.9917
2.02533	62.7696
2.02453	62.6455
2.02374	62.7536
2.02295	62.8201
2.02217	62.533
2.02138	62.4301
2.02059	62.5336
2.0198	62.5323
2.01902	62.5226
2.01823	62.6372
2.01744	62.7196
2.01666	62.5994
2.01588	62.5428
2.01509	62.509
2.01431	62.4237
2.01353	62.4279
2.01275	62.7071
2.01196	62.6591
2.01118	62.4699
2.0104	62.4578
2.00963	62.3711
2.00885	62.3745
2.00807	62.507
2.00729	62.5177
2.00651	62.4318
2.00574	62.4271
2.00496	62.4031
2.00419	62.4699
2.00341	62.4196
2.00264	62.1809
2.00187	62.0254
2.00109	62.0222
2.00032	61.9917
