Name: Basanite
Type: Rock
Class: Igneous
Subclass: Mafic
Particle Size: Whole rock chips
Sample No.: Mewy327b
Owner: Lawrence Rowan, USGS Reston
Wavelength range: 0.40 - 14.05 um
Origin: Yizreel Valley, Middle East

Description: Basanite, cut surface





Measurement: Directional Hemispherical Reflectance
First Column: X
Second Column: Y
X Units: Wavelength (micrometers)
Y Units: Reflectance (percent)
First X Value: 14.05105
Last X Value: 0.40000
Number of X Values: 2231
Additional Information: mewy327ba.txt

 14.051   4.0273
 14.013   3.9140
 13.975   3.7492
 13.938   3.6874
 13.900   3.8007
 13.863   3.7492
 13.826   3.9037
 13.790   3.7698
 13.753   3.6256
 13.717   3.5844
 13.680   3.7698
 13.644   3.7801
 13.609   3.7492
 13.573   3.6977
 13.538   3.7389
 13.502   3.6462
 13.467   3.7595
 13.432   3.8728
 13.398   3.9346
 13.363   3.8934
 13.329   3.9861
 13.295   3.9037
 13.261   3.8831
 13.227   3.8110
 13.193   3.7492
 13.160   3.7183
 13.126   3.8728
 13.093   3.8213
 13.060   3.7389
 13.027   3.8007
 12.995   4.0067
 12.962   3.9861
 12.930   3.9552
 12.898   3.9140
 12.866   3.8522
 12.834   3.7904
 12.802   3.9449
 12.771   3.9449
 12.739   3.9758
 12.708   4.0479
 12.677   4.1509
 12.646   4.1612
 12.616   4.2127
 12.585   4.1921
 12.554   4.2848
 12.524   4.2539
 12.494   4.3672
 12.464   4.3672
 12.434   4.4805
 12.404   4.5320
 12.375   4.5732
 12.345   4.6247
 12.316   4.7174
 12.287   4.7174
 12.258   4.8719
 12.229   4.9028
 12.200   5.0470
 12.171   5.0985
 12.143   5.2015
 12.115   5.3663
 12.086   5.5620
 12.058   5.5517
 12.030   5.6341
 12.002   5.7680
 11.975   5.8813
 11.947   5.8813
 11.920   5.9946
 11.892   6.0152
 11.865   6.1903
 11.838   6.3036
 11.811   6.4375
 11.784   6.4375
 11.757   6.6023
 11.731   6.8186
 11.704   7.0040
 11.678   7.0967
 11.652   7.1997
 11.626   7.2615
 11.600   7.5808
 11.574   7.7250
 11.548   7.8486
 11.522   7.9722
 11.497   8.1782
 11.471   8.3121
 11.446   8.5078
 11.421   8.6314
 11.396   8.7653
 11.371   8.7550
 11.346   8.9198
 11.321   9.0743
 11.297   9.2700
 11.272   9.3627
 11.248   9.5378
 11.223   9.5790
 11.199   9.6820
 11.175   9.7438
 11.151   9.8365
 11.127   9.8468
 11.103   9.9704
 11.079  10.0528
 11.056  10.1764
 11.032  10.2897
 11.009  10.4854
 10.985  10.6090
 10.962  10.7017
 10.939  10.6708
 10.916  10.7532
 10.893  10.7944
 10.870  10.8562
 10.848  10.8150
 10.825  10.9077
 10.802  10.9592
 10.780  10.9386
 10.758  10.9077
 10.735  10.9798
 10.713  10.9695
 10.691  11.0416
 10.669  11.1240
 10.647  11.2476
 10.625  11.1961
 10.604  11.1652
 10.582  11.1961
 10.560  11.2167
 10.539  11.1240
 10.518  11.0828
 10.496  11.0210
 10.475  11.0931
 10.454  11.1240
 10.433  11.2064
 10.412  11.3403
 10.391  11.5463
 10.370  11.6493
 10.350  11.7523
 10.329  11.7420
 10.309  11.8347
 10.288  11.9068
 10.268  12.0201
 10.247  12.0819
 10.227  12.1128
 10.207  12.0304
 10.187  12.0304
 10.167  11.9789
 10.147  11.9377
 10.127  11.9892
 10.108  12.0304
 10.088  12.0407
 10.068  12.1746
 10.049  12.1540
 10.029  12.1437
 10.010  12.1849
  9.991  12.3703
  9.972  12.4939
  9.952  12.6175
  9.933  12.6072
  9.914  12.6278
  9.895  12.7617
  9.877  12.8544
  9.858  12.8132
  9.839  12.9574
  9.821  13.0604
  9.802  13.1222
  9.783  13.0810
  9.765  13.0913
  9.747  13.1840
  9.728  13.1840
  9.710  13.0707
  9.692  13.1325
  9.674  13.2149
  9.656  13.2767
  9.638  13.2664
  9.620  13.3282
  9.602  13.2767
  9.585  13.3076
  9.567  13.1943
  9.549  13.0707
  9.532  13.0192
  9.514  13.0295
  9.497  12.9677
  9.479  12.9677
  9.462  12.8544
  9.445  12.7720
  9.428  12.6072
  9.411  12.4115
  9.394  12.2261
  9.377  12.0922
  9.360  11.8759
  9.343  11.7420
  9.326  11.5257
  9.309  11.4227
  9.293  11.2785
  9.276  11.1034
  9.259  10.9592
  9.243  10.8562
  9.226  10.6914
  9.210  10.6193
  9.194  10.4442
  9.178  10.4339
  9.161  10.4545
  9.145  10.5472
  9.129  10.5266
  9.113  10.5575
  9.097  10.6605
  9.081  10.7635
  9.065  10.5987
  9.049  10.4236
  9.034  10.3515
  9.018  10.3309
  9.002  10.1249
  8.987  10.0013
  8.971   9.8777
  8.956   9.7129
  8.940   9.4760
  8.925   9.2494
  8.909   9.0331
  8.894   8.8786
  8.879   8.6520
  8.864   8.4769
  8.849   8.2709
  8.834   8.1164
  8.819   7.9722
  8.804   7.8589
  8.789   7.6735
  8.774   7.5705
  8.759   7.5087
  8.744   7.4881
  8.730   7.3336
  8.715   7.1997
  8.700   7.0143
  8.686   6.9731
  8.671   6.9113
  8.657   6.8495
  8.642   6.7362
  8.628   6.6538
  8.614   6.5199
  8.599   6.4272
  8.585   6.2830
  8.571   6.2006
  8.557   6.1594
  8.543   6.1800
  8.529   6.1388
  8.515   6.0873
  8.501   5.9328
  8.487   5.8504
  8.473   5.7268
  8.459   5.6650
  8.445   5.6238
  8.431   5.5311
  8.418   5.4075
  8.404   5.4178
  8.391   5.3663
  8.377   5.2324
  8.363   5.1294
  8.350   5.0882
  8.337   4.9234
  8.323   4.8410
  8.310   4.7792
  8.297   4.6247
  8.283   4.4496
  8.270   4.3054
  8.257   4.1406
  8.244   4.0376
  8.231   3.9140
  8.218   3.8007
  8.205   3.6050
  8.192   3.4917
  8.179   3.4299
  8.166   3.3990
  8.153   3.3372
  8.140   3.2857
  8.128   3.2239
  8.115   3.1930
  8.102   3.1621
  8.090   3.1621
  8.077   3.0900
  8.064   3.0694
  8.052   3.0694
  8.039   3.0385
  8.027   2.9561
  8.015   2.9458
  8.002   2.9355
  7.990   2.9767
  7.978   2.9767
  7.965   2.9973
  7.953   2.9870
  7.941   2.9973
  7.929   2.9767
  7.917   2.9870
  7.905   2.9973
  7.893   3.0694
  7.881   2.9870
  7.869   2.8943
  7.857   2.8943
  7.845   2.9149
  7.833   2.8737
  7.821   2.9458
  7.809   2.9458
  7.798   2.9458
  7.786   2.9355
  7.774   2.9767
  7.763   3.0385
  7.751   3.0694
  7.739   2.9561
  7.728   2.9767
  7.716   3.0179
  7.705   3.0179
  7.694   2.9870
  7.682   3.0179
  7.671   3.0179
  7.659   3.0179
  7.648   2.9767
  7.637   3.0488
  7.626   3.0488
  7.614   3.0591
  7.603   3.0694
  7.592   3.0694
  7.581   2.9870
  7.570   3.0179
  7.559   3.0591
  7.548   3.0591
  7.537   3.0488
  7.526   3.1106
  7.515   3.1209
  7.504   3.1415
  7.493   3.1621
  7.483   3.1621
  7.472   3.1106
  7.461   3.1518
  7.450   3.1930
  7.440   3.2033
  7.429   3.1621
  7.418   3.1621
  7.408   3.1827
  7.397   3.2136
  7.387   3.2136
  7.376   3.2342
  7.366   3.2342
  7.355   3.2239
  7.345   3.2136
  7.334   3.2548
  7.324   3.2651
  7.314   3.3269
  7.303   3.3475
  7.293   3.3475
  7.283   3.2857
  7.273   3.3063
  7.263   3.3166
  7.252   3.3063
  7.242   3.2857
  7.232   3.3269
  7.222   3.3578
  7.212   3.3681
  7.202   3.3063
  7.192   3.3166
  7.182   3.3269
  7.172   3.3578
  7.162   3.3578
  7.152   3.3887
  7.143   3.3990
  7.133   3.3887
  7.123   3.2857
  7.113   3.3372
  7.103   3.4196
  7.094   3.4711
  7.084   3.4402
  7.074   3.4402
  7.065   3.4196
  7.055   3.4196
  7.046   3.4093
  7.036   3.3887
  7.026   3.3784
  7.017   3.4402
  7.007   3.3990
  6.998   3.4196
  6.989   3.4917
  6.979   3.4917
  6.970   3.4402
  6.960   3.4814
  6.951   3.4814
  6.942   3.4917
  6.932   3.4917
  6.923   3.5226
  6.914   3.4917
  6.905   3.4917
  6.896   3.5329
  6.886   3.5329
  6.877   3.4402
  6.868   3.4505
  6.859   3.4917
  6.850   3.5020
  6.841   3.4814
  6.832   3.4814
  6.823   3.4608
  6.814   3.4093
  6.805   3.3681
  6.796   3.4299
  6.787   3.4402
  6.778   3.5020
  6.770   3.5123
  6.761   3.5020
  6.752   3.4299
  6.743   3.4608
  6.734   3.5020
  6.726   3.4917
  6.717   3.4814
  6.708   3.4917
  6.700   3.5020
  6.691   3.4917
  6.682   3.4299
  6.674   3.4608
  6.665   3.4917
  6.657   3.5432
  6.648   3.5638
  6.640   3.4917
  6.631   3.4402
  6.623   3.5020
  6.614   3.4608
  6.606   3.4299
  6.597   3.4711
  6.589   3.5432
  6.581   3.5226
  6.572   3.5226
  6.564   3.4917
  6.556   3.4505
  6.547   3.4299
  6.539   3.5329
  6.531   3.5844
  6.523   3.4711
  6.514   3.3784
  6.506   3.4196
  6.498   3.4505
  6.490   3.4917
  6.482   3.5123
  6.474   3.5123
  6.466   3.4711
  6.458   3.4608
  6.450   3.4814
  6.442   3.5123
  6.434   3.4917
  6.426   3.4814
  6.418   3.4505
  6.410   3.4608
  6.402   3.4608
  6.394   3.5020
  6.386   3.4917
  6.378   3.4917
  6.370   3.5123
  6.363   3.4917
  6.355   3.4402
  6.347   3.4505
  6.339   3.4505
  6.332   3.4196
  6.324   3.3887
  6.316   3.4505
  6.308   3.4814
  6.301   3.4505
  6.293   3.4299
  6.286   3.4299
  6.278   3.3990
  6.270   3.4402
  6.263   3.4505
  6.255   3.4505
  6.248   3.4608
  6.240   3.4299
  6.233   3.3681
  6.225   3.3372
  6.218   3.3372
  6.210   3.4093
  6.203   3.3269
  6.195   3.2754
  6.188   3.3166
  6.181   3.3578
  6.173   3.3063
  6.166   3.2754
  6.159   3.2548
  6.151   3.1930
  6.144   3.2033
  6.137   3.2136
  6.130   3.1518
  6.122   3.1621
  6.115   3.1518
  6.108   3.1930
  6.101   3.1724
  6.094   3.1827
  6.086   3.1827
  6.079   3.1827
  6.072   3.1724
  6.065   3.2033
  6.058   3.1827
  6.051   3.1518
  6.044   3.1312
  6.037   3.1621
  6.030   3.1415
  6.023   3.1621
  6.016   3.1724
  6.009   3.2033
  6.002   3.2342
  5.995   3.2445
  5.988   3.2754
  5.981   3.3475
  5.974   3.3475
  5.967   3.3269
  5.960   3.3166
  5.954   3.3166
  5.947   3.3166
  5.940   3.3887
  5.933   3.4093
  5.926   3.3990
  5.920   3.4299
  5.913   3.4608
  5.906   3.4299
  5.899   3.4711
  5.893   3.5020
  5.886   3.5432
  5.879   3.5844
  5.873   3.6256
  5.866   3.6359
  5.859   3.6050
  5.853   3.5844
  5.846   3.6462
  5.840   3.6874
  5.833   3.6977
  5.827   3.7286
  5.820   3.7801
  5.813   3.7492
  5.807   3.7698
  5.800   3.7801
  5.794   3.7389
  5.788   3.7801
  5.781   3.8007
  5.775   3.7286
  5.768   3.7595
  5.762   3.8110
  5.755   3.8213
  5.749   3.7801
  5.743   3.8316
  5.736   3.8625
  5.730   3.8728
  5.724   3.9037
  5.717   3.8934
  5.711   3.8625
  5.705   3.9037
  5.698   3.8419
  5.692   3.8110
  5.686   3.8316
  5.680   3.8728
  5.674   3.9140
  5.667   3.9758
  5.661   3.9346
  5.655   3.9346
  5.649   3.9655
  5.643   3.9449
  5.637   3.9140
  5.630   3.9449
  5.624   3.9449
  5.618   3.9964
  5.612   4.0067
  5.606   3.9758
  5.600   3.9346
  5.594   3.9552
  5.588   3.9449
  5.582   3.9964
  5.576   4.0376
  5.570   4.0479
  5.564   3.9964
  5.558   3.9346
  5.552   3.9449
  5.546   3.9861
  5.540   4.0170
  5.534   4.0273
  5.528   4.0376
  5.523   4.0788
  5.517   4.1406
  5.511   4.1097
  5.505   4.0479
  5.499   4.0685
  5.493   4.0788
  5.487   4.0891
  5.482   4.1097
  5.476   4.1200
  5.470   4.1097
  5.464   4.1097
  5.459   4.1509
  5.453   4.1509
  5.447   4.1200
  5.441   4.1303
  5.436   4.1406
  5.430   4.1715
  5.424   4.1715
  5.419   4.1921
  5.413   4.2127
  5.407   4.1612
  5.402   4.1303
  5.396   4.1818
  5.390   4.1818
  5.385   4.2024
  5.379   4.1921
  5.374   4.1715
  5.368   4.2333
  5.363   4.2436
  5.357   4.2127
  5.352   4.2024
  5.346   4.1921
  5.341   4.2745
  5.335   4.3054
  5.330   4.2642
  5.324   4.2230
  5.319   4.2436
  5.313   4.2333
  5.308   4.2333
  5.302   4.2539
  5.297   4.2539
  5.291   4.2230
  5.286   4.2436
  5.281   4.2436
  5.275   4.2436
  5.270   4.2745
  5.265   4.2642
  5.259   4.2333
  5.254   4.2848
  5.249   4.3363
  5.243   4.3054
  5.238   4.2951
  5.233   4.2951
  5.227   4.2539
  5.222   4.2642
  5.217   4.3363
  5.212   4.3466
  5.206   4.3260
  5.201   4.3363
  5.196   4.3157
  5.191   4.3054
  5.186   4.3054
  5.180   4.3054
  5.175   4.3363
  5.170   4.3363
  5.165   4.3157
  5.160   4.2951
  5.155   4.2951
  5.150   4.3260
  5.145   4.3466
  5.139   4.3569
  5.134   4.3672
  5.129   4.3981
  5.124   4.3981
  5.119   4.3775
  5.114   4.3260
  5.109   4.3260
  5.104   4.3775
  5.099   4.3878
  5.094   4.3569
  5.089   4.3157
  5.084   4.3363
  5.079   4.3878
  5.074   4.3775
  5.069   4.3569
  5.064   4.3363
  5.059   4.3569
  5.054   4.4393
  5.049   4.4805
  5.044   4.4496
  5.040   4.4599
  5.035   4.4496
  5.030   4.3878
  5.025   4.3260
  5.020   4.3672
  5.015   4.3981
  5.010   4.3569
  5.005   4.3363
  5.001   4.3672
  4.996   4.4393
  4.991   4.4805
  4.986   4.4290
  4.981   4.3569
  4.977   4.3260
  4.972   4.3260
  4.967   4.3363
  4.962   4.3878
  4.958   4.4290
  4.953   4.4599
  4.948   4.4496
  4.943   4.4496
  4.939   4.4496
  4.934   4.4187
  4.929   4.4599
  4.925   4.4805
  4.920   4.4599
  4.915   4.4805
  4.911   4.4805
  4.906   4.5114
  4.901   4.5114
  4.897   4.4393
  4.892   4.4290
  4.888   4.4290
  4.883   4.3981
  4.878   4.4393
  4.874   4.5217
  4.869   4.5217
  4.865   4.4599
  4.860   4.4393
  4.856   4.4908
  4.851   4.5423
  4.846   4.5423
  4.842   4.5217
  4.837   4.4187
  4.833   4.4187
  4.828   4.4805
  4.824   4.5320
  4.819   4.5320
  4.815   4.5011
  4.810   4.4599
  4.806   4.4908
  4.802   4.5320
  4.797   4.5320
  4.793   4.5835
  4.788   4.6247
  4.784   4.5526
  4.779   4.4805
  4.775   4.5217
  4.771   4.5423
  4.766   4.4805
  4.762   4.4496
  4.758   4.4908
  4.753   4.5732
  4.749   4.5732
  4.744   4.5423
  4.740   4.5938
  4.736   4.6247
  4.731   4.5835
  4.727   4.5732
  4.723   4.5938
  4.719   4.5629
  4.714   4.5217
  4.710   4.5217
  4.706   4.5732
  4.701   4.5835
  4.697   4.6350
  4.693   4.6247
  4.689   4.5629
  4.684   4.5732
  4.680   4.6144
  4.676   4.6041
  4.672   4.6659
  4.668   4.6968
  4.663   4.6865
  4.659   4.6453
  4.655   4.6144
  4.651   4.5732
  4.647   4.6041
  4.643   4.7071
  4.638   4.7277
  4.634   4.6247
  4.630   4.6144
  4.626   4.6659
  4.622   4.6865
  4.618   4.6762
  4.614   4.7071
  4.610   4.7071
  4.605   4.7071
  4.601   4.7380
  4.597   4.7174
  4.593   4.6865
  4.589   4.6865
  4.585   4.7277
  4.581   4.7586
  4.577   4.7483
  4.573   4.7586
  4.569   4.7380
  4.565   4.7586
  4.561   4.7895
  4.557   4.7380
  4.553   4.6865
  4.549   4.6968
  4.545   4.6762
  4.541   4.7277
  4.537   4.7483
  4.533   4.7174
  4.529   4.7689
  4.525   4.7998
  4.521   4.7277
  4.517   4.7586
  4.513   4.7586
  4.509   4.7586
  4.505   4.7895
  4.502   4.8204
  4.498   4.8513
  4.494   4.8513
  4.490   4.8410
  4.486   4.8616
  4.482   4.8513
  4.478   4.8822
  4.474   4.8822
  4.470   4.7895
  4.467   4.7174
  4.463   4.7071
  4.459   4.7071
  4.455   4.7792
  4.451   4.8925
  4.447   4.8616
  4.444   4.7998
  4.440   4.7895
  4.436   4.8204
  4.432   4.8410
  4.428   4.9131
  4.425   4.9131
  4.421   4.8822
  4.417   4.9028
  4.413   4.8410
  4.410   4.7689
  4.406   4.8410
  4.402   4.8925
  4.398   4.7998
  4.395   4.7792
  4.391   4.7689
  4.387   4.7998
  4.384   4.8101
  4.380   4.8616
  4.376   4.8616
  4.372   4.8719
  4.369   4.8925
  4.365   4.9337
  4.361   4.9131
  4.358   4.8410
  4.354   4.8719
  4.350   4.8101
  4.347   4.7586
  4.343   4.7895
  4.340   4.8925
  4.336   4.9131
  4.332   4.8616
  4.329   4.8822
  4.325   4.9028
  4.321   4.8307
  4.318   4.8204
  4.314   4.8719
  4.311   4.8410
  4.307   4.8719
  4.304   4.7895
  4.300   4.7277
  4.296   4.7689
  4.293   4.8719
  4.289   4.8719
  4.286   4.8204
  4.282   4.8101
  4.279   4.8307
  4.275   4.7792
  4.272   4.7483
  4.268   4.7895
  4.265   4.8822
  4.261   4.9234
  4.258   4.8719
  4.254   4.8822
  4.251   4.8822
  4.247   4.8513
  4.244   4.8719
  4.240   4.8513
  4.237   4.8307
  4.233   4.8101
  4.230   4.8513
  4.226   4.8925
  4.223   4.8925
  4.219   4.9028
  4.216   4.9028
  4.213   4.8513
  4.209   4.8719
  4.206   4.9028
  4.202   4.9337
  4.199   4.9131
  4.196   4.9440
  4.192   4.9646
  4.189   4.9543
  4.185   4.9028
  4.182   4.8616
  4.179   4.8410
  4.175   4.8719
  4.172   4.9131
  4.169   4.9440
  4.165   4.9234
  4.162   4.8719
  4.159   4.8616
  4.155   4.9440
  4.152   4.9440
  4.149   4.9131
  4.145   4.9646
  4.142   5.0058
  4.139   4.9440
  4.135   4.9131
  4.132   4.9028
  4.129   4.9337
  4.126   4.9234
  4.122   4.8513
  4.119   4.8513
  4.116   4.8616
  4.112   4.9028
  4.109   4.9749
  4.106   4.9131
  4.103   4.8307
  4.099   4.8307
  4.096   4.8410
  4.093   4.8307
  4.090   4.8513
  4.086   4.8410
  4.083   4.8822
  4.080   4.9337
  4.077   4.9028
  4.074   4.8513
  4.070   4.9131
  4.067   4.8822
  4.064   4.8513
  4.061   4.8616
  4.058   4.8513
  4.055   4.8513
  4.051   4.8822
  4.048   4.8822
  4.045   4.9440
  4.042   4.9440
  4.039   4.8925
  4.036   4.8204
  4.032   4.8410
  4.029   4.9337
  4.026   4.9852
  4.023   4.9131
  4.020   4.9028
  4.017   4.8616
  4.014   4.8101
  4.011   4.8101
  4.008   4.9234
  4.004   4.9646
  4.001   4.9543
  3.998   4.9852
  3.995   4.9440
  3.992   4.9440
  3.989   5.0264
  3.986   4.8822
  3.983   4.7998
  3.980   4.7792
  3.977   4.8513
  3.974   4.9234
  3.971   4.9749
  3.968   4.9646
  3.965   4.9234
  3.962   4.8513
  3.959   4.8307
  3.956   4.9131
  3.953   4.8616
  3.950   4.7998
  3.947   4.9543
  3.944   4.9955
  3.941   4.8925
  3.938   4.8307
  3.935   4.8925
  3.932   4.8822
  3.929   4.8719
  3.926   4.8513
  3.923   4.8719
  3.920   4.9028
  3.917   4.9749
  3.914   4.9749
  3.911   4.9543
  3.908   4.9337
  3.905   4.9440
  3.902   4.8925
  3.899   4.8822
  3.896   4.8204
  3.893   4.7895
  3.890   4.8925
  3.887   4.9234
  3.884   4.9028
  3.882   4.9131
  3.879   4.9131
  3.876   4.9852
  3.873   4.9749
  3.870   4.8822
  3.867   4.8307
  3.864   4.9131
  3.861   5.0058
  3.858   4.9955
  3.856   4.9234
  3.853   4.9543
  3.850   4.9028
  3.847   4.8204
  3.844   4.8307
  3.841   4.8513
  3.838   4.8307
  3.836   4.8616
  3.833   4.8307
  3.830   4.9028
  3.827   5.0161
  3.824   4.9852
  3.822   4.9234
  3.819   4.9337
  3.816   4.8822
  3.813   4.8925
  3.810   4.8719
  3.807   4.8513
  3.805   4.8616
  3.802   4.9234
  3.799   4.8925
  3.796   4.8616
  3.794   4.8616
  3.791   4.8410
  3.788   4.8204
  3.785   4.8616
  3.782   4.9028
  3.780   4.9440
  3.777   4.9543
  3.774   4.8925
  3.771   4.9131
  3.769   4.9852
  3.766   4.9543
  3.763   5.0161
  3.761   5.0161
  3.758   5.0161
  3.755   4.9749
  3.752   4.8925
  3.750   4.8410
  3.747   4.8410
  3.744   4.8616
  3.742   4.8925
  3.739   4.9131
  3.736   4.9234
  3.733   4.8307
  3.731   4.7586
  3.728   4.7895
  3.725   4.8822
  3.723   4.8719
  3.720   4.8307
  3.717   4.8101
  3.715   4.8307
  3.712   4.8513
  3.709   4.8410
  3.707   4.8204
  3.704   4.8410
  3.702   4.8925
  3.699   4.9440
  3.696   4.9543
  3.694   4.9646
  3.691   4.9234
  3.688   4.8204
  3.686   4.8410
  3.683   4.9234
  3.680   4.9131
  3.678   4.8410
  3.675   4.8101
  3.673   4.9234
  3.670   4.8719
  3.667   4.8513
  3.665   4.8204
  3.662   4.8822
  3.660   4.9337
  3.657   4.8925
  3.655   4.8410
  3.652   4.7792
  3.649   4.6968
  3.647   4.7586
  3.644   4.8822
  3.642   4.9131
  3.639   4.8410
  3.637   4.7998
  3.634   4.8719
  3.632   4.9028
  3.629   4.8616
  3.626   4.8822
  3.624   4.8204
  3.621   4.8204
  3.619   4.8925
  3.616   4.8925
  3.614   4.8513
  3.611   4.9543
  3.609   4.9131
  3.606   4.8307
  3.604   4.7380
  3.601   4.7277
  3.599   4.7483
  3.596   4.8513
  3.594   4.9131
  3.591   4.9440
  3.589   4.9028
  3.586   4.8822
  3.584   4.8513
  3.581   4.8513
  3.579   4.7586
  3.576   4.7792
  3.574   4.7895
  3.571   4.8101
  3.569   4.8101
  3.567   4.7792
  3.564   4.7895
  3.562   4.8307
  3.559   4.8204
  3.557   4.8204
  3.554   4.7792
  3.552   4.8410
  3.549   4.8513
  3.547   4.7998
  3.545   4.7380
  3.542   4.8101
  3.540   4.8822
  3.537   4.8101
  3.535   4.7483
  3.533   4.8410
  3.530   4.8101
  3.528   4.8204
  3.525   4.7895
  3.523   4.7792
  3.521   4.8204
  3.518   4.7895
  3.516   4.7277
  3.513   4.7689
  3.511   4.7689
  3.509   4.6453
  3.506   4.5320
  3.504   4.6556
  3.502   4.7071
  3.499   4.6247
  3.497   4.6556
  3.494   4.7792
  3.492   4.6762
  3.490   4.6968
  3.487   4.6659
  3.485   4.6659
  3.483   4.6865
  3.480   4.6968
  3.478   4.6659
  3.476   4.6762
  3.473   4.6968
  3.471   4.6762
  3.469   4.6968
  3.466   4.6968
  3.464   4.7277
  3.462   4.7998
  3.460   4.7998
  3.457   4.6350
  3.455   4.6247
  3.453   4.7483
  3.450   4.7380
  3.448   4.6659
  3.446   4.5835
  3.443   4.5011
  3.441   4.4187
  3.439   4.5835
  3.437   4.7689
  3.434   4.7689
  3.432   4.7277
  3.430   4.7174
  3.428   4.6556
  3.425   4.6659
  3.423   4.6144
  3.421   4.5217
  3.418   4.4084
  3.416   4.5011
  3.414   4.5938
  3.412   4.6247
  3.409   4.5835
  3.407   4.5217
  3.405   4.4805
  3.403   4.6453
  3.401   4.7380
  3.398   4.7277
  3.396   4.6350
  3.394   4.6144
  3.392   4.6453
  3.389   4.6865
  3.387   4.5938
  3.385   4.5835
  3.383   4.5217
  3.381   4.4290
  3.378   4.4187
  3.376   4.5011
  3.374   4.5835
  3.372   4.6041
  3.370   4.5423
  3.367   4.5835
  3.365   4.6144
  3.363   4.6968
  3.361   4.6144
  3.359   4.5217
  3.357   4.4908
  3.354   4.5217
  3.352   4.6247
  3.350   4.6659
  3.348   4.5938
  3.346   4.5835
  3.344   4.5114
  3.341   4.5732
  3.339   4.6453
  3.337   4.6247
  3.335   4.6350
  3.333   4.6041
  3.331   4.5114
  3.329   4.4908
  3.326   4.5835
  3.324   4.6865
  3.322   4.6659
  3.320   4.5423
  3.318   4.4496
  3.316   4.5320
  3.314   4.6350
  3.312   4.6453
  3.309   4.5835
  3.307   4.5732
  3.305   4.5938
  3.303   4.6659
  3.301   4.6041
  3.299   4.5320
  3.297   4.5526
  3.295   4.5423
  3.293   4.5011
  3.291   4.5629
  3.288   4.4805
  3.286   4.4805
  3.284   4.5217
  3.282   4.4805
  3.280   4.4599
  3.278   4.5114
  3.276   4.4908
  3.274   4.5938
  3.272   4.5217
  3.270   4.4599
  3.268   4.5732
  3.266   4.5423
  3.264   4.4084
  3.262   4.4084
  3.259   4.4702
  3.257   4.5217
  3.255   4.5629
  3.253   4.5835
  3.251   4.5320
  3.249   4.4908
  3.247   4.6247
  3.245   4.6453
  3.243   4.4805
  3.241   4.4084
  3.239   4.3878
  3.237   4.3672
  3.235   4.3260
  3.233   4.4084
  3.231   4.4702
  3.229   4.5217
  3.227   4.5320
  3.225   4.5217
  3.223   4.4393
  3.221   4.2951
  3.219   4.3775
  3.217   4.5835
  3.215   4.5835
  3.213   4.5011
  3.211   4.4187
  3.209   4.3466
  3.207   4.2642
  3.205   4.3363
  3.203   4.3363
  3.201   4.3672
  3.199   4.4599
  3.197   4.5320
  3.195   4.4084
  3.193   4.3569
  3.191   4.3569
  3.189   4.4702
  3.187   4.4496
  3.185   4.3981
  3.183   4.4908
  3.182   4.4393
  3.180   4.3466
  3.178   4.3157
  3.176   4.3672
  3.174   4.4702
  3.172   4.4084
  3.170   4.3981
  3.168   4.3981
  3.166   4.4599
  3.164   4.5835
  3.162   4.4496
  3.160   4.3260
  3.158   4.3878
  3.156   4.3672
  3.154   4.3569
  3.152   4.3363
  3.151   4.4187
  3.149   4.3157
  3.147   4.2642
  3.145   4.2745
  3.143   4.2745
  3.141   4.3363
  3.139   4.4908
  3.137   4.5217
  3.135   4.5011
  3.133   4.2848
  3.132   4.2745
  3.130   4.3775
  3.128   4.5011
  3.126   4.4702
  3.124   4.3363
  3.122   4.1818
  3.120   4.2127
  3.118   4.2436
  3.117   4.3157
  3.115   4.2642
  3.113   4.3157
  3.111   4.4702
  3.109   4.6144
  3.107   4.4805
  3.105   4.4290
  3.103   4.3260
  3.102   4.2539
  3.100   4.3466
  3.098   4.4599
  3.096   4.4084
  3.094   4.3054
  3.092   4.2951
  3.091   4.3363
  3.089   4.2436
  3.087   4.2230
  3.085   4.2642
  3.083   4.3157
  3.081   4.3054
  3.079   4.4187
  3.078   4.5423
  3.076   4.5011
  3.074   4.3878
  3.072   4.3878
  3.070   4.2230
  3.069   4.1200
  3.067   4.2024
  3.065   4.2848
  3.063   4.2333
  3.061   4.3466
  3.060   4.3569
  3.058   4.2848
  3.056   4.2642
  3.054   4.3054
  3.052   4.3157
  3.051   4.3878
  3.049   4.3260
  3.047   4.2436
  3.045   4.2848
  3.043   4.4908
  3.042   4.3775
  3.040   4.2951
  3.038   4.3672
  3.036   4.3672
  3.034   4.3466
  3.033   4.4290
  3.031   4.4187
  3.029   4.2642
  3.027   4.1715
  3.026   4.2848
  3.024   4.2745
  3.022   4.2333
  3.020   4.3569
  3.019   4.5320
  3.017   4.3569
  3.015   4.1406
  3.013   4.1818
  3.012   4.3260
  3.010   4.2745
  3.008   4.2642
  3.006   4.2127
  3.005   4.2745
  3.003   4.3878
  3.001   4.4187
  2.999   4.3260
  2.998   4.2539
  2.996   4.1715
  2.994   4.2848
  2.992   4.3157
  2.991   4.3363
  2.989   4.4187
  2.987   4.3672
  2.986   4.2951
  2.984   4.3363
  2.982   4.1715
  2.980   4.0994
  2.979   4.3775
  2.977   4.5114
  2.975   4.4496
  2.974   4.3363
  2.972   4.2951
  2.970   4.4084
  2.968   4.2436
  2.967   4.2539
  2.965   4.3260
  2.963   4.3466
  2.962   4.3363
  2.960   4.2230
  2.958   4.1612
  2.957   4.3260
  2.955   4.2642
  2.953   4.1509
  2.952   3.9964
  2.950   4.0376
  2.948   4.2333
  2.947   4.2539
  2.945   4.1818
  2.943   4.2745
  2.942   4.2745
  2.940   4.3569
  2.938   4.4702
  2.937   4.4084
  2.935   4.2745
  2.933   4.1612
  2.932   4.3981
  2.930   4.5114
  2.928   4.2539
  2.927   4.2436
  2.925   4.2951
  2.923   4.4805
  2.922   4.3672
  2.920   4.2230
  2.918   4.1612
  2.917   4.1921
  2.915   4.1921
  2.913   4.3157
  2.912   4.3878
  2.910   4.4599
  2.909   4.4599
  2.907   4.3569
  2.905   4.2642
  2.904   4.3672
  2.902   4.4908
  2.900   4.4702
  2.899   4.3260
  2.897   4.3569
  2.896   4.3878
  2.894   4.3157
  2.892   4.1406
  2.891   4.1612
  2.889   4.2539
  2.887   4.3981
  2.886   4.3466
  2.884   4.2127
  2.883   3.9655
  2.881   4.2745
  2.879   4.5629
  2.878   4.4599
  2.876   4.2642
  2.875   4.3363
  2.873   4.2333
  2.871   4.0479
  2.870   4.0891
  2.868   4.1921
  2.867   4.2024
  2.865   4.2642
  2.864   4.2230
  2.862   4.1715
  2.860   4.3466
  2.859   4.5629
  2.857   4.4496
  2.856   4.4290
  2.854   4.3775
  2.853   4.2642
  2.851   4.1715
  2.849   4.2745
  2.848   4.2642
  2.846   4.3260
  2.845   4.3878
  2.843   4.3260
  2.842   4.3363
  2.840   4.4290
  2.838   4.3569
  2.837   4.4187
  2.835   4.4393
  2.834   4.3981
  2.832   4.4290
  2.831   4.4599
  2.829   4.3054
  2.828   4.2745
  2.826   4.1612
  2.825   4.3878
  2.823   4.5938
  2.821   4.6247
  2.820   4.6041
  2.818   4.4393
  2.817   4.0994
  2.815   4.1303
  2.814   4.1818
  2.812   4.2230
  2.811   4.4187
  2.809   4.4805
  2.808   4.3260
  2.806   4.3054
  2.805   4.4290
  2.803   4.6041
  2.802   4.6247
  2.800   4.7277
  2.799   4.5732
  2.797   4.3466
  2.796   4.3569
  2.794   4.5732
  2.793   4.5835
  2.791   4.6041
  2.790   4.3466
  2.788   4.2848
  2.787   4.4599
  2.785   4.5526
  2.784   4.4290
  2.782   4.4599
  2.781   4.6144
  2.779   4.6556
  2.778   4.3260
  2.776   4.5217
  2.775   4.6968
  2.773   4.5114
  2.772   4.4290
  2.770   4.6247
  2.769   4.6041
  2.767   4.4187
  2.766   4.2024
  2.764   4.2436
  2.763   4.3363
  2.761   4.4599
  2.760   4.5114
  2.758   4.4290
  2.757   4.1715
  2.756   4.2745
  2.754   4.5011
  2.753   4.6968
  2.751   4.5526
  2.750   4.4805
  2.748   4.5217
  2.747   4.4908
  2.745   4.5423
  2.744   4.6041
  2.742   4.5114
  2.741   4.4187
  2.740   4.5011
  2.738   4.8822
  2.737   5.0779
  2.735   4.8616
  2.734   4.5835
  2.732   4.7277
  2.731   4.9646
  2.729   4.9646
  2.728   4.7998
  2.727   5.0573
  2.725   5.2530
  2.724   5.2221
  2.722   5.2221
  2.721   5.2736
  2.719   5.2324
  2.718   5.2221
  2.717   5.3457
  2.715   5.0676
  2.714   4.9749
  2.712   5.0882
  2.711   5.0573
  2.709   5.3045
  2.708   5.2015
  2.707   5.3972
  2.705   5.6238
  2.704   5.5723
  2.702   5.5002
  2.701   5.5311
  2.700   5.4590
  2.698   5.4487
  2.697   5.3766
  2.695   5.3972
  2.694   5.6238
  2.693   5.7268
  2.691   5.6444
  2.690   5.6238
  2.688   5.4384
  2.687   5.5517
  2.686   5.8401
  2.684   5.9431
  2.683   5.8401
  2.681   5.8916
  2.680   6.0049
  2.679   6.1079
  2.677   6.1079
  2.676   5.8813
  2.675   5.5723
  2.673   5.6650
  2.672   5.7474
  2.670   5.6444
  2.669   5.4590
  2.668   5.5002
  2.666   5.8092
  2.665   6.0358
  2.664   5.9019
  2.662   5.7474
  2.661   5.9431
  2.659   6.0255
  2.658   5.7577
  2.657   5.7783
  2.655   5.9534
  2.654   6.0667
  2.653   5.8710
  2.651   5.9019
  2.650   5.9843
  2.649   6.0049
  2.647   6.0667
  2.646   6.2109
  2.645   6.1697
  2.643   6.2212
  2.642   6.2315
  2.640   6.0976
  2.639   6.1182
  2.638   6.0255
  2.636   5.5929
  2.635   5.4899
  2.634   5.6341
  2.632   5.4899
  2.631   5.3972
  2.630   5.7783
  2.628   5.9225
  2.627   5.8504
  2.626   5.7886
  2.624   5.8504
  2.623   5.9946
  2.622   6.1388
  2.620   5.9328
  2.619   5.6959
  2.618   5.6753
  2.617   5.7680
  2.615   5.9534
  2.614   6.2315
  2.613   5.9637
  2.611   6.0255
  2.610   6.1800
  2.609   5.9637
  2.607   5.7577
  2.606   5.8916
  2.605   6.1800
  2.603   6.3654
  2.602   6.2933
  2.601   6.0976
  2.599   5.7989
  2.598   5.8092
  2.597   5.7680
  2.596   5.7165
  2.594   5.9431
  2.593   6.1182
  2.592   5.9740
  2.590   5.7474
  2.589   5.4899
  2.588   5.6135
  2.586   5.9019
  2.585   6.2109
  2.584   6.1491
  2.583   5.9225
  2.581   5.8916
  2.580   6.0255
  2.579   6.0873
  2.577   5.9534
  2.576   5.7165
  2.575   5.8401
  2.574   6.1182
  2.572   5.7783
  2.571   5.6032
  2.570   5.9019
  2.569   5.9328
  2.567   5.9946
  2.566   5.9637
  2.565   5.8607
  2.563   5.9946
  2.562   6.2006
  2.561   6.1800
  2.560   6.0873
  2.558   6.0461
  2.557   6.0564
  2.556   5.8607
  2.555   5.9637
  2.553   6.0564
  2.552   5.7989
  2.551   5.7680
  2.550   6.0873
  2.548   6.1182
  2.547   6.2418
  2.546   6.1903
  2.545   5.9946
  2.543   5.9740
  2.542   6.1594
  2.541   6.3242
  2.540   6.1800
  2.538   5.9534
  2.537   6.0049
  2.536   5.8401
  2.535   6.0152
  2.533   6.3448
  2.532   6.3242
  2.531   6.0976
  2.530   6.0770
  2.528   5.9740
  2.527   6.0873
  2.526   6.1903
  2.525   6.1594
  2.524   6.0564
  2.522   6.2006
  2.521   6.2109
  2.520   6.1800
  2.519   6.0976
  2.517   6.2418
  2.516   6.0049
  2.515   5.7165
  2.514   5.6444
  2.513   5.6135
  2.511   5.7371
  2.510   6.0770
  2.509   6.3036
  2.508   6.3757
  2.506   6.2109
  2.505   5.9843
  2.504   6.0770
  2.503   5.8401
  2.502   5.7268
  2.500   6.0770
  2.496   6.4285
  2.492   6.1113
  2.488   5.4387
  2.484   6.0696
  2.480   5.8964
  2.476   6.3443
  2.472   5.9537
  2.468   6.0841
  2.464   5.8324
  2.460   6.5221
  2.456   6.2613
  2.452   6.1953
  2.448   6.2607
  2.444   6.0177
  2.440   6.1679
  2.436   6.1037
  2.432   5.8969
  2.428   6.6400
  2.424   6.3853
  2.420   6.0915
  2.416   6.0535
  2.412   6.1667
  2.408   5.9461
  2.404   6.2048
  2.400   6.6341
  2.396   6.5214
  2.392   6.5475
  2.388   6.2681
  2.384   6.4806
  2.380   6.3270
  2.376   6.5502
  2.372   6.4699
  2.368   6.2692
  2.364   6.4809
  2.360   6.6600
  2.356   6.5730
  2.352   6.6577
  2.348   6.7191
  2.344   6.1091
  2.340   6.1009
  2.336   6.3252
  2.332   6.6715
  2.328   6.9183
  2.324   6.5911
  2.320   6.3703
  2.316   6.6688
  2.312   6.5918
  2.308   6.6783
  2.304   6.4346
  2.300   6.6880
  2.296   6.9003
  2.292   6.3757
  2.288   6.4796
  2.284   6.7039
  2.280   6.7308
  2.276   6.6034
  2.272   6.5123
  2.268   6.4742
  2.264   6.6046
  2.260   6.8484
  2.256   6.6055
  2.252   6.6945
  2.248   6.7558
  2.244   6.6033
  2.240   6.6998
  2.236   6.6783
  2.232   6.6509
  2.228   6.8025
  2.224   6.7624
  2.220   6.6385
  2.216   6.6733
  2.212   6.7283
  2.208   6.7700
  2.204   6.8017
  2.200   6.7251
  2.196   6.8634
  2.192   7.0538
  2.188   6.8048
  2.184   6.8160
  2.180   6.9807
  2.176   6.8840
  2.172   6.8878
  2.168   7.0532
  2.164   7.0893
  2.160   6.9927
  2.156   6.9716
  2.152   6.9774
  2.148   7.0364
  2.144   7.1237
  2.140   7.0839
  2.136   6.9862
  2.132   7.0014
  2.128   6.9644
  2.124   7.1078
  2.120   7.0062
  2.116   7.0071
  2.112   7.0017
  2.108   6.9315
  2.104   6.9180
  2.100   6.9429
  2.096   6.9880
  2.092   6.9995
  2.088   6.9752
  2.084   6.9362
  2.080   6.9908
  2.076   7.0582
  2.072   7.0293
  2.068   7.0827
  2.064   7.0478
  2.060   7.0442
  2.056   7.0916
  2.052   7.0906
  2.048   7.0839
  2.044   7.1193
  2.040   7.1654
  2.036   7.1859
  2.032   7.1336
  2.028   7.1240
  2.024   7.1608
  2.020   7.1826
  2.016   7.1861
  2.012   7.1921
  2.008   7.2179
  2.004   7.1932
  2.000   7.2033
  1.996   7.2358
  1.992   7.2465
  1.988   7.2741
  1.984   7.2759
  1.980   7.2507
  1.976   7.2799
  1.972   7.3207
  1.968   7.2907
  1.964   7.3371
  1.960   7.3186
  1.956   7.2998
  1.952   7.3318
  1.948   7.4145
  1.944   7.4425
  1.940   7.3609
  1.936   7.3018
  1.932   7.2324
  1.928   7.2818
  1.924   7.2690
  1.920   7.2039
  1.916   7.1762
  1.912   7.1097
  1.908   7.1277
  1.904   7.0824
  1.900   7.0903
  1.896   7.1561
  1.892   7.1237
  1.888   7.0808
  1.884   7.1318
  1.880   7.2386
  1.876   7.3146
  1.872   7.3719
  1.868   7.3342
  1.864   7.2660
  1.860   7.2847
  1.856   7.3356
  1.852   7.3573
  1.848   7.3652
  1.844   7.4023
  1.840   7.4209
  1.836   7.4266
  1.832   7.3948
  1.828   7.3451
  1.824   7.3046
  1.820   7.2993
  1.816   7.3654
  1.812   7.4258
  1.808   7.4011
  1.804   7.3692
  1.800   7.4030
  1.796   7.4526
  1.792   7.4768
  1.788   7.4870
  1.784   7.5300
  1.780   7.5486
  1.776   7.5559
  1.772   7.5693
  1.768   7.5341
  1.764   7.5448
  1.760   7.5382
  1.756   7.5326
  1.752   7.5285
  1.748   7.5007
  1.744   7.5303
  1.740   7.5516
  1.736   7.5595
  1.732   7.5593
  1.728   7.5416
  1.724   7.5826
  1.720   7.5900
  1.716   7.5737
  1.712   7.5711
  1.708   7.5928
  1.704   7.5754
  1.700   7.5954
  1.696   7.6172
  1.692   7.6251
  1.688   7.6832
  1.684   7.6944
  1.680   7.7006
  1.676   7.6532
  1.672   7.6062
  1.668   7.6158
  1.664   7.6506
  1.660   7.6108
  1.656   7.6080
  1.652   7.6007
  1.648   7.5945
  1.644   7.6045
  1.640   7.6319
  1.636   7.6236
  1.632   7.6044
  1.628   7.6103
  1.624   7.6370
  1.620   7.6168
  1.616   7.5962
  1.612   7.6203
  1.608   7.6497
  1.604   7.6192
  1.600   7.6010
  1.596   7.5638
  1.592   7.6195
  1.588   7.6506
  1.584   7.6474
  1.580   7.6011
  1.576   7.6327
  1.572   7.6918
  1.568   7.6618
  1.564   7.6099
  1.560   7.6466
  1.556   7.6863
  1.552   7.6620
  1.548   7.6223
  1.544   7.6611
  1.540   7.6466
  1.536   7.6772
  1.532   7.6674
  1.528   7.6536
  1.524   7.6521
  1.520   7.6374
  1.516   7.6655
  1.512   7.7330
  1.508   7.6902
  1.504   7.6822
  1.500   7.6964
  1.496   7.6846
  1.492   7.6972
  1.488   7.7297
  1.484   7.7231
  1.480   7.7097
  1.476   7.7113
  1.472   7.7032
  1.468   7.7479
  1.464   7.7356
  1.460   7.7305
  1.456   7.7395
  1.452   7.7578
  1.448   7.7277
  1.444   7.7682
  1.440   7.7611
  1.436   7.7095
  1.432   7.7201
  1.428   7.7843
  1.424   7.7754
  1.420   7.7899
  1.416   7.7418
  1.412   7.7533
  1.408   7.7538
  1.404   7.7866
  1.400   7.7834
  1.396   7.7760
  1.392   7.7876
  1.388   7.7823
  1.384   7.8187
  1.380   7.8560
  1.376   7.7927
  1.372   7.7774
  1.368   7.8905
  1.364   7.9787
  1.360   7.8200
  1.356   7.7344
  1.352   7.6923
  1.348   7.7465
  1.344   7.8706
  1.340   7.8940
  1.336   7.8456
  1.332   7.8806
  1.328   7.8466
  1.324   7.7956
  1.320   7.7970
  1.316   7.7998
  1.312   7.8208
  1.308   7.8100
  1.304   7.8128
  1.300   7.8544
  1.296   7.8768
  1.292   7.8803
  1.288   7.8816
  1.284   7.8577
  1.280   7.8636
  1.276   7.9195
  1.272   7.8962
  1.268   7.8919
  1.264   7.9345
  1.260   7.8591
  1.256   7.9107
  1.252   7.9242
  1.248   8.0104
  1.244   7.8976
  1.240   7.9171
  1.236   7.9214
  1.232   7.9991
  1.228   8.0055
  1.224   7.9688
  1.220   7.9653
  1.216   7.9723
  1.212   7.9698
  1.208   8.0055
  1.204   7.9835
  1.200   7.9963
  1.196   8.0289
  1.192   8.0155
  1.188   8.0990
  1.184   8.0215
  1.180   8.0076
  1.176   8.0616
  1.172   8.1201
  1.168   8.1583
  1.164   8.1185
  1.160   8.1250
  1.156   8.1563
  1.152   8.1624
  1.148   8.1654
  1.144   8.2269
  1.140   8.1907
  1.136   8.1634
  1.132   8.2395
  1.128   8.1825
  1.124   8.2492
  1.120   8.2284
  1.116   8.2362
  1.112   8.2111
  1.108   8.2903
  1.104   8.2584
  1.100   8.3192
  1.096   8.3235
  1.092   8.3425
  1.088   8.3024
  1.084   8.3315
  1.080   8.3382
  1.076   8.3470
  1.072   8.3886
  1.068   8.3526
  1.064   8.3368
  1.060   8.3635
  1.056   8.4452
  1.052   8.4963
  1.048   8.4685
  1.044   8.4473
  1.040   8.4915
  1.036   8.4986
  1.032   8.5233
  1.028   8.5528
  1.024   8.5804
  1.020   8.6060
  1.016   8.6292
  1.012   8.6706
  1.008   8.6495
  1.004   8.6757
  1.000   8.7470
  0.996   8.7857
  0.992   8.8461
  0.988   8.8428
  0.984   8.8508
  0.980   8.9153
  0.976   8.9306
  0.972   8.9857
  0.968   8.9917
  0.964   9.0430
  0.960   9.0922
  0.956   9.1656
  0.952   9.1587
  0.948   9.1885
  0.944   9.2773
  0.940   9.3062
  0.936   9.2870
  0.932   9.3371
  0.928   9.4307
  0.924   9.6220
  0.920   9.6506
  0.916   9.6558
  0.912   9.7633
  0.908   9.9026
  0.904   9.8751
  0.900   9.8253
  0.896   9.8831
  0.892   9.9334
  0.888   9.8778
  0.884  10.0256
  0.880  10.1420
  0.876  10.1736
  0.872   9.9982
  0.868   9.8125
  0.864   9.9418
  0.860  10.2862
  0.856  10.2792
  0.852   9.9800
  0.848   9.9413
  0.844   9.9677
  0.840   9.9764
  0.836  10.0127
  0.832  10.0626
  0.828  10.0897
  0.824  10.1132
  0.820  10.1795
  0.816  10.2614
  0.812  10.2627
  0.808  10.2354
  0.804  10.2579
  0.800  10.3110
  0.796  10.3307
  0.792  10.3183
  0.788  10.3297
  0.784  10.3352
  0.780  10.3742
  0.776  10.4240
  0.772  10.4453
  0.768  10.4261
  0.764  10.4658
  0.760  10.5075
  0.756  10.5288
  0.752  10.5535
  0.748  10.5925
  0.744  10.6000
  0.740  10.6282
  0.736  10.6512
  0.732  10.6894
  0.728  10.7110
  0.724  10.7106
  0.720  10.7270
  0.716  10.7648
  0.712  10.7784
  0.708  10.7902
  0.704  10.8174
  0.700  10.8348
  0.696  10.8621
  0.692  10.8908
  0.688  10.9043
  0.684  10.9407
  0.680  10.9723
  0.676  10.9906
  0.672  11.0227
  0.668  11.0402
  0.664  11.0409
  0.660  11.0858
  0.656  11.1406
  0.652  11.1591
  0.648  11.1729
  0.644  11.1945
  0.640  11.2237
  0.636  11.2577
  0.632  11.2814
  0.628  11.3138
  0.624  11.3507
  0.620  11.3656
  0.616  11.3898
  0.612  11.4301
  0.608  11.4685
  0.604  11.4931
  0.600  11.5275
  0.596  11.5709
  0.592  11.5854
  0.588  11.5986
  0.584  11.6351
  0.580  11.6726
  0.576  11.7084
  0.572  11.7467
  0.568  11.7595
  0.564  11.7907
  0.560  11.8200
  0.556  11.8364
  0.552  11.8769
  0.548  11.9132
  0.544  11.9324
  0.540  11.9675
  0.536  12.0017
  0.532  12.0258
  0.528  12.0667
  0.524  12.1041
  0.520  12.1244
  0.516  12.1507
  0.512  12.1950
  0.508  12.2227
  0.504  12.2513
  0.500  12.2877
  0.496  12.3067
  0.492  12.3122
  0.488  12.3302
  0.484  12.3558
  0.480  12.3952
  0.476  12.4458
  0.472  12.4858
  0.468  12.5364
  0.464  12.5821
  0.460  12.6206
  0.456  12.6493
  0.452  12.6640
  0.448  12.7090
  0.444  12.7549
  0.440  12.8007
  0.436  12.8498
  0.432  12.9004
  0.428  12.9091
  0.424  12.9360
  0.420  12.9658
  0.416  12.9803
  0.412  13.0036
  0.408  13.0389
  0.404  13.0586
  0.400  13.0599
