Name: Rhyolite
Type: Rock
Class: Igneous
Subclass: Felsic
Particle Size: Whole Rock Chips
Sample No.: AP-939-223
Owner: United States Geological Survey, L. C. Rowan
Wavelength range: 0.405 - 14.05 um
Origin: Iberian Pyrite Belt, Spain

Description: Rhyolite, white, altered





Measurement: Directional Hemispherical Reflectance
First Column: X
Second Column: Y
X Units: Wavelength (micrometers)
Y Units: Reflectance (percent)
First X Value: 14.05105
Last X Value: 0.40500
Number of X Values: 2530
Additional Information: rhy223a.txt

 14.051   2.0497
 14.013   1.7407
 13.975   1.9364
 13.938   2.0909
 13.900   2.3072
 13.863   2.2145
 13.826   2.1527
 13.790   2.1939
 13.753   2.2660
 13.717   2.1218
 13.680   2.1939
 13.644   2.1012
 13.609   2.1321
 13.573   2.1527
 13.538   2.2248
 13.502   2.2557
 13.467   2.3690
 13.432   2.2763
 13.398   2.3484
 13.363   2.2969
 13.329   2.3175
 13.295   2.3072
 13.261   2.3587
 13.227   2.2351
 13.193   2.3072
 13.160   2.3690
 13.126   2.4205
 13.093   2.4308
 13.060   2.5132
 13.027   2.5647
 12.995   2.6780
 12.962   2.6883
 12.930   2.6883
 12.898   2.6162
 12.866   2.7604
 12.834   2.8016
 12.802   2.8531
 12.771   2.8737
 12.739   2.9767
 12.708   2.9252
 12.677   2.9355
 12.646   2.8840
 12.616   2.9252
 12.585   2.9767
 12.554   3.0282
 12.524   2.9870
 12.494   3.0591
 12.464   3.0282
 12.434   3.0488
 12.404   2.9252
 12.375   2.8840
 12.345   2.8531
 12.316   2.8634
 12.287   2.8222
 12.258   2.9046
 12.229   2.8840
 12.200   2.9458
 12.171   2.9767
 12.143   2.9973
 12.115   3.0385
 12.086   3.1209
 12.058   3.0385
 12.030   3.1106
 12.002   3.1930
 11.975   3.2857
 11.947   3.2754
 11.920   3.3372
 11.892   3.3578
 11.865   3.4299
 11.838   3.4608
 11.811   3.5123
 11.784   3.5123
 11.757   3.6256
 11.731   3.6153
 11.704   3.6668
 11.678   3.6874
 11.652   3.7080
 11.626   3.6977
 11.600   3.8522
 11.574   3.8934
 11.548   3.9346
 11.522   3.9140
 11.497   3.9449
 11.471   3.9552
 11.446   4.0170
 11.421   3.9861
 11.396   3.9964
 11.371   3.9449
 11.346   3.9243
 11.321   3.9140
 11.297   4.0170
 11.272   3.9552
 11.248   4.0376
 11.223   4.0273
 11.199   4.0273
 11.175   4.0273
 11.151   4.1509
 11.127   4.2230
 11.103   4.2642
 11.079   4.2539
 11.056   4.4084
 11.032   4.4187
 11.009   4.4187
 10.985   4.4599
 10.962   4.5320
 10.939   4.4084
 10.916   4.3363
 10.893   4.1509
 10.870   3.9655
 10.848   3.7389
 10.825   3.6462
 10.802   3.5535
 10.780   3.5535
 10.758   3.5432
 10.735   3.5226
 10.713   3.4402
 10.691   3.3887
 10.669   3.3475
 10.647   3.4093
 10.625   3.3578
 10.604   3.3269
 10.582   3.3269
 10.560   3.3887
 10.539   3.3784
 10.518   3.4299
 10.496   3.4608
 10.475   3.5432
 10.454   3.5741
 10.433   3.7080
 10.412   3.7492
 10.391   3.8831
 10.370   3.9346
 10.350   4.0170
 10.329   4.0685
 10.309   4.1406
 10.288   4.1818
 10.268   4.2230
 10.247   4.2436
 10.227   4.3775
 10.207   4.4908
 10.187   4.5629
 10.167   4.5526
 10.147   4.7174
 10.127   4.9131
 10.108   5.0882
 10.088   5.1603
 10.068   5.3457
 10.049   5.5723
 10.029   5.7783
 10.010   5.8607
  9.991   6.0461
  9.972   6.2418
  9.952   6.5508
  9.933   6.6332
  9.914   6.6744
  9.895   6.6641
  9.877   6.6229
  9.858   6.4272
  9.839   6.2830
  9.821   6.1079
  9.802   6.0770
  9.783   6.1491
  9.765   6.3654
  9.747   6.6332
  9.728   6.9628
  9.710   7.1997
  9.692   7.5705
  9.674   7.8486
  9.656   8.0752
  9.638   8.2400
  9.620   8.3739
  9.602   8.3945
  9.585   8.4666
  9.567   8.4151
  9.549   8.4151
  9.532   8.4254
  9.514   8.5490
  9.497   8.5593
  9.479   8.5490
  9.462   8.5078
  9.445   8.5902
  9.428   8.6211
  9.411   8.5902
  9.394   8.5490
  9.377   8.5902
  9.360   8.6314
  9.343   8.7962
  9.326   8.8168
  9.309   8.7859
  9.293   8.6726
  9.276   8.7550
  9.259   8.8889
  9.243   8.9610
  9.226   8.8168
  9.210   8.7859
  9.194   8.6829
  9.178   8.6108
  9.161   8.6005
  9.145   8.6108
  9.129   8.5078
  9.113   8.3842
  9.097   8.2297
  9.081   8.1061
  9.065   7.9104
  9.049   7.6632
  9.034   7.3130
  9.018   7.1173
  9.002   6.9628
  8.987   6.8495
  8.971   6.8392
  8.956   6.9937
  8.940   7.0864
  8.925   7.2718
  8.909   7.4778
  8.894   7.6529
  8.879   7.6426
  8.864   7.5190
  8.849   7.3645
  8.834   7.3130
  8.819   7.1997
  8.804   7.0658
  8.789   6.9113
  8.774   6.7568
  8.759   6.5302
  8.744   6.3551
  8.730   6.1594
  8.715   5.9019
  8.700   5.6753
  8.686   5.5517
  8.671   5.3354
  8.657   5.1500
  8.642   4.9028
  8.628   4.6350
  8.614   4.4393
  8.599   4.4084
  8.585   4.4702
  8.571   4.5629
  8.557   4.6350
  8.543   4.6659
  8.529   4.6762
  8.515   4.6659
  8.501   4.5011
  8.487   4.5114
  8.473   4.4393
  8.459   4.3672
  8.445   4.3054
  8.431   4.2230
  8.418   4.1406
  8.404   4.1509
  8.391   4.1303
  8.377   4.2024
  8.363   4.1200
  8.350   4.0685
  8.337   4.0788
  8.323   4.0994
  8.310   4.0376
  8.297   4.0273
  8.283   4.0582
  8.270   4.1303
  8.257   4.0891
  8.244   4.0685
  8.231   4.0582
  8.218   4.0582
  8.205   4.0067
  8.192   4.0067
  8.179   4.0376
  8.166   4.0685
  8.153   3.9346
  8.140   3.8110
  8.128   3.6462
  8.115   3.5741
  8.102   3.4505
  8.090   3.3681
  8.077   3.2960
  8.064   3.1930
  8.052   3.0179
  8.039   2.9046
  8.027   2.8737
  8.015   2.8222
  8.002   2.6883
  7.990   2.6368
  7.978   2.5647
  7.965   2.5338
  7.953   2.4411
  7.941   2.2969
  7.929   2.2660
  7.917   2.3072
  7.905   2.2351
  7.893   2.1733
  7.881   2.1012
  7.869   2.0600
  7.857   2.0085
  7.845   2.0188
  7.833   2.0085
  7.821   1.9570
  7.809   1.8437
  7.798   1.8437
  7.786   1.7819
  7.774   1.7510
  7.763   1.8025
  7.751   1.8128
  7.739   1.7510
  7.728   1.7819
  7.716   1.8128
  7.705   1.8025
  7.694   1.7819
  7.682   1.7613
  7.671   1.6583
  7.659   1.6068
  7.648   1.5965
  7.637   1.6171
  7.626   1.6377
  7.614   1.6377
  7.603   1.6377
  7.592   1.6377
  7.581   1.6480
  7.570   1.6995
  7.559   1.6789
  7.548   1.6686
  7.537   1.6068
  7.526   1.6377
  7.515   1.6274
  7.504   1.6274
  7.493   1.6377
  7.483   1.6274
  7.472   1.5965
  7.461   1.6480
  7.450   1.6892
  7.440   1.6995
  7.429   1.6789
  7.418   1.6892
  7.408   1.6789
  7.397   1.7716
  7.387   1.7613
  7.376   1.6995
  7.366   1.6377
  7.355   1.6892
  7.345   1.6686
  7.334   1.6377
  7.324   1.6480
  7.314   1.7098
  7.303   1.6583
  7.293   1.6377
  7.283   1.6789
  7.273   1.7407
  7.263   1.7613
  7.252   1.7819
  7.242   1.7819
  7.232   1.7922
  7.222   1.7613
  7.212   1.8025
  7.202   1.7510
  7.192   1.7613
  7.182   1.7407
  7.172   1.7510
  7.162   1.7613
  7.152   1.7716
  7.143   1.7716
  7.133   1.8540
  7.123   1.8025
  7.113   1.8437
  7.103   1.8746
  7.094   1.9055
  7.084   1.8952
  7.074   1.8746
  7.065   1.8849
  7.055   1.8746
  7.046   1.8334
  7.036   1.8334
  7.026   1.8128
  7.017   1.8849
  7.007   1.9158
  6.998   1.8952
  6.989   1.8746
  6.979   1.9261
  6.970   1.9158
  6.960   1.8849
  6.951   1.8643
  6.942   1.8849
  6.932   1.8643
  6.923   1.9261
  6.914   1.9570
  6.905   1.9570
  6.896   1.9879
  6.886   2.0291
  6.877   1.9467
  6.868   1.9467
  6.859   1.9673
  6.850   2.0291
  6.841   2.0291
  6.832   2.0497
  6.823   2.0703
  6.814   2.0909
  6.805   2.0806
  6.796   2.0497
  6.787   2.0703
  6.778   2.0703
  6.770   2.0909
  6.761   2.1630
  6.752   2.2042
  6.743   2.1939
  6.734   2.1424
  6.726   2.2351
  6.717   2.2866
  6.708   2.2660
  6.700   2.2557
  6.691   2.3278
  6.682   2.3175
  6.674   2.2660
  6.665   2.2763
  6.657   2.3278
  6.648   2.3484
  6.640   2.3999
  6.631   2.4102
  6.623   2.3587
  6.614   2.2660
  6.606   2.2866
  6.597   2.3381
  6.589   2.3381
  6.581   2.3072
  6.572   2.3278
  6.564   2.2557
  6.556   2.2454
  6.547   2.2763
  6.539   2.2763
  6.531   2.2248
  6.523   2.3072
  6.514   2.3690
  6.506   2.3484
  6.498   2.3072
  6.490   2.3484
  6.482   2.3690
  6.474   2.3999
  6.466   2.4102
  6.458   2.4205
  6.450   2.4102
  6.442   2.3793
  6.434   2.3793
  6.426   2.4308
  6.418   2.4823
  6.410   2.4926
  6.402   2.4720
  6.394   2.4411
  6.386   2.4205
  6.378   2.4823
  6.370   2.4720
  6.363   2.4617
  6.355   2.4720
  6.347   2.5132
  6.339   2.5132
  6.332   2.5029
  6.324   2.4617
  6.316   2.4720
  6.308   2.4823
  6.301   2.4514
  6.293   2.3793
  6.286   2.3587
  6.278   2.3587
  6.270   2.3484
  6.263   2.3381
  6.255   2.3381
  6.248   2.3278
  6.240   2.3072
  6.233   2.2145
  6.225   2.1630
  6.218   2.1424
  6.210   2.1115
  6.203   2.0909
  6.195   2.0703
  6.188   2.0703
  6.181   2.0291
  6.173   1.9467
  6.166   1.9467
  6.159   1.9467
  6.151   1.9364
  6.144   1.9673
  6.137   1.9879
  6.130   1.9776
  6.122   1.9982
  6.115   1.9879
  6.108   1.9673
  6.101   1.9467
  6.094   1.9467
  6.086   1.9364
  6.079   1.9570
  6.072   1.9879
  6.065   2.0497
  6.058   2.0394
  6.051   2.0497
  6.044   2.0909
  6.037   2.1115
  6.030   2.0600
  6.023   2.0497
  6.016   2.0600
  6.009   2.0909
  6.002   2.1527
  5.995   2.1939
  5.988   2.2248
  5.981   2.2454
  5.974   2.2248
  5.967   2.2454
  5.960   2.2454
  5.954   2.2351
  5.947   2.2248
  5.940   2.2351
  5.933   2.2866
  5.926   2.3278
  5.920   2.3793
  5.913   2.4205
  5.906   2.4205
  5.899   2.4308
  5.893   2.4720
  5.886   2.5029
  5.879   2.5132
  5.873   2.5853
  5.866   2.6368
  5.859   2.6677
  5.853   2.7295
  5.846   2.7398
  5.840   2.7295
  5.833   2.7398
  5.827   2.7604
  5.820   2.8222
  5.813   2.8634
  5.807   2.8840
  5.800   2.8737
  5.794   2.9149
  5.788   2.9973
  5.781   3.0694
  5.775   3.1003
  5.768   3.1003
  5.762   3.1003
  5.755   3.1209
  5.749   3.1003
  5.743   3.1003
  5.736   3.1724
  5.730   3.2239
  5.724   3.2651
  5.717   3.2960
  5.711   3.3475
  5.705   3.4093
  5.698   3.4093
  5.692   3.3372
  5.686   3.3166
  5.680   3.3578
  5.674   3.3681
  5.667   3.3990
  5.661   3.4093
  5.655   3.4196
  5.649   3.4093
  5.643   3.4505
  5.637   3.4711
  5.630   3.4402
  5.624   3.4093
  5.618   3.4608
  5.612   3.4814
  5.606   3.5020
  5.600   3.5020
  5.594   3.5020
  5.588   3.5123
  5.582   3.4917
  5.576   3.4093
  5.570   3.4299
  5.564   3.4608
  5.558   3.4814
  5.552   3.4917
  5.546   3.5432
  5.540   3.5535
  5.534   3.4917
  5.528   3.4299
  5.523   3.4711
  5.517   3.4814
  5.511   3.4917
  5.505   3.4917
  5.499   3.5329
  5.493   3.5329
  5.487   3.5226
  5.482   3.5329
  5.476   3.5123
  5.470   3.4917
  5.464   3.5638
  5.459   3.5947
  5.453   3.6153
  5.447   3.6050
  5.441   3.5741
  5.436   3.5844
  5.430   3.6359
  5.424   3.6462
  5.419   3.6565
  5.413   3.6565
  5.407   3.6359
  5.402   3.6153
  5.396   3.5844
  5.390   3.5535
  5.385   3.5432
  5.379   3.5226
  5.374   3.5123
  5.368   3.5329
  5.363   3.5329
  5.357   3.4814
  5.352   3.5020
  5.346   3.5329
  5.341   3.5020
  5.335   3.4814
  5.330   3.5123
  5.324   3.5947
  5.319   3.6256
  5.313   3.5741
  5.308   3.5535
  5.302   3.6050
  5.297   3.6668
  5.291   3.6771
  5.286   3.6977
  5.281   3.7080
  5.275   3.7286
  5.270   3.7389
  5.265   3.7492
  5.259   3.8213
  5.254   3.8831
  5.249   3.8728
  5.243   3.8625
  5.238   3.9243
  5.233   4.0067
  5.227   4.0788
  5.222   4.0994
  5.217   4.0891
  5.212   4.1406
  5.206   4.2024
  5.201   4.2745
  5.196   4.2848
  5.191   4.2848
  5.186   4.2539
  5.180   4.2539
  5.175   4.2539
  5.170   4.2333
  5.165   4.2642
  5.160   4.3260
  5.155   4.3569
  5.150   4.3672
  5.145   4.3569
  5.139   4.3260
  5.134   4.3672
  5.129   4.4187
  5.124   4.4290
  5.119   4.4599
  5.114   4.5114
  5.109   4.5114
  5.104   4.4496
  5.099   4.4702
  5.094   4.5114
  5.089   4.5423
  5.084   4.5320
  5.079   4.5217
  5.074   4.5423
  5.069   4.5732
  5.064   4.5629
  5.059   4.5732
  5.054   4.5938
  5.049   4.5938
  5.044   4.6041
  5.040   4.6762
  5.035   4.7071
  5.030   4.6659
  5.025   4.6762
  5.020   4.7380
  5.015   4.7689
  5.010   4.7483
  5.005   4.7174
  5.001   4.7483
  4.996   4.7586
  4.991   4.8101
  4.986   4.9028
  4.981   4.9646
  4.977   4.9440
  4.972   4.9646
  4.967   5.0882
  4.962   5.2015
  4.958   5.2427
  4.953   5.2633
  4.948   5.3354
  4.943   5.3766
  4.939   5.3869
  4.934   5.4384
  4.929   5.4384
  4.925   5.4796
  4.920   5.5826
  4.915   5.6238
  4.911   5.6444
  4.906   5.6753
  4.901   5.7989
  4.897   5.9431
  4.892   6.0358
  4.888   6.1182
  4.883   6.2109
  4.878   6.3139
  4.874   6.4066
  4.869   6.5096
  4.865   6.5920
  4.860   6.6538
  4.856   6.7259
  4.851   6.7774
  4.846   6.8392
  4.842   6.9319
  4.837   7.0143
  4.833   7.0246
  4.828   7.0143
  4.824   7.0967
  4.819   7.1688
  4.815   7.1276
  4.810   7.1173
  4.806   7.2203
  4.802   7.2718
  4.797   7.3336
  4.793   7.4057
  4.788   7.3851
  4.784   7.3645
  4.779   7.3851
  4.775   7.4675
  4.771   7.5087
  4.766   7.5705
  4.762   7.5808
  4.758   7.6323
  4.753   7.6632
  4.749   7.7044
  4.744   7.7765
  4.740   7.7250
  4.736   7.7044
  4.731   7.7353
  4.727   7.7559
  4.723   7.7765
  4.719   7.8383
  4.714   7.8383
  4.710   7.7868
  4.706   7.7868
  4.701   7.7456
  4.697   7.7044
  4.693   7.6838
  4.689   7.7147
  4.684   7.6838
  4.680   7.6426
  4.676   7.6323
  4.672   7.6941
  4.668   7.7559
  4.663   7.7559
  4.659   7.8177
  4.655   7.9104
  4.651   7.9516
  4.647   7.9722
  4.643   8.0855
  4.638   8.2194
  4.634   8.2400
  4.630   8.2606
  4.626   8.3018
  4.622   8.3533
  4.618   8.4666
  4.614   8.5696
  4.610   8.5696
  4.605   8.5799
  4.601   8.5902
  4.597   8.6417
  4.593   8.6932
  4.589   8.8168
  4.585   8.8992
  4.581   8.9095
  4.577   8.9713
  4.573   8.9919
  4.569   9.0125
  4.565   9.0434
  4.561   9.0743
  4.557   9.1052
  4.553   9.1361
  4.549   9.1979
  4.545   9.2391
  4.541   9.2700
  4.537   9.2597
  4.533   9.2185
  4.529   9.2185
  4.525   9.2494
  4.521   9.2391
  4.517   9.2494
  4.513   9.2597
  4.509   9.1876
  4.505   9.1052
  4.502   9.0125
  4.498   8.9507
  4.494   8.9507
  4.490   9.0022
  4.486   9.0537
  4.482   9.0434
  4.478   9.0434
  4.474   9.0743
  4.470   9.0640
  4.467   9.0640
  4.463   9.1464
  4.459   9.1773
  4.455   9.2082
  4.451   9.2803
  4.447   9.3833
  4.444   9.4760
  4.440   9.5378
  4.436   9.5584
  4.432   9.5893
  4.428   9.6511
  4.425   9.7438
  4.421   9.8777
  4.417  10.0322
  4.413  10.0940
  4.410  10.1043
  4.406  10.1352
  4.402  10.2176
  4.398  10.3618
  4.395  10.5163
  4.391  10.6090
  4.387  10.6605
  4.384  10.7635
  4.380  10.8459
  4.376  10.8871
  4.372  10.9901
  4.369  11.1240
  4.365  11.2373
  4.361  11.3712
  4.358  11.5257
  4.354  11.6596
  4.350  11.7317
  4.347  11.7729
  4.343  11.8141
  4.340  11.8862
  4.336  12.0201
  4.332  12.1437
  4.329  12.2158
  4.325  12.2673
  4.321  12.3291
  4.318  12.4115
  4.314  12.4218
  4.311  12.4733
  4.307  12.4939
  4.304  12.4527
  4.300  12.4527
  4.296  12.4733
  4.293  12.5145
  4.289  12.6587
  4.286  12.7720
  4.282  12.7720
  4.279  12.7926
  4.275  12.8132
  4.272  12.8750
  4.268  12.9677
  4.265  13.0295
  4.261  13.0501
  4.258  13.1737
  4.254  13.3179
  4.251  13.3900
  4.247  13.3694
  4.244  13.3488
  4.240  13.3797
  4.237  13.4415
  4.233  13.4003
  4.230  13.3179
  4.226  13.3179
  4.223  13.4621
  4.219  13.5960
  4.216  13.5445
  4.213  13.4621
  4.209  13.5342
  4.206  13.5342
  4.202  13.5342
  4.199  13.5754
  4.196  13.5857
  4.192  13.6063
  4.189  13.6372
  4.185  13.6578
  4.182  13.7196
  4.179  13.7608
  4.175  13.7917
  4.172  13.8020
  4.169  13.8432
  4.165  13.9050
  4.162  14.0286
  4.159  14.0183
  4.155  13.9874
  4.152  14.0698
  4.149  14.1007
  4.145  14.1110
  4.142  14.1213
  4.139  14.1316
  4.135  14.2140
  4.132  14.2552
  4.129  14.3376
  4.126  14.4097
  4.122  14.4097
  4.119  14.3788
  4.116  14.3788
  4.112  14.4612
  4.109  14.5745
  4.106  14.5848
  4.103  14.6054
  4.099  14.6672
  4.096  14.7290
  4.093  14.7496
  4.090  14.8114
  4.086  14.8320
  4.083  14.8320
  4.080  14.8629
  4.077  14.9247
  4.074  14.9041
  4.070  14.9659
  4.067  14.9762
  4.064  14.9865
  4.061  14.9762
  4.058  14.9453
  4.055  14.8732
  4.051  14.9350
  4.048  15.0071
  4.045  15.0174
  4.042  14.9865
  4.039  15.0174
  4.036  14.9659
  4.032  14.9453
  4.029  14.9144
  4.026  14.9247
  4.023  14.9144
  4.020  14.9453
  4.017  14.9659
  4.014  14.9556
  4.011  14.9247
  4.008  14.9968
  4.004  15.0689
  4.001  15.0895
  3.998  15.0998
  3.995  15.0895
  3.992  14.9453
  3.989  14.9350
  3.986  15.0174
  3.983  15.0483
  3.980  15.0483
  3.977  15.1204
  3.974  15.1307
  3.971  15.0998
  3.968  15.1101
  3.965  15.2028
  3.962  15.2852
  3.959  15.3676
  3.956  15.2337
  3.953  15.2131
  3.950  15.2646
  3.947  15.2749
  3.944  15.2646
  3.941  15.3058
  3.938  15.3470
  3.935  15.3264
  3.932  15.2646
  3.929  15.3161
  3.926  15.3573
  3.923  15.4088
  3.920  15.4294
  3.917  15.4397
  3.914  15.4191
  3.911  15.4191
  3.908  15.3882
  3.905  15.3367
  3.902  15.2749
  3.899  15.3058
  3.896  15.2749
  3.893  15.2543
  3.890  15.2749
  3.887  15.2543
  3.884  15.2028
  3.882  15.2131
  3.879  15.1410
  3.876  15.1513
  3.873  15.1513
  3.870  15.0895
  3.867  15.0689
  3.864  15.0689
  3.861  15.0277
  3.858  14.9659
  3.856  14.9350
  3.853  14.9041
  3.850  14.8732
  3.847  14.9247
  3.844  14.9762
  3.841  15.0174
  3.838  14.9453
  3.836  14.9041
  3.833  14.8938
  3.830  14.8938
  3.827  14.9144
  3.824  14.9041
  3.822  14.8526
  3.819  14.7496
  3.816  14.7084
  3.813  14.7599
  3.810  14.8320
  3.807  14.8526
  3.805  14.7393
  3.802  14.6363
  3.799  14.6466
  3.796  14.6054
  3.794  14.5745
  3.791  14.6466
  3.788  14.5848
  3.785  14.5539
  3.782  14.5127
  3.780  14.5127
  3.777  14.4612
  3.774  14.3994
  3.771  14.3273
  3.769  14.2758
  3.766  14.2449
  3.763  14.1316
  3.761  14.0080
  3.758  14.0286
  3.755  14.0080
  3.752  13.9256
  3.750  13.8226
  3.747  13.8535
  3.744  13.8741
  3.742  13.7402
  3.739  13.6063
  3.736  13.5651
  3.733  13.5857
  3.731  13.6372
  3.728  13.5651
  3.725  13.5136
  3.723  13.5342
  3.720  13.5342
  3.717  13.5033
  3.715  13.4621
  3.712  13.4003
  3.709  13.3385
  3.707  13.2252
  3.704  13.2149
  3.702  13.2664
  3.699  13.3179
  3.696  13.2561
  3.694  13.1531
  3.691  13.1428
  3.688  13.1428
  3.686  13.1016
  3.683  13.1222
  3.680  13.0398
  3.678  12.9883
  3.675  12.9471
  3.673  12.9986
  3.670  12.9883
  3.667  12.9368
  3.665  12.9265
  3.662  12.9574
  3.660  12.8544
  3.657  12.8235
  3.655  12.8235
  3.652  12.7617
  3.649  12.6381
  3.647  12.5969
  3.644  12.5866
  3.642  12.6381
  3.639  12.6072
  3.637  12.5454
  3.634  12.4527
  3.632  12.3909
  3.629  12.3497
  3.626  12.2776
  3.624  12.1334
  3.621  12.0613
  3.619  12.0716
  3.616  12.1334
  3.614  12.0304
  3.611  11.9686
  3.609  11.9068
  3.606  11.8347
  3.604  11.8038
  3.601  11.7626
  3.599  11.6081
  3.596  11.5875
  3.594  11.5669
  3.591  11.5566
  3.589  11.5257
  3.586  11.4742
  3.584  11.3609
  3.581  11.2888
  3.579  11.2579
  3.576  11.2476
  3.574  11.1652
  3.571  11.0622
  3.569  10.9695
  3.567  10.8974
  3.564  10.8562
  3.562  10.8974
  3.559  10.9077
  3.557  10.8871
  3.554  10.8047
  3.552  10.7429
  3.549  10.6605
  3.547  10.5781
  3.545  10.4957
  3.542  10.5369
  3.540  10.4339
  3.537  10.2588
  3.535  10.2073
  3.533  10.1970
  3.530  10.1558
  3.528  10.0940
  3.525  10.0631
  3.523  10.1043
  3.521  10.0013
  3.518   9.9086
  3.516   9.9086
  3.513   9.8983
  3.511   9.7129
  3.509   9.5687
  3.506   9.4966
  3.504   9.4554
  3.502   9.3936
  3.499   9.3627
  3.497   9.3112
  3.494   9.3009
  3.492   9.3318
  3.490   9.2700
  3.487   9.1670
  3.485   9.0949
  3.483   9.0743
  3.480   9.1979
  3.478   9.2494
  3.476   9.1876
  3.473   9.0537
  3.471   8.9919
  3.469   8.9404
  3.466   8.8580
  3.464   8.7962
  3.462   8.8168
  3.460   8.8168
  3.457   8.7859
  3.455   8.7859
  3.453   8.7241
  3.450   8.6005
  3.448   8.4975
  3.446   8.5284
  3.443   8.4872
  3.441   8.4872
  3.439   8.5902
  3.437   8.4872
  3.434   8.3842
  3.432   8.3018
  3.430   8.1988
  3.428   8.0031
  3.425   7.9310
  3.423   8.0134
  3.421   7.9825
  3.418   7.9413
  3.416   7.9104
  3.414   7.7662
  3.412   7.6323
  3.409   7.5911
  3.407   7.6941
  3.405   7.7559
  3.403   7.8177
  3.401   7.7147
  3.398   7.5499
  3.396   7.4469
  3.394   7.4984
  3.392   7.5602
  3.389   7.5808
  3.387   7.6014
  3.385   7.5705
  3.383   7.3954
  3.381   7.3748
  3.378   7.3233
  3.376   7.2718
  3.374   7.3233
  3.372   7.2718
  3.370   7.1585
  3.367   7.2409
  3.365   7.2409
  3.363   7.1585
  3.361   7.1276
  3.359   7.1276
  3.357   7.0246
  3.354   7.0143
  3.352   7.0452
  3.350   7.0658
  3.348   7.0246
  3.346   6.9628
  3.344   6.9319
  3.341   6.8083
  3.339   6.7259
  3.337   6.7053
  3.335   6.7053
  3.333   6.8186
  3.331   6.8495
  3.329   6.7980
  3.326   6.7362
  3.324   6.7156
  3.322   6.6435
  3.320   6.6435
  3.318   6.5817
  3.316   6.4890
  3.314   6.5302
  3.312   6.6229
  3.309   6.4787
  3.307   6.3036
  3.305   6.2727
  3.303   6.3139
  3.301   6.2521
  3.299   6.2830
  3.297   6.3242
  3.295   6.2624
  3.293   6.1903
  3.291   6.1697
  3.288   6.1491
  3.286   6.0564
  3.284   6.0049
  3.282   5.9740
  3.280   5.9019
  3.278   5.9534
  3.276   5.9534
  3.274   5.9637
  3.272   5.9122
  3.270   5.8607
  3.268   5.8916
  3.266   5.8710
  3.264   5.6444
  3.262   5.6753
  3.259   5.7474
  3.257   5.7268
  3.255   5.6341
  3.253   5.6135
  3.251   5.6444
  3.249   5.6856
  3.247   5.7371
  3.245   5.6547
  3.243   5.4796
  3.241   5.5311
  3.239   5.5311
  3.237   5.5517
  3.235   5.4899
  3.233   5.4590
  3.231   5.4384
  3.229   5.2839
  3.227   5.2530
  3.225   5.3045
  3.223   5.3663
  3.221   5.3869
  3.219   5.2633
  3.217   5.2736
  3.215   5.2942
  3.213   5.2530
  3.211   5.2942
  3.209   5.3148
  3.207   5.1912
  3.205   5.0779
  3.203   5.0573
  3.201   5.1603
  3.199   5.2221
  3.197   5.1603
  3.195   5.1294
  3.193   5.0470
  3.191   4.8822
  3.189   4.8719
  3.187   4.9543
  3.185   5.0573
  3.183   4.9440
  3.182   4.8307
  3.180   4.9028
  3.178   4.9955
  3.176   4.9337
  3.174   4.9852
  3.172   4.9440
  3.170   4.9234
  3.168   4.8822
  3.166   4.9028
  3.164   4.8513
  3.162   4.6968
  3.160   4.6968
  3.158   4.6659
  3.156   4.5629
  3.154   4.5629
  3.152   4.5835
  3.151   4.6762
  3.149   4.6762
  3.147   4.6659
  3.145   4.6659
  3.143   4.6762
  3.141   4.6453
  3.139   4.5114
  3.137   4.3775
  3.135   4.4599
  3.133   4.5526
  3.132   4.4805
  3.130   4.3569
  3.128   4.3054
  3.126   4.3157
  3.124   4.4805
  3.122   4.5938
  3.120   4.5423
  3.118   4.3775
  3.117   4.3157
  3.115   4.3569
  3.113   4.2745
  3.111   4.2230
  3.109   4.3363
  3.107   4.3260
  3.105   4.3672
  3.103   4.3672
  3.102   4.2745
  3.100   4.1921
  3.098   4.2333
  3.096   4.2333
  3.094   4.1303
  3.092   4.1509
  3.091   4.3157
  3.089   4.3260
  3.087   4.1818
  3.085   4.0376
  3.083   4.0479
  3.081   4.1303
  3.079   4.0891
  3.078   4.0479
  3.076   4.0891
  3.074   4.1715
  3.072   4.3157
  3.070   4.3054
  3.069   4.3157
  3.067   4.2024
  3.065   4.1818
  3.063   4.0891
  3.061   4.0273
  3.060   3.9552
  3.058   4.0788
  3.056   4.1200
  3.054   4.0170
  3.052   4.0788
  3.051   4.1818
  3.049   4.1097
  3.047   4.1097
  3.045   4.1097
  3.043   4.0479
  3.042   4.0170
  3.040   4.0376
  3.038   4.0479
  3.036   4.1200
  3.034   4.0479
  3.033   4.0273
  3.031   4.0994
  3.029   4.0273
  3.027   3.9655
  3.026   4.0685
  3.024   3.9758
  3.022   3.8831
  3.020   3.9243
  3.019   3.9758
  3.017   3.9552
  3.015   4.0067
  3.013   4.0376
  3.012   3.9861
  3.010   3.9140
  3.008   3.8934
  3.006   4.0479
  3.005   4.1303
  3.003   3.9655
  3.001   3.9037
  2.999   3.9037
  2.998   3.9861
  2.996   4.1509
  2.994   4.3157
  2.992   4.1715
  2.991   3.9449
  2.989   3.8213
  2.987   3.9346
  2.986   3.9758
  2.984   3.9449
  2.982   3.9037
  2.980   4.0067
  2.979   3.9243
  2.977   3.8831
  2.975   3.9964
  2.974   3.9861
  2.972   3.8007
  2.970   3.8522
  2.968   3.7698
  2.967   3.8831
  2.965   3.9346
  2.963   3.8831
  2.962   3.7904
  2.960   3.7698
  2.958   3.7801
  2.957   3.7389
  2.955   3.7286
  2.953   3.8728
  2.952   3.8522
  2.950   3.8419
  2.948   3.9037
  2.947   3.8316
  2.945   3.6771
  2.943   3.7801
  2.942   3.8934
  2.940   3.9346
  2.938   3.9552
  2.937   3.8934
  2.935   3.6668
  2.933   3.6462
  2.932   3.7595
  2.930   3.8213
  2.928   3.8007
  2.927   3.8522
  2.925   3.7801
  2.923   3.8728
  2.922   3.9758
  2.920   3.8007
  2.918   3.6462
  2.917   3.6771
  2.915   3.6050
  2.913   3.7904
  2.912   3.8522
  2.910   3.6668
  2.909   3.7698
  2.907   4.0479
  2.905   3.8419
  2.904   3.5741
  2.902   3.5844
  2.900   3.8831
  2.899   3.8522
  2.897   3.6874
  2.896   3.6256
  2.894   3.8728
  2.892   3.8522
  2.891   3.9037
  2.889   4.1200
  2.887   4.0170
  2.886   3.6771
  2.884   3.7286
  2.883   3.7904
  2.881   3.9140
  2.879   3.9140
  2.878   3.8316
  2.876   3.7904
  2.875   3.9655
  2.873   3.9243
  2.871   3.9861
  2.870   4.1303
  2.868   4.2230
  2.867   4.0067
  2.865   3.9037
  2.864   3.9037
  2.862   3.7286
  2.860   3.5741
  2.859   3.8316
  2.857   3.9758
  2.856   3.9346
  2.854   3.9243
  2.853   4.0788
  2.851   4.1715
  2.849   4.1612
  2.848   4.1097
  2.846   4.1200
  2.845   3.9346
  2.843   3.9449
  2.842   3.9861
  2.840   3.9552
  2.838   3.7595
  2.837   3.8831
  2.835   3.9861
  2.834   4.0891
  2.832   4.1303
  2.831   4.0685
  2.829   4.2024
  2.828   4.2539
  2.826   4.0067
  2.825   3.9243
  2.823   4.0376
  2.821   3.9449
  2.820   3.8213
  2.818   3.8934
  2.817   3.8831
  2.815   3.9449
  2.814   3.8728
  2.812   3.7389
  2.811   3.7286
  2.809   3.8316
  2.808   3.7801
  2.806   3.8522
  2.805   3.7801
  2.803   3.7080
  2.802   3.6050
  2.800   3.3990
  2.799   3.4196
  2.797   3.3887
  2.796   3.2033
  2.794   3.3269
  2.793   3.3681
  2.791   3.3475
  2.790   3.3269
  2.788   3.4917
  2.787   3.2342
  2.785   3.0385
  2.784   2.9149
  2.782   2.9870
  2.781   3.1518
  2.779   3.1724
  2.778   3.0694
  2.776   3.0385
  2.775   3.1209
  2.773   3.1209
  2.772   3.0179
  2.770   3.0900
  2.769   2.9149
  2.767   2.8016
  2.766   2.6780
  2.764   2.6677
  2.763   2.5544
  2.761   2.3381
  2.760   2.2145
  2.758   2.1424
  2.757   2.1321
  2.756   2.3484
  2.754   2.5338
  2.753   2.4514
  2.751   2.4102
  2.750   2.4617
  2.748   2.4514
  2.747   2.5441
  2.745   2.5853
  2.744   2.4205
  2.742   2.3587
  2.741   2.4617
  2.740   2.5029
  2.738   2.7707
  2.737   2.9870
  2.735   2.8428
  2.734   2.6780
  2.732   2.7398
  2.731   2.6059
  2.729   2.6986
  2.728   2.7604
  2.727   2.7604
  2.725   2.8737
  2.724   3.0282
  2.722   3.0076
  2.721   2.9767
  2.719   3.0797
  2.718   3.0385
  2.717   2.9046
  2.715   3.0282
  2.714   2.8943
  2.712   2.6471
  2.711   2.7398
  2.709   2.9046
  2.708   2.8428
  2.707   2.7913
  2.705   2.7398
  2.704   2.5853
  2.702   2.6059
  2.701   2.8325
  2.700   2.9664
  2.698   2.9973
  2.697   3.1209
  2.695   3.3681
  2.694   3.7080
  2.693   4.1715
  2.691   4.6144
  2.690   5.1706
  2.688   5.5929
  2.687   6.2727
  2.686   6.8392
  2.684   6.9834
  2.683   7.2203
  2.681   7.9310
  2.680   8.3842
  2.679   8.8271
  2.677   9.5069
  2.676  10.0734
  2.675  10.3721
  2.673  10.8150
  2.672  11.2167
  2.670  11.5669
  2.669  11.5154
  2.668  11.8347
  2.666  12.3085
  2.665  12.7205
  2.664  12.8029
  2.662  13.1428
  2.661  13.5651
  2.659  13.9359
  2.658  14.3479
  2.657  14.5333
  2.655  14.4097
  2.654  14.5539
  2.653  14.7496
  2.651  15.0071
  2.650  15.2543
  2.649  15.3161
  2.647  15.4603
  2.646  15.5736
  2.645  15.6560
  2.643  16.0680
  2.642  16.0989
  2.640  16.3049
  2.639  16.6654
  2.638  16.7375
  2.636  16.7478
  2.635  16.9023
  2.634  17.1289
  2.632  17.5409
  2.631  17.4791
  2.630  17.3761
  2.628  17.6027
  2.627  17.8396
  2.626  17.7778
  2.624  17.6851
  2.623  17.7366
  2.622  18.0456
  2.620  18.1074
  2.619  17.9632
  2.618  17.9838
  2.617  18.3546
  2.615  18.4679
  2.614  18.3546
  2.613  18.4576
  2.611  18.7460
  2.610  18.5503
  2.609  18.2928
  2.607  18.4370
  2.606  18.7254
  2.605  18.7151
  2.603  19.0035
  2.602  19.1374
  2.601  18.9932
  2.599  19.1168
  2.598  19.4155
  2.597  19.3022
  2.596  19.1271
  2.594  19.0138
  2.593  19.1374
  2.592  19.1683
  2.590  19.2301
  2.589  19.2507
  2.588  19.2301
  2.586  19.3743
  2.585  19.9408
  2.584  19.9923
  2.583  19.8069
  2.581  19.5906
  2.580  20.1262
  2.579  20.3116
  2.577  19.8996
  2.576  19.9511
  2.575  20.0335
  2.574  19.8996
  2.572  20.0335
  2.571  20.0438
  2.570  20.0335
  2.569  20.0335
  2.567  20.1777
  2.566  20.4455
  2.565  20.7236
  2.563  20.7545
  2.562  20.7442
  2.561  20.6721
  2.560  20.7133
  2.558  20.8678
  2.557  21.0326
  2.556  21.2386
  2.555  21.3107
  2.553  21.1974
  2.552  21.4137
  2.551  21.5064
  2.550  21.4446
  2.548  21.1356
  2.547  20.9914
  2.546  21.0532
  2.545  21.3622
  2.543  21.7330
  2.542  21.8051
  2.541  21.5682
  2.540  21.5167
  2.538  21.7433
  2.537  21.8051
  2.536  21.7639
  2.535  21.8463
  2.533  21.8154
  2.532  21.8669
  2.531  21.9596
  2.530  22.0832
  2.528  22.1141
  2.527  22.2789
  2.526  22.2274
  2.525  22.2274
  2.524  22.3304
  2.522  22.2789
  2.521  22.0523
  2.520  22.1862
  2.519  22.3613
  2.517  22.3407
  2.516  22.1347
  2.515  22.0729
  2.514  22.2377
  2.513  22.5467
  2.511  22.3304
  2.510  22.1141
  2.509  22.2377
  2.508  22.5055
  2.506  22.4231
  2.505  22.5055
  2.504  22.7527
  2.503  22.8351
  2.502  22.7527
  2.500  23.0617
  2.497  23.0617
  2.493  22.8617
  2.489  22.6617
  2.485  22.5617
  2.481  22.1617
  2.477  21.8617
  2.473  21.9617
  2.469  21.5617
  2.465  21.5617
  2.461  21.4617
  2.457  21.4617
  2.453  21.5617
  2.449  21.7617
  2.445  21.9617
  2.441  22.1617
  2.437  22.3617
  2.433  22.4617
  2.429  22.5617
  2.425  23.1617
  2.421  23.6617
  2.417  23.8617
  2.413  24.5617
  2.409  24.9617
  2.405  25.2617
  2.401  25.4617
  2.397  25.9617
  2.393  25.8617
  2.389  25.9617
  2.385  25.9617
  2.381  25.9617
  2.377  25.9617
  2.373  25.7617
  2.369  25.4617
  2.365  25.2617
  2.361  25.4617
  2.357  25.2617
  2.353  25.2617
  2.349  24.9617
  2.345  25.4617
  2.341  25.6617
  2.337  25.8617
  2.333  26.2617
  2.329  26.9617
  2.325  27.4617
  2.321  28.0617
  2.317  28.7617
  2.313  29.7617
  2.309  30.3617
  2.305  31.2617
  2.301  33.4617
  2.297  33.0617
  2.293  33.1617
  2.289  33.9617
  2.285  34.7617
  2.281  36.1617
  2.277  37.2617
  2.273  37.4617
  2.269  37.6617
  2.265  37.4617
  2.261  37.0617
  2.257  36.3617
  2.253  35.7617
  2.249  35.3617
  2.245  34.7617
  2.241  33.9617
  2.237  33.0617
  2.233  31.8617
  2.229  30.3617
  2.225  29.1617
  2.221  28.0617
  2.217  26.4617
  2.213  25.3617
  2.209  24.6617
  2.205  24.6617
  2.201  24.3617
  2.197  25.1617
  2.193  26.3617
  2.189  27.9617
  2.185  29.3617
  2.181  30.9617
  2.177  32.4617
  2.173  33.7617
  2.169  35.0617
  2.165  36.1617
  2.161  36.8617
  2.157  37.4617
  2.153  38.4617
  2.149  39.1617
  2.145  40.5617
  2.141  41.6617
  2.137  42.3617
  2.133  43.6617
  2.129  44.4617
  2.125  44.7617
  2.121  45.5617
  2.117  46.6617
  2.113  47.3617
  2.109  47.7617
  2.105  47.9617
  2.101  48.3617
  2.097  49.1617
  2.093  49.6617
  2.089  49.7617
  2.085  49.9617
  2.081  50.3617
  2.077  50.8617
  2.073  51.0617
  2.069  51.3617
  2.065  51.2617
  2.061  51.7617
  2.057  51.9617
  2.053  52.1617
  2.049  52.1617
  2.045  51.9617
  2.041  51.8617
  2.037  51.7617
  2.033  51.6617
  2.029  51.7617
  2.025  51.4617
  2.021  51.6617
  2.017  51.2617
  2.013  51.4617
  2.009  51.3617
  2.005  50.7617
  2.001  51.0617
  1.997  50.6617
  1.993  50.1617
  1.989  50.0617
  1.985  49.6617
  1.981  49.2617
  1.977  48.9617
  1.973  48.6617
  1.969  48.6617
  1.965  48.9617
  1.961  48.6617
  1.957  48.1617
  1.953  47.7617
  1.949  47.3617
  1.945  47.0617
  1.941  46.7617
  1.937  46.4617
  1.933  45.9617
  1.929  45.7617
  1.925  44.9617
  1.921  44.5617
  1.917  43.8617
  1.913  43.9617
  1.909  44.4617
  1.905  45.1617
  1.901  45.9617
  1.897  46.9617
  1.893  49.1617
  1.889  50.2617
  1.885  51.6617
  1.881  54.0617
  1.877  56.1617
  1.873  56.7617
  1.869  56.2617
  1.865  55.8617
  1.861  56.3617
  1.857  57.3617
  1.853  58.5617
  1.849  59.1617
  1.845  59.0617
  1.841  59.0617
  1.837  59.1617
  1.833  58.5617
  1.829  58.5617
  1.825  58.8617
  1.821  58.8617
  1.817  59.1617
  1.813  59.0617
  1.809  59.4617
  1.805  59.5617
  1.801  59.3617
  1.797  59.1617
  1.793  59.1617
  1.789  59.3617
  1.785  59.6617
  1.781  59.7617
  1.777  60.2617
  1.773  60.1617
  1.769  60.0617
  1.765  60.4617
  1.761  60.5617
  1.757  60.0617
  1.753  59.5617
  1.749  59.7617
  1.745  59.9617
  1.741  60.2617
  1.737  60.5617
  1.733  61.0617
  1.729  61.2617
  1.725  61.3617
  1.721  60.7617
  1.717  60.8617
  1.713  60.5617
  1.709  60.2617
  1.705  60.1617
  1.701  60.2617
  1.697  60.2617
  1.693  60.5617
  1.689  60.8617
  1.685  61.1617
  1.681  60.8617
  1.677  60.8617
  1.673  60.8617
  1.669  60.7617
  1.665  60.7617
  1.661  61.1617
  1.657  61.1617
  1.653  60.7617
  1.649  60.8617
  1.645  60.6617
  1.641  60.8617
  1.637  61.1617
  1.633  60.7617
  1.629  60.5617
  1.625  60.5617
  1.621  60.1617
  1.617  60.1617
  1.613  60.0617
  1.609  60.1617
  1.605  60.5617
  1.601  60.4617
  1.597  60.2617
  1.593  60.4617
  1.589  60.0617
  1.585  60.4617
  1.581  60.2617
  1.577  59.9617
  1.573  59.5617
  1.569  59.4617
  1.565  59.4617
  1.561  59.3617
  1.557  59.4617
  1.553  58.9617
  1.549  58.9617
  1.545  58.5617
  1.541  58.6617
  1.537  58.5617
  1.533  58.9617
  1.529  58.6617
  1.525  58.5617
  1.521  58.9617
  1.517  58.6617
  1.513  58.2617
  1.509  57.8617
  1.505  57.5617
  1.501  57.4617
  1.497  57.8617
  1.493  57.7617
  1.489  57.7617
  1.485  57.8617
  1.481  57.7617
  1.477  57.5617
  1.473  57.1617
  1.469  57.1617
  1.465  56.7617
  1.461  56.6617
  1.457  56.2617
  1.453  56.0617
  1.449  56.0617
  1.445  55.5617
  1.441  54.9617
  1.437  53.6617
  1.433  52.5617
  1.429  50.7617
  1.425  48.1617
  1.421  45.3617
  1.417  42.0617
  1.413  38.7617
  1.409  37.9617
  1.405  37.9617
  1.401  39.2617
  1.397  41.3617
  1.393  43.1617
  1.389  44.0617
  1.385  46.7617
  1.381  48.5617
  1.377  49.0617
  1.373  51.1617
  1.369  53.6617
  1.365  54.4617
  1.361  53.8617
  1.357  53.4617
  1.353  54.5617
  1.349  54.7617
  1.345  55.4617
  1.341  55.7617
  1.337  56.7617
  1.333  56.2617
  1.329  56.3617
  1.325  56.1617
  1.321  56.1617
  1.317  56.3617
  1.313  56.3617
  1.309  56.3617
  1.305  56.3617
  1.301  56.3617
  1.297  56.2617
  1.293  56.1617
  1.289  56.2617
  1.285  56.1617
  1.281  55.8617
  1.277  55.4617
  1.273  55.0617
  1.269  54.6617
  1.265  54.4617
  1.261  53.9617
  1.257  53.3617
  1.253  52.8617
  1.249  52.3617
  1.245  53.2617
  1.241  53.5617
  1.237  53.5617
  1.233  53.3617
  1.229  52.9617
  1.225  52.5617
  1.221  52.2617
  1.217  51.7617
  1.213  51.0617
  1.209  50.6617
  1.205  50.8617
  1.201  51.1617
  1.197  51.2617
  1.193  51.0617
  1.189  50.8617
  1.185  50.8617
  1.181  50.6617
  1.177  50.5617
  1.173  50.6617
  1.169  50.3617
  1.165  50.2617
  1.161  50.1617
  1.157  49.7617
  1.153  49.1617
  1.149  48.6617
  1.145  49.6617
  1.141  49.6617
  1.137  49.9617
  1.133  49.6617
  1.129  49.1617
  1.125  48.9617
  1.121  49.2617
  1.117  48.8617
  1.113  48.1617
  1.109  48.3617
  1.105  48.5617
  1.101  48.4617
  1.097  48.5617
  1.093  48.8617
  1.089  48.3617
  1.085  47.8617
  1.081  48.3617
  1.077  48.3617
  1.073  48.5617
  1.069  48.6617
  1.065  48.0617
  1.061  48.0617
  1.057  47.9617
  1.053  47.7617
  1.049  47.8617
  1.045  47.7617
  1.041  47.3617
  1.037  46.9617
  1.033  47.3617
  1.029  47.8617
  1.025  47.5617
  1.021  47.5617
  1.017  47.4617
  1.013  46.9617
  1.009  47.0617
  1.005  47.3617
  1.001  46.8617
  0.997  46.8617
  0.993  47.4617
  0.989  47.4617
  0.985  46.9617
  0.981  46.8617
  0.977  46.8617
  0.973  46.3617
  0.969  46.2617
  0.965  46.1617
  0.961  45.8617
  0.957  45.8617
  0.953  45.6617
  0.949  45.5617
  0.945  45.3617
  0.941  45.2617
  0.937  45.2617
  0.933  45.0617
  0.929  44.9617
  0.925  44.7617
  0.921  44.7617
  0.917  44.5617
  0.913  44.2617
  0.909  44.5617
  0.905  44.0617
  0.901  44.2617
  0.897  43.9617
  0.893  43.8617
  0.889  43.8617
  0.885  43.6617
  0.881  43.6617
  0.877  43.6617
  0.873  43.6617
  0.869  44.0617
  0.865  43.6617
  0.861  43.6617
  0.857  43.6617
  0.853  43.5617
  0.849  43.5617
  0.845  43.6617
  0.841  43.6617
  0.837  43.6617
  0.833  44.0617
  0.829  44.0617
  0.825  44.1617
  0.821  43.8617
  0.817  43.9617
  0.813  44.0617
  0.809  44.2617
  0.805  44.0617
  0.804  44.4617
  0.803  44.4617
  0.802  44.4617
  0.801  44.5617
  0.800  44.4617
  0.799  44.2617
  0.798  44.7617
  0.797  44.7617
  0.796  44.6617
  0.795  44.5617
  0.794  44.4617
  0.793  44.2617
  0.792  44.7617
  0.791  44.9617
  0.790  44.7617
  0.789  44.4617
  0.788  44.4617
  0.787  44.2617
  0.786  44.1617
  0.785  44.2617
  0.784  44.4617
  0.783  44.7617
  0.782  44.7617
  0.781  44.4617
  0.780  44.5617
  0.779  44.5617
  0.778  44.4617
  0.777  44.4617
  0.776  44.1617
  0.775  44.1617
  0.774  43.8617
  0.773  43.8617
  0.772  43.9617
  0.771  43.6617
  0.770  43.5617
  0.769  44.1617
  0.768  44.6617
  0.767  44.6617
  0.766  44.1617
  0.765  44.0617
  0.764  44.0617
  0.763  43.5617
  0.762  43.1617
  0.761  44.0617
  0.760  43.8617
  0.759  43.6617
  0.758  43.5617
  0.757  43.6617
  0.756  43.5617
  0.755  43.4617
  0.754  43.1617
  0.753  43.4617
  0.752  43.6617
  0.751  43.8617
  0.750  43.5617
  0.749  43.4617
  0.748  43.0617
  0.747  42.5617
  0.746  42.8617
  0.745  42.8617
  0.744  43.1617
  0.743  42.7617
  0.742  42.7617
  0.741  42.5617
  0.740  42.5617
  0.739  43.0617
  0.738  43.0617
  0.737  42.7617
  0.736  42.5617
  0.735  42.5617
  0.734  42.8617
  0.733  43.0617
  0.732  42.0617
  0.731  42.0617
  0.730  42.0617
  0.729  42.2617
  0.728  42.0617
  0.727  42.2617
  0.726  42.0617
  0.725  42.0617
  0.724  42.3617
  0.723  42.3617
  0.722  42.3617
  0.721  42.4617
  0.720  42.2617
  0.719  42.3617
  0.718  42.3617
  0.717  42.0617
  0.716  42.0617
  0.715  41.4617
  0.714  41.4617
  0.713  41.8617
  0.712  41.8617
  0.711  42.2617
  0.710  42.2617
  0.709  41.6617
  0.708  41.2617
  0.707  41.4617
  0.706  40.8617
  0.705  40.7617
  0.704  40.8617
  0.703  40.0617
  0.702  40.1617
  0.701  40.3617
  0.700  40.5617
  0.699  40.9617
  0.698  40.7617
  0.697  40.9617
  0.696  40.7617
  0.695  40.7617
  0.694  40.5617
  0.693  40.5617
  0.692  40.5617
  0.691  39.7617
  0.690  39.5617
  0.689  39.5617
  0.688  39.8617
  0.687  39.6617
  0.686  39.6617
  0.685  39.8617
  0.684  39.7617
  0.683  39.6617
  0.682  39.7617
  0.681  39.7617
  0.680  39.7617
  0.679  39.7617
  0.678  39.5617
  0.677  39.7617
  0.676  39.5617
  0.675  39.0617
  0.674  39.4617
  0.673  39.4617
  0.672  38.7617
  0.671  38.7617
  0.670  38.7617
  0.669  38.6617
  0.668  39.0617
  0.667  39.0617
  0.666  38.9617
  0.665  38.6617
  0.664  38.6617
  0.663  38.5617
  0.662  38.3617
  0.661  38.0617
  0.660  37.9617
  0.659  38.1617
  0.658  38.3617
  0.657  38.5617
  0.656  38.3617
  0.655  38.4617
  0.654  37.9617
  0.653  37.6617
  0.652  37.8617
  0.651  37.8617
  0.650  37.6617
  0.649  37.8617
  0.648  37.4617
  0.647  36.2617
  0.646  36.3617
  0.645  36.4617
  0.644  36.4617
  0.643  36.7617
  0.642  36.5617
  0.641  36.3617
  0.640  36.3617
  0.639  36.4617
  0.638  36.2617
  0.637  36.4617
  0.636  36.4617
  0.635  36.4617
  0.634  36.5617
  0.633  36.5617
  0.632  36.3617
  0.631  36.4617
  0.630  35.3617
  0.629  34.8617
  0.628  34.7617
  0.627  35.2617
  0.626  35.1617
  0.625  35.1617
  0.624  34.6617
  0.623  34.5617
  0.622  34.7617
  0.621  34.6617
  0.620  34.2617
  0.619  34.6617
  0.618  34.2617
  0.617  34.2617
  0.616  34.1617
  0.615  34.0617
  0.614  34.0617
  0.613  33.9617
  0.612  33.6617
  0.611  33.6617
  0.610  33.7617
  0.609  33.6617
  0.608  33.3617
  0.607  33.0617
  0.606  32.9617
  0.605  32.5617
  0.604  32.4617
  0.603  32.4617
  0.602  31.9617
  0.601  31.7617
  0.600  31.8617
  0.599  31.3617
  0.598  30.9617
  0.597  30.9617
  0.596  30.8617
  0.595  30.4617
  0.594  30.7617
  0.593  30.6617
  0.592  29.7617
  0.591  29.3617
  0.590  29.7617
  0.589  29.1617
  0.588  29.3617
  0.587  29.6617
  0.586  29.1617
  0.585  28.7617
  0.584  28.9617
  0.583  28.5617
  0.582  28.1617
  0.581  28.1617
  0.580  28.1617
  0.579  28.0617
  0.578  27.6617
  0.577  27.3617
  0.576  27.5617
  0.575  27.5617
  0.574  27.1617
  0.573  27.0617
  0.572  26.5617
  0.571  26.0617
  0.570  25.8617
  0.569  25.6617
  0.568  25.3617
  0.567  24.9617
  0.566  24.6617
  0.565  24.5617
  0.564  24.1617
  0.563  21.9617
  0.562  22.1617
  0.561  21.8617
  0.560  21.4617
  0.559  20.7617
  0.558  20.3617
  0.557  19.8617
  0.556  19.7617
  0.555  19.8617
  0.554  19.6617
  0.553  19.3617
  0.552  19.0617
  0.551  19.2617
  0.550  18.8617
  0.549  18.8617
  0.548  18.0617
  0.547  17.7617
  0.546  17.6617
  0.545  17.5617
  0.544  17.0617
  0.543  16.8617
  0.542  16.4617
  0.541  16.4617
  0.540  16.3617
  0.539  15.8617
  0.538  15.4617
  0.537  15.2617
  0.536  15.2617
  0.535  14.7617
  0.534  14.7617
  0.533  14.6617
  0.532  14.3617
  0.531  14.2617
  0.530  14.3617
  0.529  13.8617
  0.528  13.8617
  0.527  13.6617
  0.526  13.5617
  0.525  13.5617
  0.524  13.1617
  0.523  12.9617
  0.522  12.6617
  0.521  12.4617
  0.520  12.4617
  0.519  12.0617
  0.518  12.0617
  0.517  11.6617
  0.516  11.4617
  0.515  11.3617
  0.514  11.4617
  0.513  11.3617
  0.512  11.3617
  0.511  11.3617
  0.510  11.2617
  0.509  10.7617
  0.508  10.7617
  0.507  10.4617
  0.506  10.2617
  0.505   9.9617
  0.504   9.8617
  0.503   9.9617
  0.502   9.7617
  0.501   9.6617
  0.500   9.2617
  0.499   8.8617
  0.498   8.7617
  0.497   8.3617
  0.496   8.7617
  0.495   8.6617
  0.494   8.5617
  0.493   8.6617
  0.492   8.3617
  0.491   7.9617
  0.490   7.9617
  0.489   7.5617
  0.488   7.5617
  0.487   7.4617
  0.486   7.4617
  0.485   7.2617
  0.484   6.9617
  0.483   6.8617
  0.482   6.3617
  0.481   6.9617
  0.480   7.0617
  0.479   6.6617
  0.478   6.8617
  0.477   6.4617
  0.476   6.4617
  0.475   6.3617
  0.474   6.3617
  0.473   6.4617
  0.472   6.0617
  0.471   6.0617
  0.470   6.0617
  0.469   5.8617
  0.468   5.5617
  0.467   5.4617
  0.466   5.8617
  0.465   5.4617
  0.464   4.8617
  0.463   7.5617
  0.462   7.0617
  0.461   6.8617
  0.460   6.8617
  0.459   6.5617
  0.458   6.5617
  0.457   6.3617
  0.456   6.3617
  0.455   6.3617
  0.454   6.1617
  0.453   6.3617
  0.452   6.0617
  0.451   5.8617
  0.450   5.7617
  0.449   5.4617
  0.448   5.3617
  0.447   5.3617
  0.446   5.2617
  0.445   5.0617
  0.444   5.2617
  0.443   5.0617
  0.442   4.6617
  0.441   4.4617
  0.440   4.4617
  0.439   4.1617
  0.438   4.1617
  0.437   3.9617
  0.436   3.8617
  0.435   3.8617
  0.434   3.6617
  0.433   3.5617
  0.432   3.3617
  0.431   3.2617
  0.430   3.1617
  0.429   3.0617
  0.428   3.0617
  0.427   2.5617
  0.426   2.7617
  0.425   2.5617
  0.424   2.4617
  0.423   2.1617
  0.422   2.1617
  0.421   2.0617
  0.420   2.0617
  0.419   1.7617
  0.418   1.7617
  0.417   1.6617
  0.416   1.3617
  0.415   1.4617
  0.414   1.4617
  0.413   1.1617
  0.412   1.3617
  0.411   1.3617
  0.410   1.0617
  0.409   0.8617
  0.408   0.8617
  0.407   0.7617
  0.406   0.4617
  0.405   0.4617
