Name: Basalt
Type: Rock
Class: Igneous
Subclass: Mafic
Particle Size: Whole rock chips
Sample No.: Mewy9
Owner: Lawrence Rowan, USGS Reston
Wavelength range: 0.40 - 14.05 um
Origin: Middle East

Description: Basalt, fresh surface





Measurement: Directional Hemispherical Reflectance
First Column: X
Second Column: Y
X Units: Wavelength (micrometers)
Y Units: Reflectance (percent)
First X Value: 14.05105
Last X Value: 0.40000
Number of X Values: 2231
Additional Information: mewy9a.txt

 14.051   3.4917
 14.013   3.1930
 13.975   3.2136
 13.938   3.2445
 13.900   3.1930
 13.863   3.2548
 13.826   3.3269
 13.790   3.2033
 13.753   3.2136
 13.717   3.1827
 13.680   3.1518
 13.644   3.0900
 13.609   3.1827
 13.573   3.3269
 13.538   3.2754
 13.502   3.1003
 13.467   3.2342
 13.432   3.3372
 13.398   3.3887
 13.363   3.3063
 13.329   3.2136
 13.295   3.1415
 13.261   3.1621
 13.227   3.2445
 13.193   3.2445
 13.160   3.1106
 13.126   3.1930
 13.093   3.3063
 13.060   3.3681
 13.027   3.2651
 12.995   3.2239
 12.962   3.2754
 12.930   3.3578
 12.898   3.4402
 12.866   3.4299
 12.834   3.3578
 12.802   3.3990
 12.771   3.3372
 12.739   3.3784
 12.708   3.4608
 12.677   3.4917
 12.646   3.4093
 12.616   3.4093
 12.585   3.4608
 12.554   3.6153
 12.524   3.6565
 12.494   3.7080
 12.464   3.7389
 12.434   3.7492
 12.404   3.7904
 12.375   3.9346
 12.345   3.9655
 12.316   3.9346
 12.287   3.9964
 12.258   4.1406
 12.229   4.1921
 12.200   4.2642
 12.171   4.4084
 12.143   4.5629
 12.115   4.5320
 12.086   4.5423
 12.058   4.5011
 12.030   4.6041
 12.002   4.7380
 11.975   4.8101
 11.947   4.9028
 11.920   5.0058
 11.892   4.9852
 11.865   4.9543
 11.838   4.9543
 11.811   5.0676
 11.784   5.0882
 11.757   5.2324
 11.731   5.4075
 11.704   5.4693
 11.678   5.4693
 11.652   5.5723
 11.626   5.6856
 11.600   5.7783
 11.574   5.8504
 11.548   6.0152
 11.522   6.1388
 11.497   6.2109
 11.471   6.2933
 11.446   6.4684
 11.421   6.6229
 11.396   6.6641
 11.371   6.7053
 11.346   6.8495
 11.321   6.8289
 11.297   6.8392
 11.272   6.9937
 11.248   7.2100
 11.223   7.2203
 11.199   7.2615
 11.175   7.2821
 11.151   7.3954
 11.127   7.4057
 11.103   7.4366
 11.079   7.5087
 11.056   7.6529
 11.032   7.6838
 11.009   7.8074
 10.985   7.8589
 10.962   7.9310
 10.939   7.9619
 10.916   8.0340
 10.893   8.1061
 10.870   8.1782
 10.848   8.2091
 10.825   8.3121
 10.802   8.3739
 10.780   8.3018
 10.758   8.3224
 10.735   8.5284
 10.713   8.5593
 10.691   8.5490
 10.669   8.5490
 10.647   8.6211
 10.625   8.7035
 10.604   8.8168
 10.582   8.8580
 10.560   8.9713
 10.539   9.0022
 10.518   8.9404
 10.496   8.9507
 10.475   9.0022
 10.454   9.0537
 10.433   9.1979
 10.412   9.3833
 10.391   9.5996
 10.370   9.7747
 10.350   9.9601
 10.329   9.9910
 10.309  10.0940
 10.288  10.2279
 10.268  10.3206
 10.247  10.4133
 10.227  10.4854
 10.207  10.5266
 10.187  10.5575
 10.167  10.4751
 10.147  10.5163
 10.127  10.6605
 10.108  10.8356
 10.088  10.9386
 10.068  11.0519
 10.049  11.0828
 10.029  11.1446
 10.010  11.2476
  9.991  11.3197
  9.972  11.2991
  9.952  11.4330
  9.933  11.5566
  9.914  11.5463
  9.895  11.6184
  9.877  11.8347
  9.858  11.9274
  9.839  12.0407
  9.821  12.1128
  9.802  12.2055
  9.783  12.2261
  9.765  12.2879
  9.747  12.3703
  9.728  12.5248
  9.710  12.5557
  9.692  12.6278
  9.674  12.6999
  9.656  12.6896
  9.638  12.7205
  9.620  12.7823
  9.602  12.7823
  9.585  12.6587
  9.567  12.5660
  9.549  12.4939
  9.532  12.3188
  9.514  12.2879
  9.497  12.2776
  9.479  12.1952
  9.462  11.9995
  9.445  11.7626
  9.428  11.5772
  9.411  11.3815
  9.394  11.1858
  9.377  11.0004
  9.360  10.7635
  9.343  10.4957
  9.326  10.2382
  9.309  10.0322
  9.293   9.7747
  9.276   9.5996
  9.259   9.4039
  9.243   9.1670
  9.226   8.9507
  9.210   8.7756
  9.194   8.6726
  9.178   8.8271
  9.161   8.9301
  9.145   9.0228
  9.129   9.0228
  9.113   8.9919
  9.097   9.0331
  9.081   9.1052
  9.065   9.0331
  9.049   9.0331
  9.034   8.9404
  9.018   8.9198
  9.002   8.8992
  8.987   8.9198
  8.971   8.8065
  8.956   8.6932
  8.940   8.7035
  8.925   8.7138
  8.909   8.5593
  8.894   8.3739
  8.879   8.1885
  8.864   8.0855
  8.849   8.0958
  8.834   8.0031
  8.819   7.7044
  8.804   7.6529
  8.789   7.6426
  8.774   7.5911
  8.759   7.5190
  8.744   7.4263
  8.730   7.4057
  8.715   7.3645
  8.700   7.2821
  8.686   7.2409
  8.671   7.0555
  8.657   6.9731
  8.642   6.9937
  8.628   6.9422
  8.614   6.7568
  8.599   6.6023
  8.585   6.4993
  8.571   6.4890
  8.557   6.3654
  8.543   6.3139
  8.529   6.2830
  8.515   6.1697
  8.501   6.1182
  8.487   6.1697
  8.473   6.1594
  8.459   6.0770
  8.445   5.9946
  8.431   5.9946
  8.418   5.9431
  8.404   5.8916
  8.391   5.8916
  8.377   5.9946
  8.363   5.9637
  8.350   5.8710
  8.337   5.7680
  8.323   5.6856
  8.310   5.5517
  8.297   5.4693
  8.283   5.3869
  8.270   5.4178
  8.257   5.3663
  8.244   5.3148
  8.231   5.2427
  8.218   5.2221
  8.205   5.1500
  8.192   5.0779
  8.179   5.0470
  8.166   5.1088
  8.153   4.9955
  8.140   4.9543
  8.128   4.9955
  8.115   4.9749
  8.102   4.8719
  8.090   4.8925
  8.077   4.8925
  8.064   4.8410
  8.052   4.7895
  8.039   4.7998
  8.027   4.7586
  8.015   4.7998
  8.002   4.8307
  7.990   4.9234
  7.978   4.9234
  7.965   4.8616
  7.953   4.8513
  7.941   4.8822
  7.929   4.8616
  7.917   4.9337
  7.905   4.9440
  7.893   4.9646
  7.881   5.0161
  7.869   5.0161
  7.857   5.0676
  7.845   5.0779
  7.833   5.0367
  7.821   5.0470
  7.809   5.0161
  7.798   5.0264
  7.786   4.9955
  7.774   5.0470
  7.763   5.1500
  7.751   5.1500
  7.739   5.1088
  7.728   5.1397
  7.716   5.1500
  7.705   5.1912
  7.694   5.1706
  7.682   5.2427
  7.671   5.2530
  7.659   5.2633
  7.648   5.2427
  7.637   5.2427
  7.626   5.3354
  7.614   5.3354
  7.603   5.1912
  7.592   5.1603
  7.581   5.2221
  7.570   5.3045
  7.559   5.3354
  7.548   5.3354
  7.537   5.3251
  7.526   5.3663
  7.515   5.3251
  7.504   5.3354
  7.493   5.3354
  7.483   5.3354
  7.472   5.3354
  7.461   5.4178
  7.450   5.4487
  7.440   5.3663
  7.429   5.3148
  7.418   5.3251
  7.408   5.3766
  7.397   5.4590
  7.387   5.4384
  7.376   5.4487
  7.366   5.4590
  7.355   5.5311
  7.345   5.5723
  7.334   5.5620
  7.324   5.5517
  7.314   5.5311
  7.303   5.4693
  7.293   5.5105
  7.283   5.5002
  7.273   5.5002
  7.263   5.5105
  7.252   5.5517
  7.242   5.5311
  7.232   5.4796
  7.222   5.4693
  7.212   5.4796
  7.202   5.4693
  7.192   5.4693
  7.182   5.5517
  7.172   5.6032
  7.162   5.6032
  7.152   5.5517
  7.143   5.5105
  7.133   5.4796
  7.123   5.5002
  7.113   5.6650
  7.103   5.7062
  7.094   5.6959
  7.084   5.6032
  7.074   5.5414
  7.065   5.5620
  7.055   5.7165
  7.046   5.7886
  7.036   5.8092
  7.026   5.6856
  7.017   5.6032
  7.007   5.5620
  6.998   5.5517
  6.989   5.6341
  6.979   5.6856
  6.970   5.7371
  6.960   5.9019
  6.951   5.9534
  6.942   5.8092
  6.932   5.7371
  6.923   5.7577
  6.914   5.7268
  6.905   5.7886
  6.896   5.8298
  6.886   5.8092
  6.877   5.7989
  6.868   5.7989
  6.859   5.8916
  6.850   5.8916
  6.841   5.7371
  6.832   5.6650
  6.823   5.7165
  6.814   5.7474
  6.805   5.6856
  6.796   5.6341
  6.787   5.6856
  6.778   5.7268
  6.770   5.6959
  6.761   5.7165
  6.752   5.7268
  6.743   5.7165
  6.734   5.5826
  6.726   5.5208
  6.717   5.5620
  6.708   5.6238
  6.700   5.5929
  6.691   5.5517
  6.682   5.5723
  6.674   5.6547
  6.665   5.6444
  6.657   5.6238
  6.648   5.5723
  6.640   5.6444
  6.631   5.7989
  6.623   5.7577
  6.614   5.6238
  6.606   5.6238
  6.597   5.5929
  6.589   5.6238
  6.581   5.5723
  6.572   5.5517
  6.564   5.6135
  6.556   5.6032
  6.547   5.5517
  6.539   5.5517
  6.531   5.5826
  6.523   5.6032
  6.514   5.6547
  6.506   5.6032
  6.498   5.6238
  6.490   5.7680
  6.482   5.7680
  6.474   5.6444
  6.466   5.5620
  6.458   5.6032
  6.450   5.5826
  6.442   5.5517
  6.434   5.5826
  6.426   5.6444
  6.418   5.7062
  6.410   5.8195
  6.402   5.7783
  6.394   5.6650
  6.386   5.6444
  6.378   5.6341
  6.370   5.6650
  6.363   5.7165
  6.355   5.6032
  6.347   5.6135
  6.339   5.7474
  6.332   5.6650
  6.324   5.5002
  6.316   5.5517
  6.308   5.6135
  6.301   5.7062
  6.293   5.7062
  6.286   5.6238
  6.278   5.5723
  6.270   5.5620
  6.263   5.5414
  6.255   5.5723
  6.248   5.5826
  6.240   5.5208
  6.233   5.4487
  6.225   5.4590
  6.218   5.5002
  6.210   5.5311
  6.203   5.4899
  6.195   5.4384
  6.188   5.4693
  6.181   5.5517
  6.173   5.4899
  6.166   5.4075
  6.159   5.3869
  6.151   5.3869
  6.144   5.3457
  6.137   5.2942
  6.130   5.2736
  6.122   5.3148
  6.115   5.3663
  6.108   5.4590
  6.101   5.3869
  6.094   5.2839
  6.086   5.2324
  6.079   5.3045
  6.072   5.3251
  6.065   5.2530
  6.058   5.2736
  6.051   5.3663
  6.044   5.4590
  6.037   5.3869
  6.030   5.2530
  6.023   5.2324
  6.016   5.2427
  6.009   5.2324
  6.002   5.2633
  5.995   5.3251
  5.988   5.3663
  5.981   5.3045
  5.974   5.2839
  5.967   5.4384
  5.960   5.5208
  5.954   5.4796
  5.947   5.3972
  5.940   5.4384
  5.933   5.6032
  5.926   5.6135
  5.920   5.4796
  5.913   5.4487
  5.906   5.4796
  5.899   5.5105
  5.893   5.6135
  5.886   5.5929
  5.879   5.6959
  5.873   5.7577
  5.866   5.5723
  5.859   5.5414
  5.853   5.5105
  5.846   5.4796
  5.840   5.4590
  5.833   5.5208
  5.827   5.6238
  5.820   5.7062
  5.813   5.7165
  5.807   5.6753
  5.800   5.6650
  5.794   5.6341
  5.788   5.5826
  5.781   5.6238
  5.775   5.6547
  5.768   5.7268
  5.762   5.8092
  5.755   5.7474
  5.749   5.6753
  5.743   5.6753
  5.736   5.6135
  5.730   5.6341
  5.724   5.6856
  5.717   5.7474
  5.711   5.7989
  5.705   5.8195
  5.698   5.7268
  5.692   5.6856
  5.686   5.6856
  5.680   5.7062
  5.674   5.7680
  5.667   5.7989
  5.661   5.7062
  5.655   5.7268
  5.649   5.7886
  5.643   5.8504
  5.637   5.8607
  5.630   5.7886
  5.624   5.7577
  5.618   5.7783
  5.612   5.7680
  5.606   5.7474
  5.600   5.8298
  5.594   5.8607
  5.588   5.8092
  5.582   5.8092
  5.576   5.8401
  5.570   5.8813
  5.564   5.8504
  5.558   5.8298
  5.552   5.8504
  5.546   5.9431
  5.540   5.9431
  5.534   5.9122
  5.528   5.9019
  5.523   5.9225
  5.517   5.9019
  5.511   5.8916
  5.505   5.9534
  5.499   6.0564
  5.493   6.0152
  5.487   5.9637
  5.482   5.9740
  5.476   6.0770
  5.470   6.0667
  5.464   6.0358
  5.459   6.0976
  5.453   6.0770
  5.447   6.0255
  5.441   6.0667
  5.436   6.0667
  5.430   6.0461
  5.424   6.1182
  5.419   6.2006
  5.413   6.1697
  5.407   6.1594
  5.402   6.1594
  5.396   6.1903
  5.390   6.1903
  5.385   6.1594
  5.379   6.1182
  5.374   6.1491
  5.368   6.1800
  5.363   6.2006
  5.357   6.2212
  5.352   6.2521
  5.346   6.2727
  5.341   6.3036
  5.335   6.2830
  5.330   6.2727
  5.324   6.2933
  5.319   6.2933
  5.313   6.2315
  5.308   6.2727
  5.302   6.3448
  5.297   6.3860
  5.291   6.3654
  5.286   6.3757
  5.281   6.2933
  5.275   6.2521
  5.270   6.2418
  5.265   6.2418
  5.259   6.2315
  5.254   6.3242
  5.249   6.3551
  5.243   6.3448
  5.238   6.3448
  5.233   6.3654
  5.227   6.3551
  5.222   6.3860
  5.217   6.4272
  5.212   6.5096
  5.206   6.4890
  5.201   6.4169
  5.196   6.3757
  5.191   6.3654
  5.186   6.3551
  5.180   6.3448
  5.175   6.3448
  5.170   6.3551
  5.165   6.3242
  5.160   6.3757
  5.155   6.3963
  5.150   6.4375
  5.145   6.4581
  5.139   6.4581
  5.134   6.4169
  5.129   6.3551
  5.124   6.3345
  5.119   6.4066
  5.114   6.4375
  5.109   6.4272
  5.104   6.3448
  5.099   6.3139
  5.094   6.3242
  5.089   6.3654
  5.084   6.3654
  5.079   6.4169
  5.074   6.3963
  5.069   6.3448
  5.064   6.3551
  5.059   6.3551
  5.054   6.3036
  5.049   6.3242
  5.044   6.3551
  5.040   6.3448
  5.035   6.3448
  5.030   6.3448
  5.025   6.3036
  5.020   6.3242
  5.015   6.2727
  5.010   6.3139
  5.005   6.3757
  5.001   6.3551
  4.996   6.3139
  4.991   6.3139
  4.986   6.3345
  4.981   6.3345
  4.977   6.3036
  4.972   6.3448
  4.967   6.3242
  4.962   6.3036
  4.958   6.3242
  4.953   6.3551
  4.948   6.3036
  4.943   6.2933
  4.939   6.4066
  4.934   6.4375
  4.929   6.3654
  4.925   6.4169
  4.920   6.4478
  4.915   6.4169
  4.911   6.3860
  4.906   6.4066
  4.901   6.3654
  4.897   6.3345
  4.892   6.3654
  4.888   6.3139
  4.883   6.2727
  4.878   6.3345
  4.874   6.3860
  4.869   6.3757
  4.865   6.3242
  4.860   6.3036
  4.856   6.2830
  4.851   6.3139
  4.846   6.3345
  4.842   6.3860
  4.837   6.4478
  4.833   6.4993
  4.828   6.4478
  4.824   6.3551
  4.819   6.3654
  4.815   6.3654
  4.810   6.3036
  4.806   6.3139
  4.802   6.3242
  4.797   6.3654
  4.793   6.3860
  4.788   6.3448
  4.784   6.3860
  4.779   6.4375
  4.775   6.3551
  4.771   6.2830
  4.766   6.3551
  4.762   6.4066
  4.758   6.3242
  4.753   6.3036
  4.749   6.3345
  4.744   6.3963
  4.740   6.3345
  4.736   6.3448
  4.731   6.4169
  4.727   6.4375
  4.723   6.4066
  4.719   6.3654
  4.714   6.3242
  4.710   6.3963
  4.706   6.3963
  4.701   6.4478
  4.697   6.4684
  4.693   6.3963
  4.689   6.3860
  4.684   6.3963
  4.680   6.4169
  4.676   6.4581
  4.672   6.4169
  4.668   6.3757
  4.663   6.3860
  4.659   6.4581
  4.655   6.4787
  4.651   6.4890
  4.647   6.4375
  4.643   6.4066
  4.638   6.4581
  4.634   6.4272
  4.630   6.3448
  4.626   6.3860
  4.622   6.3757
  4.618   6.3551
  4.614   6.3448
  4.610   6.3963
  4.605   6.4169
  4.601   6.4272
  4.597   6.3963
  4.593   6.4581
  4.589   6.4787
  4.585   6.4066
  4.581   6.3551
  4.577   6.3551
  4.573   6.3757
  4.569   6.4581
  4.565   6.4478
  4.561   6.4066
  4.557   6.4169
  4.553   6.4375
  4.549   6.4272
  4.545   6.3654
  4.541   6.3551
  4.537   6.3860
  4.533   6.3757
  4.529   6.4169
  4.525   6.4890
  4.521   6.4993
  4.517   6.3963
  4.513   6.4066
  4.509   6.3860
  4.505   6.4169
  4.502   6.5508
  4.498   6.5405
  4.494   6.5096
  4.490   6.4890
  4.486   6.4375
  4.482   6.3448
  4.478   6.3242
  4.474   6.4169
  4.470   6.4066
  4.467   6.3654
  4.463   6.3757
  4.459   6.3757
  4.455   6.2933
  4.451   6.3036
  4.447   6.3551
  4.444   6.4169
  4.440   6.3860
  4.436   6.3448
  4.432   6.3551
  4.428   6.3963
  4.425   6.4169
  4.421   6.3139
  4.417   6.2624
  4.413   6.2830
  4.410   6.3242
  4.406   6.3345
  4.402   6.2521
  4.398   6.2933
  4.395   6.3860
  4.391   6.4066
  4.387   6.3551
  4.384   6.3551
  4.380   6.3551
  4.376   6.2830
  4.372   6.2109
  4.369   6.2933
  4.365   6.2624
  4.361   6.2212
  4.358   6.2624
  4.354   6.2727
  4.350   6.2315
  4.347   6.2418
  4.343   6.2521
  4.340   6.2727
  4.336   6.2418
  4.332   6.1903
  4.329   6.2624
  4.325   6.3036
  4.321   6.1800
  4.318   6.1594
  4.314   6.1800
  4.311   6.1285
  4.307   6.0873
  4.304   6.1903
  4.300   6.2521
  4.296   6.2727
  4.293   6.2624
  4.289   6.2418
  4.286   6.2109
  4.282   6.2521
  4.279   6.2006
  4.275   6.1697
  4.272   6.1800
  4.268   6.2006
  4.265   6.1697
  4.261   6.0770
  4.258   6.0770
  4.254   6.2006
  4.251   6.2521
  4.247   6.2315
  4.244   6.1697
  4.240   6.1903
  4.237   6.1388
  4.233   6.1388
  4.230   6.2212
  4.226   6.1594
  4.223   6.0873
  4.219   6.0564
  4.216   6.0255
  4.213   6.0461
  4.209   6.0255
  4.206   6.0152
  4.202   6.0255
  4.199   6.1079
  4.196   6.1594
  4.192   6.1182
  4.189   6.0667
  4.185   5.9946
  4.182   5.9431
  4.179   5.9534
  4.175   5.9431
  4.172   5.8710
  4.169   5.7886
  4.165   5.8195
  4.162   5.8607
  4.159   5.9019
  4.155   5.8298
  4.152   5.7577
  4.149   5.9122
  4.145   6.0358
  4.142   5.9740
  4.139   5.9843
  4.135   5.8504
  4.132   5.7680
  4.129   5.8504
  4.126   5.8813
  4.122   5.8401
  4.119   5.9122
  4.116   5.8710
  4.112   5.8195
  4.109   5.7474
  4.106   5.7062
  4.103   5.7783
  4.099   5.9328
  4.096   5.9019
  4.093   5.8504
  4.090   5.8710
  4.086   5.8092
  4.083   5.6753
  4.080   5.6856
  4.077   5.7165
  4.074   5.7989
  4.070   5.7680
  4.067   5.7062
  4.064   5.6753
  4.061   5.6547
  4.058   5.7783
  4.055   5.8504
  4.051   5.8710
  4.048   5.8607
  4.045   5.7783
  4.042   5.7268
  4.039   5.6753
  4.036   5.6856
  4.032   5.7062
  4.029   5.7371
  4.026   5.7371
  4.023   5.7165
  4.020   5.6547
  4.017   5.5414
  4.014   5.4384
  4.011   5.5517
  4.008   5.6547
  4.004   5.6135
  4.001   5.6650
  3.998   5.7577
  3.995   5.6856
  3.992   5.6444
  3.989   5.6135
  3.986   5.6032
  3.983   5.6032
  3.980   5.6032
  3.977   5.6238
  3.974   5.5620
  3.971   5.4693
  3.968   5.4899
  3.965   5.4899
  3.962   5.4693
  3.959   5.5208
  3.956   5.5414
  3.953   5.5208
  3.950   5.5002
  3.947   5.5002
  3.944   5.5517
  3.941   5.4487
  3.938   5.4487
  3.935   5.4281
  3.932   5.4075
  3.929   5.4693
  3.926   5.5929
  3.923   5.4796
  3.920   5.3251
  3.917   5.4075
  3.914   5.4178
  3.911   5.3766
  3.908   5.4178
  3.905   5.4796
  3.902   5.5517
  3.899   5.5414
  3.896   5.4487
  3.893   5.2736
  3.890   5.2839
  3.887   5.3766
  3.884   5.3869
  3.882   5.4590
  3.879   5.5414
  3.876   5.4693
  3.873   5.4178
  3.870   5.3869
  3.867   5.4178
  3.864   5.3766
  3.861   5.3354
  3.858   5.2530
  3.856   5.3251
  3.853   5.4281
  3.850   5.4590
  3.847   5.3663
  3.844   5.3251
  3.841   5.2942
  3.838   5.2427
  3.836   5.2839
  3.833   5.4281
  3.830   5.4487
  3.827   5.3354
  3.824   5.2118
  3.822   5.1706
  3.819   5.1294
  3.816   5.0985
  3.813   5.1500
  3.810   5.2839
  3.807   5.3045
  3.805   5.2736
  3.802   5.3251
  3.799   5.3560
  3.796   5.3766
  3.794   5.4281
  3.791   5.3354
  3.788   5.1912
  3.785   5.2015
  3.782   5.2530
  3.780   5.2427
  3.777   5.2221
  3.774   5.2633
  3.771   5.2427
  3.769   5.2118
  3.766   5.2221
  3.763   5.2736
  3.761   5.3560
  3.758   5.3354
  3.755   5.3251
  3.752   5.2736
  3.750   5.1397
  3.747   5.1088
  3.744   5.1500
  3.742   5.1706
  3.739   5.2736
  3.736   5.2118
  3.733   5.1603
  3.731   5.1397
  3.728   5.1912
  3.725   5.2015
  3.723   5.1809
  3.720   5.2530
  3.717   5.2118
  3.715   5.1706
  3.712   5.2015
  3.709   5.0676
  3.707   4.9955
  3.704   4.9955
  3.702   5.0882
  3.699   5.1088
  3.696   5.1397
  3.694   5.1191
  3.691   5.1500
  3.688   5.2839
  3.686   5.2633
  3.683   5.1191
  3.680   5.0882
  3.678   5.1397
  3.675   5.1088
  3.673   5.0058
  3.670   5.0264
  3.667   5.0058
  3.665   5.0573
  3.662   5.1397
  3.660   5.1706
  3.657   5.0985
  3.655   5.1294
  3.652   5.2942
  3.649   5.2633
  3.647   5.0676
  3.644   5.0367
  3.642   5.1294
  3.639   5.0779
  3.637   5.0058
  3.634   4.9955
  3.632   5.0161
  3.629   5.1088
  3.626   5.0470
  3.624   5.0985
  3.621   5.1500
  3.619   5.1191
  3.616   5.0985
  3.614   5.1706
  3.611   5.1397
  3.609   5.0470
  3.606   5.0470
  3.604   5.1088
  3.601   5.0573
  3.599   5.0058
  3.596   4.9646
  3.594   4.9646
  3.591   5.0367
  3.589   5.0367
  3.586   4.9543
  3.584   5.0367
  3.581   5.1294
  3.579   5.1191
  3.576   5.0779
  3.574   5.0779
  3.571   5.0058
  3.569   4.9852
  3.567   5.0264
  3.564   5.0882
  3.562   5.1191
  3.559   5.1397
  3.557   5.1294
  3.554   5.1191
  3.552   5.0367
  3.549   4.9646
  3.547   4.9749
  3.545   5.0264
  3.542   4.9131
  3.540   4.8616
  3.537   4.9337
  3.535   5.0779
  3.533   5.1706
  3.530   5.0676
  3.528   5.0264
  3.525   5.0882
  3.523   5.1088
  3.521   5.0676
  3.518   4.9543
  3.516   4.9955
  3.513   5.1397
  3.511   5.1603
  3.509   5.0779
  3.506   5.0058
  3.504   4.9955
  3.502   5.0058
  3.499   4.9646
  3.497   4.9646
  3.494   4.9028
  3.492   5.0161
  3.490   5.0573
  3.487   5.0573
  3.485   5.0779
  3.483   5.0573
  3.480   4.9543
  3.478   4.9028
  3.476   4.9646
  3.473   5.1191
  3.471   5.1294
  3.469   5.0470
  3.466   4.9337
  3.464   4.9234
  3.462   4.8822
  3.460   4.8925
  3.457   4.9131
  3.455   4.9646
  3.453   5.0779
  3.450   5.0058
  3.448   4.8822
  3.446   4.9028
  3.443   4.8616
  3.441   4.8616
  3.439   4.9028
  3.437   4.9440
  3.434   4.8719
  3.432   4.7792
  3.430   4.8204
  3.428   4.8925
  3.425   4.8822
  3.423   4.8410
  3.421   4.8719
  3.418   4.8513
  3.416   4.8307
  3.414   4.9131
  3.412   4.9131
  3.409   4.8719
  3.407   4.8925
  3.405   4.9749
  3.403   4.9028
  3.401   4.9028
  3.398   4.8719
  3.396   4.8204
  3.394   4.7483
  3.392   4.7895
  3.389   4.7277
  3.387   4.7174
  3.385   4.8616
  3.383   4.9131
  3.381   4.9440
  3.378   4.9131
  3.376   4.7998
  3.374   4.7174
  3.372   4.6968
  3.370   4.7380
  3.367   4.8616
  3.365   4.9234
  3.363   4.7174
  3.361   4.7895
  3.359   4.9337
  3.357   5.0161
  3.354   4.9440
  3.352   4.8513
  3.350   4.8925
  3.348   4.9131
  3.346   4.9028
  3.344   4.8307
  3.341   4.8101
  3.339   4.8307
  3.337   4.7998
  3.335   4.9131
  3.333   4.9543
  3.331   4.9543
  3.329   4.8204
  3.326   4.6350
  3.324   4.6762
  3.322   4.8204
  3.320   4.9131
  3.318   4.8925
  3.316   4.7174
  3.314   4.6556
  3.312   4.8719
  3.309   5.0882
  3.307   5.1088
  3.305   5.0573
  3.303   4.8822
  3.301   4.7792
  3.299   4.8616
  3.297   4.8307
  3.295   4.6865
  3.293   4.7071
  3.291   4.7895
  3.288   4.8307
  3.286   4.7277
  3.284   4.8822
  3.282   4.8616
  3.280   4.7174
  3.278   4.6865
  3.276   4.6659
  3.274   4.7380
  3.272   4.8410
  3.270   4.8101
  3.268   4.8410
  3.266   4.7895
  3.264   4.8101
  3.262   4.7380
  3.259   4.6659
  3.257   4.7174
  3.255   4.8307
  3.253   4.9955
  3.251   4.9749
  3.249   4.8410
  3.247   4.7586
  3.245   4.6968
  3.243   4.6556
  3.241   4.6453
  3.239   4.7380
  3.237   4.8925
  3.235   4.8410
  3.233   4.7895
  3.231   4.8616
  3.229   4.8101
  3.227   4.8616
  3.225   4.8822
  3.223   4.7174
  3.221   4.6762
  3.219   4.7380
  3.217   4.6968
  3.215   4.6968
  3.213   4.8410
  3.211   4.9440
  3.209   4.8204
  3.207   4.7998
  3.205   4.8410
  3.203   4.8410
  3.201   4.7895
  3.199   4.6865
  3.197   4.6762
  3.195   4.6659
  3.193   4.6144
  3.191   4.6453
  3.189   4.7792
  3.187   4.7483
  3.185   4.6968
  3.183   4.7380
  3.182   4.7483
  3.180   4.7792
  3.178   4.7586
  3.176   4.8307
  3.174   4.7689
  3.172   4.7277
  3.170   4.7895
  3.168   4.8101
  3.166   4.8204
  3.164   4.6968
  3.162   4.5732
  3.160   4.5732
  3.158   4.7277
  3.156   4.6350
  3.154   4.6968
  3.152   4.6453
  3.151   4.5114
  3.149   4.6762
  3.147   4.7174
  3.145   4.7071
  3.143   4.8204
  3.141   4.7998
  3.139   4.7174
  3.137   4.7792
  3.135   4.7792
  3.133   4.7174
  3.132   4.6556
  3.130   4.6659
  3.128   4.6968
  3.126   4.5835
  3.124   4.3569
  3.122   4.5011
  3.120   4.6865
  3.118   4.6968
  3.117   4.7277
  3.115   4.7586
  3.113   4.7277
  3.111   4.5938
  3.109   4.5732
  3.107   4.5423
  3.105   4.6041
  3.103   4.6659
  3.102   4.7174
  3.100   4.7071
  3.098   4.5629
  3.096   4.5011
  3.094   4.5629
  3.092   4.7792
  3.091   4.7380
  3.089   4.5526
  3.087   4.5835
  3.085   4.5938
  3.083   4.6041
  3.081   4.6659
  3.079   4.6762
  3.078   4.5423
  3.076   4.5011
  3.074   4.7071
  3.072   4.6762
  3.070   4.6247
  3.069   4.4908
  3.067   4.5732
  3.065   4.6659
  3.063   4.7071
  3.061   4.7586
  3.060   4.7174
  3.058   4.5423
  3.056   4.5732
  3.054   4.6247
  3.052   4.6144
  3.051   4.5526
  3.049   4.5423
  3.047   4.6041
  3.045   4.6865
  3.043   4.6350
  3.042   4.5629
  3.040   4.5114
  3.038   4.5423
  3.036   4.6865
  3.034   4.6659
  3.033   4.4805
  3.031   4.5114
  3.029   4.6556
  3.027   4.6453
  3.026   4.6247
  3.024   4.6968
  3.022   4.6247
  3.020   4.6453
  3.019   4.5732
  3.017   4.5526
  3.015   4.6968
  3.013   4.6659
  3.012   4.4805
  3.010   4.5526
  3.008   4.5732
  3.006   4.5320
  3.005   4.5835
  3.003   4.6762
  3.001   4.6144
  2.999   4.6350
  2.998   4.6659
  2.996   4.6041
  2.994   4.6144
  2.992   4.6041
  2.991   4.5938
  2.989   4.6453
  2.987   4.7277
  2.986   4.7689
  2.984   4.6041
  2.982   4.6556
  2.980   4.6453
  2.979   4.6556
  2.977   4.6144
  2.975   4.5835
  2.974   4.5938
  2.972   4.6144
  2.970   4.4599
  2.968   4.4702
  2.967   4.5629
  2.965   4.6762
  2.963   4.7792
  2.962   4.6453
  2.960   4.2745
  2.958   4.2745
  2.957   4.4393
  2.955   4.6762
  2.953   4.5423
  2.952   4.4084
  2.950   4.6247
  2.948   4.6350
  2.947   4.6041
  2.945   4.5732
  2.943   4.5835
  2.942   4.5938
  2.940   4.4908
  2.938   4.5835
  2.937   4.4599
  2.935   4.4187
  2.933   4.5423
  2.932   4.5320
  2.930   4.7071
  2.928   4.9028
  2.927   4.5423
  2.925   4.1921
  2.923   4.3054
  2.922   4.5526
  2.920   4.6350
  2.918   4.7380
  2.917   4.7998
  2.915   4.7071
  2.913   4.6144
  2.912   4.6556
  2.910   4.5938
  2.909   4.4908
  2.907   4.4702
  2.905   4.4599
  2.904   4.4290
  2.902   4.6247
  2.900   4.8719
  2.899   4.8307
  2.897   4.4290
  2.896   4.4496
  2.894   4.6865
  2.892   4.5629
  2.891   4.6350
  2.889   4.6556
  2.887   4.5835
  2.886   4.5732
  2.884   4.4599
  2.883   4.6556
  2.881   4.8513
  2.879   4.9852
  2.878   4.7586
  2.876   4.5423
  2.875   4.6762
  2.873   4.7071
  2.871   4.4599
  2.870   4.5835
  2.868   4.6144
  2.867   4.5320
  2.865   4.4702
  2.864   4.4908
  2.862   4.5114
  2.860   4.5629
  2.859   4.7689
  2.857   4.9234
  2.856   4.7895
  2.854   4.6144
  2.853   4.4393
  2.851   4.3981
  2.849   4.5629
  2.848   4.6453
  2.846   4.4805
  2.845   4.4805
  2.843   4.6041
  2.842   4.5629
  2.840   4.6556
  2.838   4.6247
  2.837   4.4187
  2.835   4.3054
  2.834   4.3775
  2.832   4.3672
  2.831   4.4290
  2.829   4.4290
  2.828   4.5938
  2.826   4.7895
  2.825   4.8513
  2.823   4.7174
  2.821   4.4084
  2.820   4.2745
  2.818   4.4084
  2.817   4.4805
  2.815   4.3260
  2.814   4.2848
  2.812   4.3466
  2.811   4.3878
  2.809   4.4393
  2.808   4.6556
  2.806   4.7380
  2.805   4.6968
  2.803   4.7483
  2.802   4.8204
  2.800   4.3981
  2.799   4.1200
  2.797   4.4496
  2.796   4.7586
  2.794   4.7483
  2.793   4.9234
  2.791   4.9440
  2.790   4.7792
  2.788   4.5011
  2.787   4.5114
  2.785   4.4084
  2.784   4.5732
  2.782   4.9131
  2.781   4.8616
  2.779   4.5217
  2.778   4.5938
  2.776   4.5320
  2.775   4.6762
  2.773   4.8616
  2.772   4.7277
  2.770   4.4290
  2.769   4.6968
  2.767   5.0676
  2.766   4.7483
  2.764   4.5217
  2.763   4.6865
  2.761   4.7277
  2.760   4.6968
  2.758   4.7586
  2.757   4.7792
  2.756   4.7998
  2.754   4.6968
  2.753   4.8719
  2.751   5.0882
  2.750   4.9955
  2.748   4.6968
  2.747   4.5629
  2.745   4.5938
  2.744   4.8410
  2.742   5.0779
  2.741   5.3148
  2.740   5.0161
  2.738   4.5320
  2.737   4.5732
  2.735   4.9028
  2.734   4.7895
  2.732   4.6556
  2.731   4.9131
  2.729   4.8925
  2.728   4.7586
  2.727   4.6556
  2.725   4.6556
  2.724   4.7895
  2.722   4.9543
  2.721   5.1397
  2.719   5.1088
  2.718   4.8410
  2.717   4.8410
  2.715   4.9955
  2.714   4.8925
  2.712   4.3878
  2.711   4.4084
  2.709   4.7277
  2.708   4.8822
  2.707   4.8204
  2.705   4.6041
  2.704   4.6865
  2.702   4.9440
  2.701   5.3148
  2.700   5.3457
  2.698   4.9646
  2.697   4.8822
  2.695   4.9028
  2.694   4.8925
  2.693   4.8719
  2.691   4.9852
  2.690   5.0470
  2.688   5.1603
  2.687   5.0573
  2.686   4.8925
  2.684   4.9028
  2.683   5.0367
  2.681   5.0058
  2.680   4.9028
  2.679   4.9131
  2.677   4.8925
  2.676   4.7895
  2.675   5.0882
  2.673   5.1706
  2.672   4.9852
  2.670   5.0676
  2.669   5.0882
  2.668   5.0779
  2.666   5.3663
  2.665   5.2736
  2.664   5.1500
  2.662   5.1088
  2.661   5.1706
  2.659   5.2530
  2.658   5.1397
  2.657   4.9028
  2.655   4.9337
  2.654   5.1500
  2.653   5.6444
  2.651   5.3148
  2.650   4.8513
  2.649   4.9955
  2.647   5.3457
  2.646   5.3766
  2.645   5.1809
  2.643   5.0779
  2.642   5.0882
  2.640   5.0882
  2.639   5.0676
  2.638   5.0058
  2.636   5.0264
  2.635   5.2118
  2.634   5.5723
  2.632   5.4899
  2.631   4.9955
  2.630   5.1500
  2.628   5.2221
  2.627   5.2324
  2.626   5.3045
  2.624   5.1706
  2.623   5.0676
  2.622   4.8410
  2.620   4.9028
  2.619   5.2633
  2.618   5.2530
  2.617   5.4384
  2.615   5.4178
  2.614   5.3663
  2.613   4.9440
  2.611   4.8513
  2.610   5.1191
  2.609   5.2839
  2.607   5.3457
  2.606   5.4281
  2.605   5.4281
  2.603   5.4590
  2.602   5.4693
  2.601   5.2221
  2.599   5.1912
  2.598   5.6135
  2.597   5.4384
  2.596   4.9028
  2.594   5.0573
  2.593   5.2015
  2.592   5.1294
  2.590   5.0676
  2.589   5.2633
  2.588   5.5826
  2.586   5.5414
  2.585   5.3148
  2.584   4.9543
  2.583   4.9646
  2.581   5.0676
  2.580   5.1912
  2.579   5.2221
  2.577   5.1500
  2.576   5.5208
  2.575   5.5517
  2.574   5.1191
  2.572   4.7380
  2.571   4.9749
  2.570   5.5002
  2.569   5.3972
  2.567   5.2530
  2.566   5.2221
  2.565   4.9646
  2.563   5.1912
  2.562   5.1397
  2.561   5.2015
  2.560   5.3457
  2.558   5.2221
  2.557   5.0676
  2.556   4.9749
  2.555   5.1500
  2.553   5.0779
  2.552   5.1603
  2.551   5.3251
  2.550   5.3148
  2.548   5.4693
  2.547   5.4178
  2.546   5.3663
  2.545   5.2530
  2.543   5.1500
  2.542   5.3354
  2.541   5.5002
  2.540   5.1088
  2.538   5.0676
  2.537   5.4178
  2.536   5.4899
  2.535   5.2736
  2.533   4.9234
  2.532   4.9337
  2.531   5.2221
  2.530   5.4693
  2.528   5.4178
  2.527   5.2118
  2.526   5.0161
  2.525   4.9749
  2.524   5.2736
  2.522   5.2633
  2.521   5.0779
  2.520   5.0470
  2.519   5.1397
  2.517   5.3663
  2.516   5.3560
  2.515   5.1603
  2.514   5.0264
  2.513   5.0161
  2.511   5.1603
  2.510   5.0882
  2.509   5.1500
  2.508   5.4281
  2.506   5.6753
  2.505   5.7989
  2.504   5.7371
  2.503   5.4075
  2.502   4.9028
  2.500   4.5938
  2.496   4.5656
  2.492   4.2203
  2.488   5.0792
  2.484   4.9826
  2.480   4.2903
  2.476   4.4730
  2.472   5.0503
  2.468   4.9374
  2.464   4.5036
  2.460   4.6631
  2.456   4.5622
  2.452   5.1244
  2.448   4.9366
  2.444   4.5977
  2.440   4.5580
  2.436   4.8739
  2.432   4.7256
  2.428   4.8077
  2.424   4.6644
  2.420   4.8542
  2.416   5.1897
  2.412   5.1909
  2.408   5.2728
  2.404   4.6219
  2.400   4.7313
  2.396   4.9186
  2.392   4.5238
  2.388   5.0411
  2.384   5.0209
  2.380   5.3469
  2.376   4.8021
  2.372   5.0951
  2.368   5.0834
  2.364   5.0897
  2.360   4.7099
  2.356   5.1260
  2.352   5.0412
  2.348   5.0670
  2.344   4.9749
  2.340   4.5523
  2.336   4.9514
  2.332   4.9482
  2.328   5.1210
  2.324   4.8652
  2.320   5.1230
  2.316   4.9605
  2.312   5.0022
  2.308   5.1384
  2.304   4.9569
  2.300   5.0878
  2.296   4.9417
  2.292   5.1400
  2.288   4.8404
  2.284   4.9370
  2.280   5.0902
  2.276   4.9802
  2.272   4.9550
  2.268   5.0605
  2.264   5.1396
  2.260   5.1256
  2.256   5.1009
  2.252   5.0529
  2.248   5.0983
  2.244   4.9768
  2.240   4.9043
  2.236   5.0558
  2.232   5.2235
  2.228   5.1651
  2.224   5.0235
  2.220   4.9983
  2.216   5.1692
  2.212   5.2298
  2.208   5.2634
  2.204   5.1381
  2.200   5.1622
  2.196   5.2059
  2.192   5.2516
  2.188   5.2793
  2.184   5.4069
  2.180   5.3297
  2.176   5.2135
  2.172   5.2568
  2.168   5.2553
  2.164   5.3030
  2.160   5.4353
  2.156   5.3738
  2.152   5.3120
  2.148   5.2359
  2.144   5.3842
  2.140   5.4142
  2.136   5.3728
  2.132   5.2632
  2.128   5.2920
  2.124   5.3325
  2.120   5.3142
  2.116   5.2875
  2.112   5.2325
  2.108   5.2321
  2.104   5.2102
  2.100   5.2638
  2.096   5.2883
  2.092   5.2999
  2.088   5.3483
  2.084   5.3298
  2.080   5.2963
  2.076   5.3178
  2.072   5.3319
  2.068   5.3418
  2.064   5.3276
  2.060   5.3500
  2.056   5.4177
  2.052   5.4367
  2.048   5.3465
  2.044   5.3616
  2.040   5.4108
  2.036   5.4131
  2.032   5.3729
  2.028   5.3927
  2.024   5.4271
  2.020   5.4109
  2.016   5.4252
  2.012   5.4317
  2.008   5.4416
  2.004   5.4736
  2.000   5.5061
  1.996   5.5366
  1.992   5.5007
  1.988   5.4737
  1.984   5.5234
  1.980   5.5583
  1.976   5.5370
  1.972   5.5048
  1.968   5.5568
  1.964   5.5970
  1.960   5.5780
  1.956   5.6195
  1.952   5.5934
  1.948   5.6193
  1.944   5.6014
  1.940   5.5348
  1.936   5.5120
  1.932   5.4974
  1.928   5.4140
  1.924   5.3673
  1.920   5.3562
  1.916   5.2746
  1.912   5.1481
  1.908   5.1210
  1.904   5.1636
  1.900   5.1680
  1.896   5.1683
  1.892   5.1522
  1.888   5.1897
  1.884   5.3060
  1.880   5.3217
  1.876   5.3032
  1.872   5.3572
  1.868   5.3655
  1.864   5.3344
  1.860   5.2947
  1.856   5.3015
  1.852   5.3446
  1.848   5.3745
  1.844   5.3904
  1.840   5.4143
  1.836   5.3939
  1.832   5.3413
  1.828   5.3310
  1.824   5.3397
  1.820   5.3587
  1.816   5.3751
  1.812   5.3696
  1.808   5.3695
  1.804   5.3789
  1.800   5.4012
  1.796   5.4307
  1.792   5.4407
  1.788   5.4617
  1.784   5.4615
  1.780   5.4952
  1.776   5.4939
  1.772   5.4894
  1.768   5.5009
  1.764   5.4821
  1.760   5.4638
  1.756   5.4708
  1.752   5.4654
  1.748   5.4594
  1.744   5.4344
  1.740   5.4491
  1.736   5.4448
  1.732   5.4501
  1.728   5.4664
  1.724   5.4683
  1.720   5.4674
  1.716   5.4802
  1.712   5.4853
  1.708   5.4834
  1.704   5.4525
  1.700   5.4413
  1.696   5.4505
  1.692   5.4947
  1.688   5.5146
  1.684   5.5396
  1.680   5.5838
  1.676   5.5560
  1.672   5.5093
  1.668   5.5180
  1.664   5.5528
  1.660   5.5318
  1.656   5.4943
  1.652   5.4787
  1.648   5.5033
  1.644   5.5439
  1.640   5.4933
  1.636   5.4826
  1.632   5.5397
  1.628   5.5458
  1.624   5.4954
  1.620   5.4985
  1.616   5.5250
  1.612   5.5043
  1.608   5.5196
  1.604   5.4582
  1.600   5.4973
  1.596   5.4989
  1.592   5.5145
  1.588   5.5175
  1.584   5.4734
  1.580   5.4769
  1.576   5.5064
  1.572   5.5116
  1.568   5.4955
  1.564   5.4632
  1.560   5.4868
  1.556   5.5342
  1.552   5.5004
  1.548   5.4143
  1.544   5.4874
  1.540   5.5291
  1.536   5.4514
  1.532   5.4928
  1.528   5.4957
  1.524   5.5062
  1.520   5.4852
  1.516   5.4627
  1.512   5.4527
  1.508   5.4842
  1.504   5.4796
  1.500   5.5134
  1.496   5.4691
  1.492   5.4729
  1.488   5.5327
  1.484   5.4708
  1.480   5.4439
  1.476   5.4687
  1.472   5.4791
  1.468   5.4875
  1.464   5.5261
  1.460   5.4245
  1.456   5.4391
  1.452   5.4969
  1.448   5.4974
  1.444   5.4555
  1.440   5.4391
  1.436   5.4718
  1.432   5.4565
  1.428   5.4585
  1.424   5.4373
  1.420   5.4372
  1.416   5.5006
  1.412   5.4459
  1.408   5.4358
  1.404   5.4059
  1.400   5.4128
  1.396   5.4200
  1.392   5.4313
  1.388   5.4610
  1.384   5.4814
  1.380   5.4240
  1.376   5.3730
  1.372   5.3157
  1.368   5.4682
  1.364   5.5178
  1.360   5.4244
  1.356   5.3442
  1.352   5.2836
  1.348   5.2758
  1.344   5.4365
  1.340   5.4620
  1.336   5.4738
  1.332   5.4004
  1.328   5.3252
  1.324   5.3496
  1.320   5.3573
  1.316   5.3635
  1.312   5.3404
  1.308   5.3176
  1.304   5.3458
  1.300   5.3889
  1.296   5.4008
  1.292   5.3697
  1.288   5.4304
  1.284   5.3402
  1.280   5.3299
  1.276   5.4292
  1.272   5.3918
  1.268   5.3679
  1.264   5.3559
  1.260   5.3590
  1.256   5.3819
  1.252   5.3650
  1.248   5.4233
  1.244   5.3535
  1.240   5.3845
  1.236   5.3654
  1.232   5.3452
  1.228   5.4150
  1.224   5.4164
  1.220   5.3781
  1.216   5.3624
  1.212   5.3508
  1.208   5.4204
  1.204   5.3643
  1.200   5.3968
  1.196   5.3815
  1.192   5.3634
  1.188   5.3761
  1.184   5.3374
  1.180   5.3668
  1.176   5.4023
  1.172   5.4052
  1.168   5.3870
  1.164   5.4424
  1.160   5.4197
  1.156   5.4322
  1.152   5.4245
  1.148   5.4301
  1.144   5.3981
  1.140   5.4187
  1.136   5.4403
  1.132   5.4523
  1.128   5.3973
  1.124   5.4331
  1.120   5.4689
  1.116   5.4195
  1.112   5.3920
  1.108   5.4355
  1.104   5.4098
  1.100   5.4662
  1.096   5.4587
  1.092   5.4486
  1.088   5.3962
  1.084   5.3992
  1.080   5.4496
  1.076   5.4285
  1.072   5.4200
  1.068   5.4828
  1.064   5.4570
  1.060   5.4266
  1.056   5.4459
  1.052   5.4559
  1.048   5.4988
  1.044   5.4708
  1.040   5.4622
  1.036   5.5030
  1.032   5.5240
  1.028   5.5153
  1.024   5.5304
  1.020   5.5398
  1.016   5.5412
  1.012   5.5562
  1.008   5.5746
  1.004   5.5742
  1.000   5.5969
  0.996   5.5960
  0.992   5.6178
  0.988   5.6391
  0.984   5.6866
  0.980   5.6709
  0.976   5.6631
  0.972   5.7291
  0.968   5.7715
  0.964   5.7521
  0.960   5.7719
  0.956   5.7718
  0.952   5.8048
  0.948   5.8466
  0.944   5.8550
  0.940   5.8879
  0.936   5.9074
  0.932   5.8914
  0.928   5.9836
  0.924   6.0776
  0.920   6.1415
  0.916   6.1632
  0.912   6.2132
  0.908   6.2625
  0.904   6.2414
  0.900   6.2703
  0.896   6.3061
  0.892   6.3902
  0.888   6.3280
  0.884   6.2522
  0.880   6.2982
  0.876   6.3598
  0.872   6.2798
  0.868   6.2660
  0.864   6.2436
  0.860   6.3246
  0.856   6.4656
  0.852   6.6436
  0.848   6.2473
  0.844   6.3612
  0.840   6.4372
  0.836   6.5158
  0.832   6.5349
  0.828   6.5993
  0.824   6.6025
  0.820   6.6174
  0.816   6.6306
  0.812   6.6207
  0.808   6.6283
  0.804   6.6500
  0.800   6.6670
  0.796   6.6881
  0.792   6.6886
  0.788   6.6710
  0.784   6.6659
  0.780   6.6980
  0.776   6.7293
  0.772   6.7576
  0.768   6.7566
  0.764   6.7615
  0.760   6.7720
  0.756   6.7768
  0.752   6.7680
  0.748   6.7856
  0.744   6.8016
  0.740   6.8074
  0.736   6.8056
  0.732   6.8195
  0.728   6.8137
  0.724   6.8274
  0.720   6.8468
  0.716   6.8459
  0.712   6.8526
  0.708   6.8731
  0.704   6.8731
  0.700   6.8752
  0.696   6.8755
  0.692   6.8770
  0.688   6.8650
  0.684   6.8673
  0.680   6.8897
  0.676   6.9098
  0.672   6.9133
  0.668   6.9120
  0.664   6.9051
  0.660   6.9075
  0.656   6.9312
  0.652   6.9274
  0.648   6.9304
  0.644   6.9318
  0.640   6.9509
  0.636   6.9491
  0.632   6.9588
  0.628   6.9735
  0.624   6.9824
  0.620   6.9921
  0.616   6.9991
  0.612   7.0012
  0.608   7.0118
  0.604   7.0195
  0.600   7.0218
  0.596   7.0391
  0.592   7.0471
  0.588   7.0558
  0.584   7.0532
  0.580   7.0692
  0.576   7.0876
  0.572   7.1030
  0.568   7.1073
  0.564   7.1281
  0.560   7.1450
  0.556   7.1628
  0.552   7.1847
  0.548   7.1900
  0.544   7.2021
  0.540   7.2116
  0.536   7.2343
  0.532   7.2606
  0.528   7.2847
  0.524   7.3033
  0.520   7.3321
  0.516   7.3570
  0.512   7.3811
  0.508   7.4074
  0.504   7.4331
  0.500   7.4496
  0.496   7.4476
  0.492   7.4300
  0.488   7.4224
  0.484   7.4183
  0.480   7.4343
  0.476   7.4815
  0.472   7.5147
  0.468   7.5496
  0.464   7.5795
  0.460   7.6051
  0.456   7.6352
  0.452   7.6406
  0.448   7.6423
  0.444   7.6710
  0.440   7.7073
  0.436   7.7507
  0.432   7.7877
  0.428   7.8180
  0.424   7.8542
  0.420   7.8832
  0.416   7.8940
  0.412   7.9180
  0.408   7.9546
  0.404   7.9567
  0.400   7.9484
