Name: Quartzite
Type: Rock
Class: Metamorphic
Subclass: 
Particle Size: Whole Rock Chips
Sample No.: AP-958-111
Owner: United States Geological Survey, L. C. Rowan
Wavelength range: 0.405 - 14.05 um
Origin: Iberian Pyrite Belt, Spain

Description: Quartzite, light gray, silicified





Measurement: Directional Hemispherical Reflectance
First Column: X
Second Column: Y
X Units: Wavelength (micrometers)
Y Units: Reflectance (percent)
First X Value: 14.05105
Last X Value: 0.40500
Number of X Values: 2530
Additional Information: qua111a.txt

 14.051   3.1003
 14.013   3.1518
 13.975   3.1827
 13.938   3.1003
 13.900   3.2239
 13.863   3.2754
 13.826   3.5947
 13.790   3.6256
 13.753   3.6256
 13.717   3.5638
 13.680   3.6565
 13.644   3.6153
 13.609   3.7183
 13.573   3.8419
 13.538   4.0067
 13.502   4.0067
 13.467   4.0994
 13.432   3.9964
 13.398   4.0891
 13.363   4.1921
 13.329   4.3878
 13.295   4.5114
 13.261   4.6865
 13.227   4.7380
 13.193   4.8925
 13.160   4.9543
 13.126   5.0367
 13.093   5.2015
 13.060   5.5105
 13.027   5.7680
 12.995   6.1594
 12.962   6.5405
 12.930   7.1070
 12.898   7.6735
 12.866   8.4563
 12.834   9.2494
 12.802  10.0734
 12.771  10.4133
 12.739  10.2485
 12.708   9.3833
 12.677   8.1782
 12.646   7.0452
 12.616   6.5714
 12.585   6.6641
 12.554   7.3851
 12.524   8.0546
 12.494   8.5490
 12.464   8.7653
 12.434   8.5387
 12.404   7.5190
 12.375   5.8710
 12.345   3.7286
 12.316   2.0600
 12.287   1.1639
 12.258   0.9476
 12.229   0.9579
 12.200   1.1330
 12.171   1.2978
 12.143   1.5347
 12.115   1.6480
 12.086   1.8128
 12.058   1.8540
 12.030   2.0085
 12.002   2.0703
 11.975   2.1939
 11.947   2.3175
 11.920   2.4411
 11.892   2.4102
 11.865   2.5544
 11.838   2.5441
 11.811   2.5441
 11.784   2.5647
 11.757   2.7398
 11.731   2.7913
 11.704   2.8840
 11.678   2.9355
 11.652   3.0591
 11.626   3.0591
 11.600   3.1621
 11.574   3.2136
 11.548   3.2342
 11.522   3.1518
 11.497   3.2445
 11.471   3.3372
 11.446   3.5020
 11.421   3.5329
 11.396   3.5226
 11.371   3.4505
 11.346   3.5947
 11.321   3.6668
 11.297   3.7183
 11.272   3.6977
 11.248   3.8110
 11.223   3.7801
 11.199   3.7904
 11.175   3.8110
 11.151   3.8934
 11.127   3.9037
 11.103   4.0170
 11.079   4.0994
 11.056   4.2024
 11.032   4.1921
 11.009   4.1509
 10.985   4.1097
 10.962   4.1509
 10.939   4.1612
 10.916   4.3157
 10.893   4.3672
 10.870   4.4393
 10.848   4.4290
 10.825   4.5217
 10.802   4.6659
 10.780   4.7071
 10.758   4.6247
 10.735   4.7586
 10.713   4.8204
 10.691   4.8616
 10.669   4.7689
 10.647   4.8101
 10.625   4.8822
 10.604   5.0161
 10.582   4.9955
 10.560   5.0676
 10.539   5.1706
 10.518   5.2839
 10.496   5.2324
 10.475   5.2942
 10.454   5.3457
 10.433   5.4590
 10.412   5.5517
 10.391   5.6238
 10.370   5.6341
 10.350   5.7577
 10.329   5.7886
 10.309   5.8813
 10.288   5.9534
 10.268   6.1285
 10.247   6.2109
 10.227   6.3139
 10.207   6.3448
 10.187   6.4375
 10.167   6.4993
 10.147   6.5817
 10.127   6.7053
 10.108   6.9113
 10.088   6.9628
 10.068   7.0555
 10.049   7.1070
 10.029   7.3130
 10.010   7.4469
  9.991   7.6323
  9.972   7.7559
  9.952   7.8692
  9.933   7.8795
  9.914   8.1267
  9.895   8.3018
  9.877   8.5181
  9.858   8.7138
  9.839   8.8477
  9.821   9.0228
  9.802   9.3524
  9.783   9.5996
  9.765   9.8571
  9.747   9.9704
  9.728  10.2073
  9.710  10.4854
  9.692  10.7532
  9.674  10.9695
  9.656  11.3815
  9.638  11.7729
  9.620  12.2055
  9.602  12.6278
  9.585  13.0089
  9.567  13.3900
  9.549  13.9050
  9.532  14.4715
  9.514  15.1410
  9.497  15.8620
  9.479  16.7478
  9.462  17.7778
  9.445  18.9829
  9.428  20.2395
  9.411  21.7845
  9.394  23.5973
  9.377  25.7294
  9.360  27.7276
  9.343  29.4580
  9.326  30.9309
  9.309  32.2184
  9.293  33.1351
  9.276  33.7325
  9.259  34.0003
  9.243  34.1342
  9.226  34.1651
  9.210  34.2372
  9.194  34.3402
  9.178  34.4741
  9.161  34.4123
  9.145  34.3711
  9.129  34.3093
  9.113  34.2887
  9.097  34.2166
  9.081  34.1342
  9.065  34.0518
  9.049  34.0003
  9.034  33.7325
  9.018  33.4853
  9.002  33.2793
  8.987  33.1969
  8.971  32.9188
  8.956  32.5480
  8.940  32.1978
  8.925  31.9918
  8.909  31.6828
  8.894  31.4253
  8.879  31.1266
  8.864  30.7455
  8.849  30.3850
  8.834  30.1687
  8.819  29.8082
  8.804  29.3550
  8.789  28.9018
  8.774  28.6237
  8.759  28.3147
  8.744  28.0675
  8.730  27.8924
  8.715  27.5834
  8.700  27.0581
  8.686  26.5019
  8.671  25.5440
  8.657  24.1020
  8.642  22.0626
  8.628  20.1571
  8.614  19.5803
  8.599  20.8369
  8.585  22.8454
  8.571  24.6685
  8.557  26.0487
  8.543  27.0890
  8.529  27.7585
  8.515  28.3147
  8.501  28.6855
  8.487  28.8709
  8.473  28.8915
  8.459  29.0357
  8.445  29.2314
  8.431  29.4168
  8.418  29.5198
  8.404  29.6846
  8.391  29.7979
  8.377  29.9833
  8.363  30.1584
  8.350  30.3747
  8.337  30.6425
  8.323  30.9515
  8.310  31.2914
  8.297  31.7343
  8.283  32.2287
  8.270  32.7334
  8.257  33.1763
  8.244  33.6089
  8.231  34.0003
  8.218  34.3505
  8.205  34.3814
  8.192  34.1651
  8.179  33.7016
  8.166  32.9600
  8.153  31.7137
  8.140  29.9627
  8.128  27.9027
  8.115  25.7294
  8.102  23.4325
  8.090  21.3725
  8.077  19.5288
  8.064  17.8396
  8.052  16.2019
  8.039  14.7084
  8.027  13.4106
  8.015  12.3497
  8.002  11.4124
  7.990  10.4545
  7.978   9.4863
  7.965   8.6829
  7.953   7.8589
  7.941   7.0864
  7.929   6.4169
  7.917   5.7783
  7.905   5.1088
  7.893   4.6350
  7.881   4.2127
  7.869   3.8728
  7.857   3.5226
  7.845   3.2342
  7.833   2.9046
  7.821   2.6265
  7.809   2.4720
  7.798   2.3072
  7.786   2.0703
  7.774   1.9364
  7.763   1.8746
  7.751   1.7716
  7.739   1.6068
  7.728   1.5553
  7.716   1.3802
  7.705   1.2360
  7.694   1.1742
  7.682   1.1845
  7.671   1.1124
  7.659   0.9991
  7.648   0.8858
  7.637   0.8137
  7.626   0.7519
  7.614   0.7622
  7.603   0.7313
  7.592   0.6901
  7.581   0.6283
  7.570   0.6695
  7.559   0.5974
  7.548   0.5356
  7.537   0.4635
  7.526   0.4738
  7.515   0.5253
  7.504   0.5356
  7.493   0.4532
  7.483   0.4841
  7.472   0.5047
  7.461   0.4841
  7.450   0.4429
  7.440   0.4326
  7.429   0.3811
  7.418   0.4532
  7.408   0.4326
  7.397   0.4223
  7.387   0.3708
  7.376   0.3811
  7.366   0.3914
  7.355   0.4326
  7.345   0.4326
  7.334   0.4429
  7.324   0.3605
  7.314   0.3605
  7.303   0.3811
  7.293   0.3914
  7.283   0.4223
  7.273   0.4841
  7.263   0.4223
  7.252   0.3914
  7.242   0.4326
  7.232   0.5253
  7.222   0.4944
  7.212   0.4635
  7.202   0.4429
  7.192   0.4635
  7.182   0.4635
  7.172   0.4944
  7.162   0.5253
  7.152   0.5356
  7.143   0.5047
  7.133   0.5047
  7.123   0.5356
  7.113   0.6283
  7.103   0.6180
  7.094   0.6180
  7.084   0.5768
  7.074   0.6077
  7.065   0.5768
  7.055   0.5665
  7.046   0.5356
  7.036   0.5665
  7.026   0.5665
  7.017   0.6283
  7.007   0.5974
  6.998   0.5974
  6.989   0.6180
  6.979   0.6798
  6.970   0.6695
  6.960   0.7004
  6.951   0.6901
  6.942   0.6592
  6.932   0.5562
  6.923   0.5871
  6.914   0.6180
  6.905   0.6592
  6.896   0.6180
  6.886   0.6489
  6.877   0.6901
  6.868   0.7313
  6.859   0.6901
  6.850   0.6901
  6.841   0.7107
  6.832   0.7004
  6.823   0.6695
  6.814   0.6798
  6.805   0.6695
  6.796   0.7210
  6.787   0.7313
  6.778   0.7210
  6.770   0.6695
  6.761   0.7416
  6.752   0.7931
  6.743   0.7416
  6.734   0.6695
  6.726   0.7107
  6.717   0.7313
  6.708   0.7622
  6.700   0.7416
  6.691   0.7313
  6.682   0.7004
  6.674   0.7210
  6.665   0.7210
  6.657   0.7313
  6.648   0.7519
  6.640   0.7622
  6.631   0.7313
  6.623   0.7313
  6.614   0.7210
  6.606   0.7210
  6.597   0.7107
  6.589   0.7313
  6.581   0.7725
  6.572   0.8137
  6.564   0.7828
  6.556   0.7519
  6.547   0.7519
  6.539   0.7519
  6.531   0.7004
  6.523   0.7210
  6.514   0.7622
  6.506   0.7828
  6.498   0.7725
  6.490   0.8137
  6.482   0.8446
  6.474   0.8755
  6.466   0.8961
  6.458   0.8961
  6.450   0.8549
  6.442   0.8858
  6.434   0.9064
  6.426   0.9270
  6.418   0.9167
  6.410   0.9167
  6.402   0.9064
  6.394   0.8858
  6.386   0.8755
  6.378   0.8858
  6.370   0.9064
  6.363   0.8549
  6.355   0.7725
  6.347   0.8034
  6.339   0.8755
  6.332   0.9167
  6.324   0.8858
  6.316   0.8549
  6.308   0.8549
  6.301   0.8240
  6.293   0.7622
  6.286   0.8446
  6.278   0.9064
  6.270   0.8446
  6.263   0.8034
  6.255   0.8240
  6.248   0.8137
  6.240   0.8343
  6.233   0.8137
  6.225   0.8343
  6.218   0.8755
  6.210   0.8858
  6.203   0.8446
  6.195   0.8240
  6.188   0.7931
  6.181   0.8137
  6.173   0.8549
  6.166   0.8446
  6.159   0.8240
  6.151   0.8549
  6.144   0.8240
  6.137   0.8549
  6.130   0.8755
  6.122   0.9064
  6.115   0.9476
  6.108   0.9991
  6.101   1.0197
  6.094   1.0094
  6.086   0.9682
  6.079   0.9579
  6.072   0.9579
  6.065   0.9785
  6.058   1.0094
  6.051   0.9991
  6.044   0.9991
  6.037   1.0506
  6.030   1.0094
  6.023   0.9579
  6.016   0.9991
  6.009   1.0712
  6.002   1.0403
  5.995   1.0094
  5.988   0.9991
  5.981   1.0197
  5.974   1.0094
  5.967   0.9991
  5.960   0.9991
  5.954   0.9888
  5.947   1.0094
  5.940   0.9785
  5.933   0.9476
  5.926   0.9888
  5.920   0.9991
  5.913   1.0197
  5.906   1.0609
  5.899   1.1021
  5.893   1.0609
  5.886   1.1021
  5.879   1.1227
  5.873   1.1124
  5.866   1.1742
  5.859   1.1536
  5.853   1.1124
  5.846   1.1536
  5.840   1.1948
  5.833   1.2257
  5.827   1.1845
  5.820   1.2051
  5.813   1.2360
  5.807   1.2463
  5.800   1.2566
  5.794   1.3081
  5.788   1.3287
  5.781   1.3081
  5.775   1.3081
  5.768   1.3596
  5.762   1.3802
  5.755   1.3699
  5.749   1.3905
  5.743   1.4111
  5.736   1.4317
  5.730   1.4729
  5.724   1.4523
  5.717   1.4317
  5.711   1.4214
  5.705   1.4729
  5.698   1.4626
  5.692   1.4214
  5.686   1.3802
  5.680   1.3699
  5.674   1.3493
  5.667   1.3802
  5.661   1.3699
  5.655   1.3493
  5.649   1.3287
  5.643   1.2360
  5.637   1.1845
  5.630   1.2154
  5.624   1.2051
  5.618   1.1948
  5.612   1.2051
  5.606   1.2154
  5.600   1.2051
  5.594   1.2463
  5.588   1.2360
  5.582   1.2051
  5.576   1.1948
  5.570   1.2463
  5.564   1.2154
  5.558   1.1845
  5.552   1.2154
  5.546   1.1948
  5.540   1.2051
  5.534   1.2360
  5.528   1.2669
  5.523   1.3287
  5.517   1.2978
  5.511   1.3287
  5.505   1.3493
  5.499   1.2978
  5.493   1.2566
  5.487   1.2978
  5.482   1.3390
  5.476   1.4111
  5.470   1.4008
  5.464   1.4008
  5.459   1.4523
  5.453   1.4214
  5.447   1.3905
  5.441   1.4111
  5.436   1.4626
  5.430   1.4317
  5.424   1.3596
  5.419   1.3184
  5.413   1.2875
  5.407   1.3081
  5.402   1.3390
  5.396   1.2875
  5.390   1.2360
  5.385   1.2154
  5.379   1.2257
  5.374   1.2669
  5.368   1.2669
  5.363   1.2154
  5.357   1.1330
  5.352   1.1124
  5.346   1.1124
  5.341   1.1124
  5.335   1.1639
  5.330   1.2051
  5.324   1.1948
  5.319   1.2051
  5.313   1.1948
  5.308   1.1124
  5.302   1.1433
  5.297   1.2051
  5.291   1.2051
  5.286   1.2257
  5.281   1.2463
  5.275   1.2051
  5.270   1.1742
  5.265   1.1948
  5.259   1.2051
  5.254   1.2154
  5.249   1.2257
  5.243   1.2772
  5.238   1.2978
  5.233   1.3081
  5.227   1.3287
  5.222   1.3802
  5.217   1.4008
  5.212   1.3905
  5.206   1.3699
  5.201   1.4523
  5.196   1.4832
  5.191   1.5038
  5.186   1.5038
  5.180   1.4935
  5.175   1.4935
  5.170   1.4935
  5.165   1.4832
  5.160   1.4832
  5.155   1.4935
  5.150   1.5141
  5.145   1.5038
  5.139   1.4832
  5.134   1.4935
  5.129   1.5141
  5.124   1.5038
  5.119   1.5141
  5.114   1.5038
  5.109   1.4935
  5.104   1.5038
  5.099   1.5038
  5.094   1.4626
  5.089   1.4317
  5.084   1.3802
  5.079   1.3699
  5.074   1.3390
  5.069   1.3905
  5.064   1.4317
  5.059   1.4008
  5.054   1.3699
  5.049   1.3699
  5.044   1.3802
  5.040   1.4317
  5.035   1.4729
  5.030   1.4523
  5.025   1.4214
  5.020   1.4214
  5.015   1.4111
  5.010   1.3905
  5.005   1.3596
  5.001   1.3699
  4.996   1.4008
  4.991   1.3905
  4.986   1.4214
  4.981   1.4832
  4.977   1.4935
  4.972   1.4729
  4.967   1.4935
  4.962   1.5244
  4.958   1.5553
  4.953   1.5656
  4.948   1.5965
  4.943   1.6686
  4.939   1.6480
  4.934   1.5965
  4.929   1.6892
  4.925   1.7716
  4.920   1.7716
  4.915   1.7613
  4.911   1.7613
  4.906   1.8437
  4.901   2.0085
  4.897   2.1424
  4.892   2.2145
  4.888   2.2660
  4.883   2.3587
  4.878   2.5132
  4.874   2.7398
  4.869   2.9149
  4.865   3.0385
  4.860   3.1518
  4.856   3.2136
  4.851   3.3372
  4.846   3.4711
  4.842   3.5638
  4.837   3.6668
  4.833   3.7080
  4.828   3.8110
  4.824   3.9964
  4.819   4.0685
  4.815   4.1509
  4.810   4.2333
  4.806   4.2745
  4.802   4.4187
  4.797   4.5526
  4.793   4.6453
  4.788   4.6762
  4.784   4.7071
  4.779   4.7895
  4.775   4.8719
  4.771   4.9646
  4.766   5.0985
  4.762   5.1500
  4.758   5.1500
  4.753   5.1912
  4.749   5.2633
  4.744   5.3766
  4.740   5.4281
  4.736   5.4281
  4.731   5.4178
  4.727   5.4384
  4.723   5.4693
  4.719   5.5002
  4.714   5.5105
  4.710   5.4281
  4.706   5.3251
  4.701   5.1912
  4.697   5.0573
  4.693   4.9131
  4.689   4.7792
  4.684   4.6762
  4.680   4.6041
  4.676   4.6350
  4.672   4.7380
  4.668   4.8719
  4.663   5.0470
  4.659   5.2427
  4.655   5.4075
  4.651   5.6032
  4.647   5.7989
  4.643   5.9637
  4.638   6.2006
  4.634   6.4684
  4.630   6.6023
  4.626   6.7465
  4.622   6.8701
  4.618   7.0246
  4.614   7.1482
  4.610   7.2409
  4.605   7.3336
  4.601   7.3645
  4.597   7.4469
  4.593   7.5808
  4.589   7.6735
  4.585   7.6941
  4.581   7.7353
  4.577   7.7456
  4.573   7.7147
  4.569   7.7456
  4.565   7.7662
  4.561   7.6735
  4.557   7.5602
  4.553   7.4263
  4.549   7.2615
  4.545   7.1894
  4.541   7.0143
  4.537   6.7465
  4.533   6.5611
  4.529   6.3654
  4.525   6.1388
  4.521   5.8916
  4.517   5.6753
  4.513   5.3972
  4.509   5.1809
  4.505   5.0367
  4.502   4.7895
  4.498   4.5423
  4.494   4.3672
  4.490   4.2951
  4.486   4.2642
  4.482   4.2642
  4.478   4.3157
  4.474   4.2848
  4.470   4.1612
  4.467   4.0582
  4.463   4.0994
  4.459   4.1818
  4.455   4.2539
  4.451   4.2951
  4.447   4.3878
  4.444   4.5732
  4.440   4.6659
  4.436   4.6968
  4.432   4.7277
  4.428   4.7483
  4.425   4.7998
  4.421   4.9028
  4.417   5.0367
  4.413   5.1603
  4.410   5.2633
  4.406   5.3251
  4.402   5.4384
  4.398   5.5517
  4.395   5.6753
  4.391   5.7680
  4.387   5.8504
  4.384   6.0358
  4.380   6.3036
  4.376   6.4787
  4.372   6.6538
  4.369   6.9628
  4.365   7.2100
  4.361   7.1894
  4.358   7.2821
  4.354   7.4572
  4.350   7.6426
  4.347   7.8177
  4.343   7.9619
  4.340   8.1061
  4.336   8.1370
  4.332   8.1473
  4.329   8.1473
  4.325   8.1267
  4.321   8.1782
  4.318   8.2091
  4.314   8.2091
  4.311   8.1988
  4.307   8.0752
  4.304   7.9310
  4.300   7.8692
  4.296   7.8486
  4.293   7.8486
  4.289   7.7456
  4.286   7.6838
  4.282   7.6735
  4.279   7.6117
  4.275   7.4984
  4.272   7.4366
  4.268   7.3233
  4.265   7.3439
  4.261   7.5911
  4.258   7.8486
  4.254   8.0134
  4.251   8.1782
  4.247   8.2812
  4.244   8.2812
  4.240   8.2400
  4.237   8.2709
  4.233   8.3018
  4.230   8.4048
  4.226   8.5181
  4.223   8.5902
  4.219   8.6623
  4.216   8.8271
  4.213   8.8786
  4.209   8.7550
  4.206   8.8168
  4.202   8.9095
  4.199   8.9095
  4.196   8.9198
  4.192   8.9198
  4.189   9.0228
  4.185   9.1258
  4.182   9.1670
  4.179   9.2803
  4.175   9.4039
  4.172   9.3833
  4.169   9.4348
  4.165   9.6099
  4.162   9.7335
  4.159   9.7953
  4.155   9.8983
  4.152   9.8983
  4.149   9.9498
  4.145  10.0322
  4.142  10.2176
  4.139  10.3412
  4.135  10.3721
  4.132  10.3618
  4.129  10.3515
  4.126  10.4133
  4.122  10.5163
  4.119  10.6811
  4.116  10.8974
  4.112  11.0725
  4.109  11.2270
  4.106  11.2270
  4.103  11.2785
  4.099  11.3300
  4.096  11.4639
  4.093  11.6081
  4.090  11.7317
  4.086  11.8347
  4.083  11.9480
  4.080  12.0201
  4.077  12.0613
  4.074  12.1540
  4.070  12.3085
  4.067  12.4012
  4.064  12.4012
  4.061  12.3291
  4.058  12.3291
  4.055  12.3394
  4.051  12.3909
  4.048  12.4012
  4.045  12.3085
  4.042  12.2364
  4.039  12.2158
  4.036  12.2570
  4.032  12.2673
  4.029  12.2055
  4.026  12.2364
  4.023  12.2673
  4.020  12.1746
  4.017  12.0613
  4.014  12.0510
  4.011  12.0716
  4.008  12.1025
  4.004  12.0716
  4.001  12.1128
  3.998  12.2055
  3.995  12.2673
  3.992  12.2261
  3.989  12.1746
  3.986  12.2467
  3.983  12.3291
  3.980  12.2982
  3.977  12.3909
  3.974  12.5351
  3.971  12.6690
  3.968  12.7823
  3.965  12.8029
  3.962  12.8853
  3.959  12.9677
  3.956  12.9986
  3.953  13.1016
  3.950  13.1840
  3.947  13.2664
  3.944  13.3076
  3.941  13.3797
  3.938  13.4003
  3.935  13.3797
  3.932  13.4312
  3.929  13.5651
  3.926  13.6887
  3.923  13.8020
  3.920  13.7505
  3.917  13.6887
  3.914  13.6887
  3.911  13.7402
  3.908  13.7196
  3.905  13.7711
  3.902  13.8020
  3.899  13.7093
  3.896  13.6269
  3.893  13.5651
  3.890  13.4930
  3.887  13.4621
  3.884  13.3797
  3.882  13.3076
  3.879  13.2355
  3.876  13.1840
  3.873  13.1634
  3.870  13.1634
  3.867  13.1016
  3.864  13.1016
  3.861  12.9986
  3.858  12.9059
  3.856  12.9677
  3.853  13.0089
  3.850  12.9677
  3.847  12.9574
  3.844  12.9574
  3.841  12.9780
  3.838  13.0398
  3.836  13.1325
  3.833  13.1119
  3.830  13.1325
  3.827  13.1943
  3.824  13.2767
  3.822  13.2973
  3.819  13.3385
  3.816  13.4518
  3.813  13.4312
  3.810  13.2767
  3.807  13.3797
  3.805  13.4415
  3.802  13.3797
  3.799  13.4106
  3.796  13.4312
  3.794  13.3900
  3.791  13.4106
  3.788  13.4003
  3.785  13.2870
  3.782  13.2355
  3.780  13.2664
  3.777  13.2355
  3.774  13.1428
  3.771  13.0604
  3.769  13.0810
  3.766  13.0192
  3.763  12.9677
  3.761  12.8853
  3.758  12.7308
  3.755  12.6690
  3.752  12.7308
  3.750  12.7617
  3.747  12.6587
  3.744  12.5454
  3.742  12.4939
  3.739  12.4321
  3.736  12.4939
  3.733  12.6278
  3.731  12.6278
  3.728  12.5454
  3.725  12.6587
  3.723  12.7926
  3.720  12.7514
  3.717  12.7205
  3.715  12.7823
  3.712  12.8544
  3.709  12.8750
  3.707  12.9471
  3.704  13.0089
  3.702  12.9059
  3.699  13.0810
  3.696  13.3076
  3.694  13.3694
  3.691  13.4312
  3.688  13.4930
  3.686  13.5445
  3.683  13.6372
  3.680  13.7196
  3.678  13.7402
  3.675  13.6681
  3.673  13.7196
  3.670  13.7917
  3.667  13.7093
  3.665  13.7196
  3.662  13.9050
  3.660  13.9256
  3.657  13.9977
  3.655  13.9977
  3.652  13.9565
  3.649  13.8638
  3.647  13.8329
  3.644  13.8535
  3.642  13.8741
  3.639  13.9050
  3.637  13.8947
  3.634  13.8432
  3.632  13.8638
  3.629  13.7093
  3.626  13.6578
  3.624  13.6578
  3.621  13.5548
  3.619  13.4930
  3.616  13.5136
  3.614  13.4415
  3.611  13.4827
  3.609  13.3694
  3.606  13.2870
  3.604  13.2664
  3.601  13.2561
  3.599  13.2046
  3.596  13.2046
  3.594  13.1531
  3.591  13.0398
  3.589  12.9677
  3.586  12.9883
  3.584  12.9265
  3.581  12.8338
  3.579  12.7514
  3.576  12.7205
  3.574  12.7205
  3.571  12.7308
  3.569  12.6484
  3.567  12.6278
  3.564  12.5969
  3.562  12.5042
  3.559  12.3909
  3.557  12.4321
  3.554  12.4115
  3.552  12.3291
  3.549  12.2364
  3.547  12.2673
  3.545  12.3188
  3.542  12.3703
  3.540  12.3085
  3.537  12.2467
  3.535  12.2261
  3.533  12.2055
  3.530  12.1437
  3.528  12.1540
  3.525  12.1437
  3.523  12.1540
  3.521  12.0613
  3.518  11.9583
  3.516  11.8965
  3.513  11.8862
  3.511  11.8450
  3.509  11.8450
  3.506  11.7832
  3.504  11.7832
  3.502  11.7317
  3.499  11.7317
  3.497  11.7111
  3.494  11.7008
  3.492  11.7111
  3.490  11.7214
  3.487  11.5978
  3.485  11.5257
  3.483  11.5154
  3.480  11.5978
  3.478  11.6081
  3.476  11.5669
  3.473  11.5875
  3.471  11.5463
  3.469  11.5463
  3.466  11.5669
  3.464  11.4948
  3.462  11.4433
  3.460  11.3506
  3.457  11.3506
  3.455  11.3506
  3.453  11.2888
  3.450  11.2167
  3.448  11.1652
  3.446  11.0622
  3.443  10.9695
  3.441  10.8871
  3.439  10.9283
  3.437  10.8974
  3.434  10.7429
  3.432  10.5575
  3.430  10.4751
  3.428  10.4957
  3.425  10.5884
  3.423  10.5060
  3.421  10.4236
  3.418  10.2588
  3.416  10.1558
  3.414  10.0837
  3.412  10.1043
  3.409  10.0528
  3.407   9.8880
  3.405   9.7953
  3.403   9.9292
  3.401   9.9910
  3.398   9.8777
  3.396   9.7232
  3.394   9.7026
  3.392   9.6717
  3.389   9.6511
  3.387   9.5996
  3.385   9.5584
  3.383   9.5584
  3.381   9.4451
  3.378   9.3833
  3.376   9.4039
  3.374   9.3833
  3.372   9.3421
  3.370   9.2597
  3.367   9.1979
  3.365   9.1361
  3.363   9.0949
  3.361   9.0434
  3.359   9.0125
  3.357   9.0022
  3.354   8.9610
  3.352   8.8065
  3.350   8.7653
  3.348   8.7241
  3.346   8.7550
  3.344   8.7550
  3.341   8.8683
  3.339   8.8168
  3.337   8.6211
  3.335   8.5696
  3.333   8.6314
  3.331   8.5078
  3.329   8.4048
  3.326   8.3842
  3.324   8.3018
  3.322   8.2091
  3.320   8.2503
  3.318   8.2503
  3.316   8.1679
  3.314   8.1576
  3.312   8.1782
  3.309   8.1473
  3.307   8.1473
  3.305   8.1267
  3.303   8.0237
  3.301   7.9516
  3.299   7.9619
  3.297   7.9619
  3.295   7.9825
  3.293   7.9310
  3.291   7.8898
  3.288   7.7765
  3.286   7.6632
  3.284   7.7456
  3.282   7.7868
  3.280   7.7044
  3.278   7.7559
  3.276   7.6941
  3.274   7.6117
  3.272   7.6529
  3.270   7.7559
  3.268   7.7456
  3.266   7.6529
  3.264   7.5602
  3.262   7.6426
  3.259   7.6529
  3.257   7.5499
  3.255   7.4057
  3.253   7.5087
  3.251   7.5293
  3.249   7.4366
  3.247   7.2924
  3.245   7.2821
  3.243   7.3233
  3.241   7.3851
  3.239   7.4160
  3.237   7.4160
  3.235   7.3233
  3.233   7.3542
  3.231   7.2203
  3.229   7.1379
  3.227   7.1173
  3.225   7.1379
  3.223   7.2409
  3.221   7.2615
  3.219   7.1276
  3.217   7.0555
  3.215   6.9422
  3.213   6.9731
  3.211   6.9422
  3.209   6.9010
  3.207   6.9319
  3.205   6.8804
  3.203   6.7774
  3.201   6.6744
  3.199   6.6229
  3.197   6.7053
  3.195   6.7259
  3.193   6.7053
  3.191   6.6538
  3.189   6.5920
  3.187   6.5920
  3.185   6.6023
  3.183   6.5302
  3.182   6.5405
  3.180   6.3654
  3.178   6.3242
  3.176   6.2624
  3.174   6.2521
  3.172   6.3551
  3.170   6.4581
  3.168   6.2830
  3.166   6.1491
  3.164   6.0667
  3.162   6.0976
  3.160   6.1182
  3.158   6.0358
  3.156   5.9122
  3.154   5.9122
  3.152   6.0667
  3.151   6.1903
  3.149   5.9534
  3.147   5.7783
  3.145   5.7989
  3.143   5.8813
  3.141   5.9122
  3.139   5.8916
  3.137   5.7371
  3.135   5.6238
  3.133   5.6238
  3.132   5.7268
  3.130   5.7165
  3.128   5.7165
  3.126   5.6135
  3.124   5.5414
  3.122   5.5208
  3.120   5.6444
  3.118   5.5620
  3.117   5.3766
  3.115   5.4075
  3.113   5.4796
  3.111   5.4796
  3.109   5.4693
  3.107   5.3766
  3.105   5.3354
  3.103   5.3045
  3.102   5.3663
  3.100   5.3457
  3.098   5.1809
  3.096   5.1397
  3.094   5.0985
  3.092   5.0058
  3.091   5.1191
  3.089   5.1088
  3.087   4.9955
  3.085   4.9852
  3.083   5.0882
  3.081   5.2015
  3.079   5.2530
  3.078   5.0779
  3.076   4.9955
  3.074   4.9852
  3.072   4.9543
  3.070   4.9028
  3.069   4.9028
  3.067   5.0058
  3.065   4.9646
  3.063   4.8307
  3.061   4.7998
  3.060   4.7277
  3.058   4.7689
  3.056   4.8925
  3.054   4.9234
  3.052   4.8410
  3.051   4.8925
  3.049   4.8513
  3.047   4.9131
  3.045   5.0058
  3.043   4.8616
  3.042   4.6659
  3.040   4.6041
  3.038   4.5938
  3.036   4.7586
  3.034   4.7174
  3.033   4.6247
  3.031   4.5114
  3.029   4.4496
  3.027   4.5217
  3.026   4.6659
  3.024   4.6144
  3.022   4.7380
  3.020   4.7071
  3.019   4.6247
  3.017   4.4496
  3.015   4.4290
  3.013   4.5526
  3.012   4.6350
  3.010   4.5114
  3.008   4.4908
  3.006   4.5732
  3.005   4.5114
  3.003   4.4599
  3.001   4.6453
  2.999   4.7586
  2.998   4.6144
  2.996   4.4908
  2.994   4.5320
  2.992   4.5114
  2.991   4.4908
  2.989   4.5114
  2.987   4.6350
  2.986   4.5320
  2.984   4.4393
  2.982   4.5835
  2.980   4.6659
  2.979   4.5732
  2.977   4.6453
  2.975   4.6865
  2.974   4.5423
  2.972   4.3878
  2.970   4.4805
  2.968   4.5217
  2.967   4.5320
  2.965   4.5217
  2.963   4.6041
  2.962   4.6350
  2.960   4.6453
  2.958   4.6041
  2.957   4.6453
  2.955   4.5835
  2.953   4.5320
  2.952   4.5217
  2.950   4.5938
  2.948   4.6350
  2.947   4.7277
  2.945   4.5732
  2.943   4.5217
  2.942   4.6247
  2.940   4.7380
  2.938   4.7483
  2.937   4.8513
  2.935   4.7380
  2.933   4.6144
  2.932   4.6453
  2.930   4.7380
  2.928   4.7792
  2.927   4.7277
  2.925   4.6144
  2.923   4.8204
  2.922   4.8307
  2.920   4.5011
  2.918   4.4805
  2.917   4.8925
  2.915   4.9749
  2.913   4.7998
  2.912   4.7277
  2.910   4.8101
  2.909   4.7380
  2.907   4.8410
  2.905   4.8204
  2.904   4.7998
  2.902   4.9028
  2.900   5.0573
  2.899   5.0161
  2.897   4.7895
  2.896   4.8101
  2.894   5.1088
  2.892   5.1294
  2.891   5.1191
  2.889   4.8307
  2.887   4.7895
  2.886   4.9337
  2.884   5.0573
  2.883   5.0161
  2.881   4.8307
  2.879   4.7174
  2.878   4.9234
  2.876   4.9749
  2.875   4.9440
  2.873   5.1706
  2.871   5.3045
  2.870   5.2633
  2.868   5.1706
  2.867   5.0676
  2.865   5.0882
  2.864   5.1397
  2.862   5.2633
  2.860   5.1500
  2.859   5.1706
  2.857   5.1706
  2.856   5.3766
  2.854   5.5826
  2.853   5.5929
  2.851   5.6753
  2.849   5.7680
  2.848   5.6135
  2.846   5.3663
  2.845   5.2118
  2.843   5.4693
  2.842   5.6650
  2.840   5.7165
  2.838   5.5929
  2.837   5.6959
  2.835   5.8401
  2.834   5.7680
  2.832   5.6444
  2.831   5.7680
  2.829   5.6753
  2.828   5.7886
  2.826   5.9225
  2.825   5.8401
  2.823   5.8298
  2.821   5.9740
  2.820   5.9637
  2.818   6.1182
  2.817   6.1800
  2.815   6.1182
  2.814   6.0873
  2.812   6.0667
  2.811   6.1079
  2.809   6.1491
  2.808   6.1800
  2.806   6.2624
  2.805   6.1903
  2.803   6.2933
  2.802   6.3242
  2.800   6.2727
  2.799   6.2418
  2.797   6.3551
  2.796   6.2933
  2.794   6.0873
  2.793   6.1594
  2.791   6.3757
  2.790   6.5920
  2.788   6.4478
  2.787   6.1697
  2.785   6.3448
  2.784   6.2315
  2.782   5.9328
  2.781   5.6753
  2.779   5.6547
  2.778   5.6032
  2.776   5.5517
  2.775   5.6341
  2.773   5.5929
  2.772   5.4590
  2.770   5.3148
  2.769   5.0367
  2.767   4.9337
  2.766   4.9028
  2.764   4.8719
  2.763   4.5423
  2.761   4.3672
  2.760   4.3775
  2.758   4.3878
  2.757   4.2127
  2.756   4.3054
  2.754   4.2642
  2.753   4.0994
  2.751   4.2745
  2.750   4.8204
  2.748   4.8204
  2.747   4.7277
  2.745   4.7174
  2.744   4.6659
  2.742   4.6556
  2.741   4.7071
  2.740   4.8101
  2.738   5.0264
  2.737   5.0676
  2.735   5.1397
  2.734   5.1500
  2.732   5.0985
  2.731   5.2324
  2.729   5.5826
  2.728   5.5311
  2.727   5.8813
  2.725   6.2315
  2.724   6.6435
  2.722   6.7877
  2.721   6.9216
  2.719   7.2100
  2.718   7.8383
  2.717   8.4563
  2.715   8.9404
  2.714   9.1773
  2.712   9.5790
  2.711  10.2588
  2.709  11.1755
  2.708  11.7008
  2.707  11.9789
  2.705  12.2570
  2.704  12.8544
  2.702  13.4106
  2.701  14.1522
  2.700  14.8938
  2.698  15.5839
  2.697  16.0989
  2.695  16.7684
  2.694  17.3246
  2.693  17.8499
  2.691  18.0662
  2.690  18.3031
  2.688  18.5709
  2.687  18.7151
  2.686  19.0756
  2.684  19.5700
  2.683  19.5494
  2.681  19.6009
  2.680  20.0026
  2.679  20.3013
  2.677  20.3734
  2.676  20.5073
  2.675  20.6103
  2.673  20.8575
  2.672  21.0326
  2.670  21.2283
  2.669  21.3313
  2.668  21.5682
  2.666  22.0626
  2.665  22.1965
  2.664  22.2480
  2.662  22.2686
  2.661  22.1450
  2.659  22.2480
  2.658  22.2686
  2.657  22.4952
  2.655  22.8351
  2.654  22.8351
  2.653  22.8454
  2.651  23.0720
  2.650  22.8557
  2.649  22.7218
  2.647  22.7321
  2.646  22.8763
  2.645  22.9793
  2.643  23.2162
  2.642  23.3089
  2.640  23.2780
  2.639  23.2368
  2.638  23.3295
  2.636  23.6282
  2.635  23.7827
  2.634  23.4222
  2.632  23.2780
  2.631  23.2986
  2.630  23.4840
  2.628  23.3604
  2.627  23.3913
  2.626  23.2986
  2.624  23.2677
  2.623  23.3810
  2.622  23.5870
  2.620  23.5561
  2.619  23.5458
  2.618  23.4119
  2.617  23.7724
  2.615  23.8445
  2.614  23.7209
  2.613  23.7106
  2.611  23.7930
  2.610  23.7724
  2.609  23.9372
  2.607  23.9990
  2.606  24.0196
  2.605  23.9063
  2.603  23.8960
  2.602  24.0608
  2.601  24.2153
  2.599  24.2771
  2.598  24.3595
  2.597  24.0505
  2.596  24.1020
  2.594  24.3286
  2.593  24.7612
  2.592  24.7715
  2.590  24.7921
  2.589  24.8230
  2.588  24.9054
  2.586  24.6685
  2.585  24.5964
  2.584  24.7303
  2.583  24.8127
  2.581  24.5861
  2.580  24.7612
  2.579  24.9775
  2.577  25.1217
  2.576  24.7921
  2.575  24.6994
  2.574  25.0805
  2.572  25.3895
  2.571  24.9775
  2.570  24.6582
  2.569  24.8848
  2.567  24.9878
  2.566  24.7612
  2.565  24.7818
  2.563  24.7715
  2.562  24.7715
  2.561  24.8024
  2.560  24.8951
  2.558  25.0187
  2.557  25.0496
  2.556  25.2144
  2.555  25.4513
  2.553  25.3895
  2.552  25.2144
  2.551  25.1217
  2.550  25.1732
  2.548  24.9878
  2.547  25.1732
  2.546  25.4616
  2.545  25.4101
  2.543  25.3071
  2.542  25.5337
  2.541  25.3792
  2.540  25.1320
  2.538  25.3174
  2.537  25.4616
  2.536  25.3483
  2.535  25.6470
  2.533  25.8118
  2.532  25.5955
  2.531  25.4513
  2.530  25.4925
  2.528  25.3380
  2.527  25.5028
  2.526  25.5955
  2.525  25.5955
  2.524  25.5749
  2.522  25.5955
  2.521  25.3689
  2.520  25.4410
  2.519  25.4101
  2.517  25.3998
  2.516  25.3071
  2.515  25.5028
  2.514  25.3998
  2.513  25.4307
  2.511  25.2350
  2.510  25.1423
  2.509  25.5028
  2.508  25.8427
  2.506  25.5749
  2.505  25.2041
  2.504  25.0805
  2.503  25.4307
  2.502  25.2762
  2.500  25.1423
  2.497  25.1423
  2.493  25.0423
  2.489  24.8423
  2.485  24.8423
  2.481  24.6423
  2.477  24.4423
  2.473  24.3423
  2.469  24.4423
  2.465  24.4423
  2.461  24.3423
  2.457  24.1423
  2.453  24.3423
  2.449  24.3423
  2.445  24.4423
  2.441  24.5423
  2.437  24.6423
  2.433  24.5423
  2.429  24.5423
  2.425  24.9423
  2.421  25.0423
  2.417  25.0423
  2.413  25.2423
  2.409  25.5423
  2.405  25.5423
  2.401  25.8423
  2.397  26.0423
  2.393  26.1423
  2.389  26.2423
  2.385  26.3423
  2.381  26.5423
  2.377  26.5423
  2.373  26.2423
  2.369  26.2423
  2.365  26.1423
  2.361  26.1423
  2.357  26.2423
  2.353  26.3423
  2.349  25.7423
  2.345  25.7423
  2.341  25.7423
  2.337  25.7423
  2.333  25.7423
  2.329  26.1423
  2.325  26.2423
  2.321  26.5423
  2.317  26.7423
  2.313  26.8423
  2.309  27.1423
  2.305  27.1423
  2.301  27.8423
  2.297  27.4423
  2.293  27.2423
  2.289  27.6423
  2.285  28.0423
  2.281  28.8423
  2.277  29.3423
  2.273  29.3423
  2.269  29.5423
  2.265  29.4423
  2.261  29.3423
  2.257  29.1423
  2.253  29.3423
  2.249  28.9423
  2.245  29.0423
  2.241  29.1423
  2.237  28.9423
  2.233  28.7423
  2.229  28.4423
  2.225  28.2423
  2.221  28.0423
  2.217  27.3423
  2.213  27.2423
  2.209  26.8423
  2.205  26.6423
  2.201  26.2423
  2.197  25.8423
  2.193  25.6423
  2.189  25.5423
  2.185  25.5423
  2.181  25.8423
  2.177  26.1423
  2.173  26.6423
  2.169  27.1423
  2.165  27.6423
  2.161  28.0423
  2.157  28.4423
  2.153  29.0423
  2.149  29.4423
  2.145  29.6423
  2.141  29.6423
  2.137  30.1423
  2.133  30.0423
  2.129  29.8423
  2.125  29.5423
  2.121  29.6423
  2.117  30.0423
  2.113  30.2423
  2.109  30.2423
  2.105  30.1423
  2.101  30.2423
  2.097  30.4423
  2.093  30.6423
  2.089  30.6423
  2.085  30.6423
  2.081  30.6423
  2.077  30.6423
  2.073  30.4423
  2.069  30.2423
  2.065  30.2423
  2.061  30.2423
  2.057  30.2423
  2.053  30.4423
  2.049  30.5423
  2.045  30.2423
  2.041  30.2423
  2.037  30.1423
  2.033  30.4423
  2.029  30.4423
  2.025  30.1423
  2.021  29.9423
  2.017  29.9423
  2.013  29.8423
  2.009  29.9423
  2.005  29.9423
  2.001  30.0423
  1.997  29.8423
  1.993  29.6423
  1.989  29.3423
  1.985  29.3423
  1.981  29.1423
  1.977  29.0423
  1.973  29.0423
  1.969  29.1423
  1.965  29.0423
  1.961  29.0423
  1.957  28.8423
  1.953  28.7423
  1.949  28.5423
  1.945  28.3423
  1.941  28.3423
  1.937  28.3423
  1.933  28.5423
  1.929  28.7423
  1.925  28.4423
  1.921  28.3423
  1.917  28.2423
  1.913  28.3423
  1.909  28.3423
  1.905  28.7423
  1.901  28.9423
  1.897  29.0423
  1.893  29.6423
  1.889  30.1423
  1.885  30.4423
  1.881  31.0423
  1.877  31.5423
  1.873  31.5423
  1.869  31.2423
  1.865  31.0423
  1.861  31.1423
  1.857  31.3423
  1.853  31.7423
  1.849  32.0423
  1.845  32.2423
  1.841  32.3423
  1.837  32.3423
  1.833  32.0423
  1.829  31.7423
  1.825  31.8423
  1.821  32.0423
  1.817  32.1423
  1.813  31.8423
  1.809  31.8423
  1.805  31.8423
  1.801  32.0423
  1.797  32.0423
  1.793  32.0423
  1.789  32.0423
  1.785  32.1423
  1.781  32.1423
  1.777  32.2423
  1.773  32.1423
  1.769  32.3423
  1.765  32.4423
  1.761  32.6423
  1.757  32.4423
  1.753  32.2423
  1.749  32.0423
  1.745  32.0423
  1.741  32.1423
  1.737  32.2423
  1.733  32.3423
  1.729  32.3423
  1.725  32.2423
  1.721  32.0423
  1.717  32.1423
  1.713  31.8423
  1.709  31.8423
  1.705  32.0423
  1.701  32.0423
  1.697  32.0423
  1.693  32.1423
  1.689  32.0423
  1.685  32.1423
  1.681  32.2423
  1.677  32.4423
  1.673  32.4423
  1.669  32.2423
  1.665  32.2423
  1.661  32.1423
  1.657  31.8423
  1.653  31.6423
  1.649  31.5423
  1.645  31.6423
  1.641  31.7423
  1.637  31.8423
  1.633  32.0423
  1.629  32.2423
  1.625  32.4423
  1.621  32.1423
  1.617  31.8423
  1.613  31.8423
  1.609  32.0423
  1.605  32.0423
  1.601  31.8423
  1.597  32.0423
  1.593  31.8423
  1.589  31.7423
  1.585  32.0423
  1.581  32.0423
  1.577  32.1423
  1.573  31.8423
  1.569  31.3423
  1.565  31.5423
  1.561  31.5423
  1.557  31.6423
  1.553  31.5423
  1.549  31.7423
  1.545  31.3423
  1.541  31.5423
  1.537  31.5423
  1.533  31.7423
  1.529  32.0423
  1.525  31.8423
  1.521  32.0423
  1.517  32.0423
  1.513  32.2423
  1.509  32.0423
  1.505  32.0423
  1.501  31.6423
  1.497  31.0423
  1.493  31.0423
  1.489  31.0423
  1.485  31.1423
  1.481  31.1423
  1.477  31.1423
  1.473  31.0423
  1.469  31.1423
  1.465  31.1423
  1.461  31.3423
  1.457  31.3423
  1.453  31.2423
  1.449  31.2423
  1.445  31.1423
  1.441  31.1423
  1.437  31.0423
  1.433  31.0423
  1.429  30.9423
  1.425  30.7423
  1.421  30.7423
  1.417  30.4423
  1.413  29.5423
  1.409  28.9423
  1.405  28.7423
  1.401  28.4423
  1.397  29.0423
  1.393  29.8423
  1.389  29.8423
  1.385  30.4423
  1.381  30.9423
  1.377  30.6423
  1.373  31.1423
  1.369  32.1423
  1.365  32.0423
  1.361  31.3423
  1.357  31.3423
  1.353  31.7423
  1.349  31.8423
  1.345  31.7423
  1.341  32.0423
  1.337  32.3423
  1.333  32.4423
  1.329  32.7423
  1.325  32.6423
  1.321  31.8423
  1.317  31.5423
  1.313  31.3423
  1.309  31.3423
  1.305  31.3423
  1.301  31.3423
  1.297  31.3423
  1.293  31.2423
  1.289  31.3423
  1.285  31.3423
  1.281  31.2423
  1.277  31.1423
  1.273  31.0423
  1.269  30.9423
  1.265  31.0423
  1.261  30.7423
  1.257  31.5423
  1.253  32.0423
  1.249  31.8423
  1.245  31.7423
  1.241  31.7423
  1.237  31.6423
  1.233  31.5423
  1.229  31.5423
  1.225  31.5423
  1.221  31.6423
  1.217  31.6423
  1.213  31.3423
  1.209  31.2423
  1.205  31.2423
  1.201  31.2423
  1.197  31.1423
  1.193  31.2423
  1.189  31.1423
  1.185  31.1423
  1.181  31.2423
  1.177  31.3423
  1.173  31.5423
  1.169  31.3423
  1.165  31.3423
  1.161  31.3423
  1.157  31.1423
  1.153  31.0423
  1.149  31.1423
  1.145  30.9423
  1.141  30.9423
  1.137  31.3423
  1.133  31.2423
  1.129  31.0423
  1.125  31.0423
  1.121  31.0423
  1.117  31.1423
  1.113  30.9423
  1.109  30.9423
  1.105  31.1423
  1.101  31.3423
  1.097  31.0423
  1.093  31.1423
  1.089  31.1423
  1.085  31.0423
  1.081  31.0423
  1.077  30.7423
  1.073  31.5423
  1.069  31.7423
  1.065  31.5423
  1.061  31.2423
  1.057  31.0423
  1.053  31.1423
  1.049  31.1423
  1.045  31.0423
  1.041  30.9423
  1.037  30.7423
  1.033  30.9423
  1.029  31.1423
  1.025  31.2423
  1.021  31.2423
  1.017  31.1423
  1.013  30.9423
  1.009  31.1423
  1.005  31.2423
  1.001  30.9423
  0.997  30.6423
  0.993  31.2423
  0.989  31.1423
  0.985  31.0423
  0.981  30.7423
  0.977  30.7423
  0.973  30.9423
  0.969  30.9423
  0.965  31.0423
  0.961  31.0423
  0.957  30.9423
  0.953  30.9423
  0.949  30.9423
  0.945  31.0423
  0.941  30.9423
  0.937  30.6423
  0.933  30.6423
  0.929  30.7423
  0.925  30.7423
  0.921  30.7423
  0.917  30.7423
  0.913  30.6423
  0.909  30.6423
  0.905  30.6423
  0.901  30.7423
  0.897  30.6423
  0.893  30.4423
  0.889  30.2423
  0.885  30.5423
  0.881  30.2423
  0.877  30.2423
  0.873  30.4423
  0.869  30.4423
  0.865  30.2423
  0.861  30.1423
  0.857  30.1423
  0.853  30.4423
  0.849  30.1423
  0.845  30.1423
  0.841  30.1423
  0.837  30.2423
  0.833  30.2423
  0.829  30.2423
  0.825  30.2423
  0.821  30.4423
  0.817  30.1423
  0.813  30.4423
  0.809  30.4423
  0.805  30.1423
  0.804  30.1423
  0.803  30.1423
  0.802  30.0423
  0.801  30.1423
  0.800  30.0423
  0.799  29.9423
  0.798  29.9423
  0.797  30.0423
  0.796  30.1423
  0.795  29.8423
  0.794  30.0423
  0.793  29.6423
  0.792  29.9423
  0.791  30.1423
  0.790  30.0423
  0.789  30.0423
  0.788  30.0423
  0.787  30.0423
  0.786  30.2423
  0.785  30.2423
  0.784  30.0423
  0.783  30.0423
  0.782  30.0423
  0.781  29.6423
  0.780  29.6423
  0.779  30.0423
  0.778  29.9423
  0.777  30.1423
  0.776  30.0423
  0.775  30.0423
  0.774  29.8423
  0.773  29.8423
  0.772  30.0423
  0.771  30.0423
  0.770  30.0423
  0.769  30.1423
  0.768  30.0423
  0.767  30.0423
  0.766  30.1423
  0.765  29.8423
  0.764  29.6423
  0.763  29.9423
  0.762  29.6423
  0.761  29.4423
  0.760  29.5423
  0.759  29.5423
  0.758  29.8423
  0.757  30.0423
  0.756  30.0423
  0.755  29.6423
  0.754  29.5423
  0.753  29.9423
  0.752  29.9423
  0.751  29.8423
  0.750  29.6423
  0.749  29.3423
  0.748  29.3423
  0.747  29.1423
  0.746  29.5423
  0.745  29.4423
  0.744  29.8423
  0.743  29.9423
  0.742  30.0423
  0.741  29.9423
  0.740  29.8423
  0.739  29.8423
  0.738  29.5423
  0.737  29.9423
  0.736  30.0423
  0.735  29.9423
  0.734  29.6423
  0.733  29.6423
  0.732  29.1423
  0.731  29.8423
  0.730  29.8423
  0.729  29.3423
  0.728  29.3423
  0.727  29.4423
  0.726  29.4423
  0.725  29.5423
  0.724  29.1423
  0.723  29.3423
  0.722  29.3423
  0.721  29.3423
  0.720  29.3423
  0.719  29.3423
  0.718  29.4423
  0.717  29.4423
  0.716  29.4423
  0.715  28.8423
  0.714  28.9423
  0.713  29.0423
  0.712  29.1423
  0.711  29.1423
  0.710  29.4423
  0.709  29.1423
  0.708  29.1423
  0.707  29.1423
  0.706  28.8423
  0.705  28.8423
  0.704  28.9423
  0.703  28.3423
  0.702  28.4423
  0.701  28.7423
  0.700  28.8423
  0.699  28.8423
  0.698  28.7423
  0.697  28.9423
  0.696  28.8423
  0.695  28.7423
  0.694  28.7423
  0.693  28.8423
  0.692  28.5423
  0.691  28.4423
  0.690  28.2423
  0.689  28.0423
  0.688  28.2423
  0.687  28.3423
  0.686  28.2423
  0.685  28.3423
  0.684  28.3423
  0.683  28.4423
  0.682  28.3423
  0.681  28.3423
  0.680  28.2423
  0.679  28.3423
  0.678  28.4423
  0.677  28.7423
  0.676  28.3423
  0.675  28.0423
  0.674  28.2423
  0.673  28.3423
  0.672  28.2423
  0.671  27.9423
  0.670  27.9423
  0.669  28.0423
  0.668  28.0423
  0.667  28.2423
  0.666  28.2423
  0.665  28.2423
  0.664  28.2423
  0.663  27.8423
  0.662  27.9423
  0.661  28.0423
  0.660  28.0423
  0.659  28.3423
  0.658  28.2423
  0.657  28.2423
  0.656  28.0423
  0.655  28.0423
  0.654  27.8423
  0.653  27.8423
  0.652  27.8423
  0.651  27.8423
  0.650  27.8423
  0.649  28.0423
  0.648  28.0423
  0.647  27.9423
  0.646  27.9423
  0.645  28.0423
  0.644  28.0423
  0.643  27.9423
  0.642  27.8423
  0.641  27.7423
  0.640  27.6423
  0.639  27.8423
  0.638  27.7423
  0.637  27.9423
  0.636  27.7423
  0.635  27.7423
  0.634  27.8423
  0.633  27.7423
  0.632  27.7423
  0.631  27.6423
  0.630  27.6423
  0.629  27.3423
  0.628  27.4423
  0.627  27.7423
  0.626  27.6423
  0.625  27.7423
  0.624  27.6423
  0.623  27.6423
  0.622  27.6423
  0.621  27.6423
  0.620  27.6423
  0.619  27.7423
  0.618  27.8423
  0.617  28.0423
  0.616  27.9423
  0.615  27.8423
  0.614  27.7423
  0.613  27.7423
  0.612  27.4423
  0.611  27.7423
  0.610  27.6423
  0.609  27.4423
  0.608  27.4423
  0.607  27.3423
  0.606  27.2423
  0.605  27.2423
  0.604  27.6423
  0.603  27.7423
  0.602  27.4423
  0.601  27.4423
  0.600  27.2423
  0.599  27.3423
  0.598  26.9423
  0.597  26.9423
  0.596  26.8423
  0.595  26.8423
  0.594  26.8423
  0.593  27.1423
  0.592  27.2423
  0.591  26.9423
  0.590  26.7423
  0.589  26.9423
  0.588  26.9423
  0.587  26.6423
  0.586  26.9423
  0.585  26.9423
  0.584  26.8423
  0.583  26.6423
  0.582  26.6423
  0.581  26.5423
  0.580  26.6423
  0.579  26.6423
  0.578  26.6423
  0.577  26.5423
  0.576  26.7423
  0.575  26.7423
  0.574  26.8423
  0.573  26.9423
  0.572  26.8423
  0.571  26.8423
  0.570  26.7423
  0.569  26.6423
  0.568  26.5423
  0.567  26.3423
  0.566  26.2423
  0.565  26.2423
  0.564  26.3423
  0.563  26.7423
  0.562  26.8423
  0.561  26.8423
  0.560  26.8423
  0.559  26.6423
  0.558  26.5423
  0.557  26.2423
  0.556  26.3423
  0.555  26.3423
  0.554  26.1423
  0.553  26.1423
  0.552  25.6423
  0.551  26.0423
  0.550  26.0423
  0.549  26.1423
  0.548  26.0423
  0.547  26.0423
  0.546  25.8423
  0.545  25.8423
  0.544  25.8423
  0.543  25.4423
  0.542  25.6423
  0.541  25.8423
  0.540  25.7423
  0.539  25.5423
  0.538  25.2423
  0.537  25.5423
  0.536  26.0423
  0.535  25.8423
  0.534  25.6423
  0.533  25.5423
  0.532  25.4423
  0.531  25.2423
  0.530  25.4423
  0.529  25.2423
  0.528  25.0423
  0.527  25.0423
  0.526  25.1423
  0.525  25.5423
  0.524  25.5423
  0.523  25.5423
  0.522  25.2423
  0.521  25.1423
  0.520  25.1423
  0.519  25.0423
  0.518  25.1423
  0.517  24.9423
  0.516  24.8423
  0.515  25.1423
  0.514  25.1423
  0.513  24.9423
  0.512  24.9423
  0.511  24.8423
  0.510  24.4423
  0.509  24.1423
  0.508  24.5423
  0.507  24.4423
  0.506  24.5423
  0.505  24.3423
  0.504  24.3423
  0.503  24.5423
  0.502  24.4423
  0.501  24.5423
  0.500  24.5423
  0.499  23.9423
  0.498  23.9423
  0.497  23.9423
  0.496  23.8423
  0.495  24.1423
  0.494  24.4423
  0.493  24.3423
  0.492  24.5423
  0.491  24.1423
  0.490  23.9423
  0.489  23.9423
  0.488  24.1423
  0.487  24.3423
  0.486  24.1423
  0.485  24.3423
  0.484  23.9423
  0.483  23.8423
  0.482  23.4423
  0.481  23.9423
  0.480  24.0423
  0.479  23.8423
  0.478  24.0423
  0.477  23.8423
  0.476  24.1423
  0.475  24.1423
  0.474  23.8423
  0.473  23.9423
  0.472  23.8423
  0.471  23.9423
  0.470  23.9423
  0.469  23.8423
  0.468  23.8423
  0.467  23.7423
  0.466  24.1423
  0.465  23.7423
  0.464  23.3423
  0.463  23.9423
  0.462  23.8423
  0.461  23.8423
  0.460  23.7423
  0.459  23.9423
  0.458  23.8423
  0.457  23.5423
  0.456  23.2423
  0.455  23.2423
  0.454  23.4423
  0.453  23.8423
  0.452  23.9423
  0.451  23.9423
  0.450  23.8423
  0.449  23.8423
  0.448  23.8423
  0.447  23.7423
  0.446  23.8423
  0.445  23.7423
  0.444  23.4423
  0.443  23.2423
  0.442  23.0423
  0.441  23.3423
  0.440  23.7423
  0.439  23.7423
  0.438  23.5423
  0.437  23.5423
  0.436  23.3423
  0.435  23.4423
  0.434  22.7423
  0.433  22.9423
  0.432  23.4423
  0.431  23.3423
  0.430  23.4423
  0.429  23.5423
  0.428  23.4423
  0.427  23.3423
  0.426  23.2423
  0.425  22.9423
  0.424  23.2423
  0.423  22.9423
  0.422  22.9423
  0.421  22.9423
  0.420  22.9423
  0.419  23.0423
  0.418  23.0423
  0.417  23.0423
  0.416  23.0423
  0.415  22.8423
  0.414  22.8423
  0.413  22.9423
  0.412  22.9423
  0.411  22.8423
  0.410  22.8423
  0.409  22.8423
  0.408  22.8423
  0.407  22.8423
  0.406  22.7423
  0.405  22.4423
