Name: Rhyolite
Type: Rock
Class: Igneous
Subclass: Felsic
Particle Size: Whole Rock Chips
Sample No.: AP-939-214
Owner: United States Geological Survey, L. C. Rowan
Wavelength range: 0.405 - 14.05 um
Origin: Iberian Pyrite Belt, Spain

Description: Rhyolite, red, unaltered





Measurement: Directional Hemispherical Reflectance
First Column: X
Second Column: Y
X Units: Wavelength (micrometers)
Y Units: Reflectance (percent)
First X Value: 14.05105
Last X Value: 0.40500
Number of X Values: 2530
Additional Information: rhy214a.txt

 14.051   4.1097
 14.013   4.2642
 13.975   4.3878
 13.938   4.4908
 13.900   4.7689
 13.863   4.7277
 13.826   4.6762
 13.790   4.6144
 13.753   4.6968
 13.717   4.5732
 13.680   4.5732
 13.644   4.4599
 13.609   4.4187
 13.573   4.2642
 13.538   4.3054
 13.502   4.3363
 13.467   4.3981
 13.432   4.3569
 13.398   4.4290
 13.363   4.3878
 13.329   4.5114
 13.295   4.5938
 13.261   4.7174
 13.227   4.8616
 13.193   4.9646
 13.160   4.9955
 13.126   5.1809
 13.093   5.1809
 13.060   5.2839
 13.027   5.3560
 12.995   5.4281
 12.962   5.5311
 12.930   5.7474
 12.898   5.8298
 12.866   6.0255
 12.834   6.2315
 12.802   6.3963
 12.771   6.4581
 12.739   6.3860
 12.708   5.9534
 12.677   5.5414
 12.646   5.1706
 12.616   4.9440
 12.585   4.9234
 12.554   5.2427
 12.524   5.4796
 12.494   5.6032
 12.464   5.5826
 12.434   5.3560
 12.404   4.7174
 12.375   3.9861
 12.345   3.1518
 12.316   2.6471
 12.287   2.4926
 12.258   2.5338
 12.229   2.5029
 12.200   2.7295
 12.171   2.9046
 12.143   3.1003
 12.115   3.0797
 12.086   3.1209
 12.058   3.2445
 12.030   3.4093
 12.002   3.4608
 11.975   3.5123
 11.947   3.5226
 11.920   3.6668
 11.892   3.7183
 11.865   3.8316
 11.838   3.8728
 11.811   3.9037
 11.784   3.9449
 11.757   4.0788
 11.731   4.1097
 11.704   4.2230
 11.678   4.2436
 11.652   4.3157
 11.626   4.2848
 11.600   4.3775
 11.574   4.4599
 11.548   4.5938
 11.522   4.6041
 11.497   4.6762
 11.471   4.7174
 11.446   4.8410
 11.421   4.8307
 11.396   4.9234
 11.371   4.9028
 11.346   4.9234
 11.321   5.0161
 11.297   5.1397
 11.272   5.0985
 11.248   5.1500
 11.223   5.2427
 11.199   5.3663
 11.175   5.3972
 11.151   5.4487
 11.127   5.4178
 11.103   5.5414
 11.079   5.6341
 11.056   5.7268
 11.032   5.7680
 11.009   5.9534
 10.985   5.9946
 10.962   6.0255
 10.939   6.0564
 10.916   6.1594
 10.893   6.2006
 10.870   6.2418
 10.848   6.3036
 10.825   6.4169
 10.802   6.3860
 10.780   6.4890
 10.758   6.5817
 10.735   6.6950
 10.713   6.7774
 10.691   6.9216
 10.669   7.0555
 10.647   7.1894
 10.625   7.2512
 10.604   7.3542
 10.582   7.4572
 10.560   7.6117
 10.539   7.7559
 10.518   7.8795
 10.496   7.9413
 10.475   8.1782
 10.454   8.3327
 10.433   8.4975
 10.412   8.6211
 10.391   8.8683
 10.370   9.0949
 10.350   9.3524
 10.329   9.6305
 10.309   9.9704
 10.288  10.1249
 10.268  10.4236
 10.247  10.6708
 10.227  10.9798
 10.207  11.3094
 10.187  11.6184
 10.167  11.8656
 10.147  12.1437
 10.127  12.4321
 10.108  12.7411
 10.088  13.0810
 10.068  13.4724
 10.049  13.7711
 10.029  14.0389
 10.010  14.2861
  9.991  14.6157
  9.972  14.9453
  9.952  15.1822
  9.933  15.3676
  9.914  15.6045
  9.895  15.7075
  9.877  15.8620
  9.858  16.0165
  9.839  16.1710
  9.821  16.1710
  9.802  16.2122
  9.783  16.3049
  9.765  16.4800
  9.747  16.5830
  9.728  16.7684
  9.710  17.0259
  9.692  17.3143
  9.674  17.6851
  9.656  18.1177
  9.638  18.2928
  9.620  18.4267
  9.602  18.5915
  9.585  18.6945
  9.567  18.7151
  9.549  18.9005
  9.532  19.0035
  9.514  19.0962
  9.497  19.1786
  9.479  19.3228
  9.462  19.4773
  9.445  19.6936
  9.428  19.8790
  9.411  20.1983
  9.394  20.5794
  9.377  21.0017
  9.360  21.3519
  9.343  21.7330
  9.326  22.0935
  9.309  22.4025
  9.293  22.5261
  9.276  22.6291
  9.259  22.6188
  9.243  22.6394
  9.226  22.6291
  9.210  22.6188
  9.194  22.6188
  9.178  22.6497
  9.161  22.5467
  9.145  22.4437
  9.129  22.3201
  9.113  22.2274
  9.097  22.0729
  9.081  21.9287
  9.065  21.7021
  9.049  21.5167
  9.034  21.2592
  9.018  21.0223
  9.002  20.8266
  8.987  20.6309
  8.971  20.3631
  8.956  20.3425
  8.940  20.3116
  8.925  20.2498
  8.909  20.0953
  8.894  20.1262
  8.879  20.1674
  8.864  20.2601
  8.849  20.2910
  8.834  20.3425
  8.819  20.2807
  8.804  20.3734
  8.789  20.3116
  8.774  20.2395
  8.759  20.2395
  8.744  20.2498
  8.730  20.1777
  8.715  20.1365
  8.700  20.0026
  8.686  19.7760
  8.671  19.3846
  8.657  18.8696
  8.642  18.0971
  8.628  17.2937
  8.614  16.9847
  8.599  17.5512
  8.585  18.4267
  8.571  19.1580
  8.557  19.6112
  8.543  19.8687
  8.529  20.0232
  8.515  20.1365
  8.501  20.1262
  8.487  20.1777
  8.473  20.1365
  8.459  20.0232
  8.445  19.9614
  8.431  19.8687
  8.418  19.6627
  8.404  19.4258
  8.391  19.2095
  8.377  19.0035
  8.363  18.7975
  8.350  18.6842
  8.337  18.4164
  8.323  18.0971
  8.310  17.7366
  8.297  17.4894
  8.283  17.2525
  8.270  17.0877
  8.257  16.8817
  8.244  16.6345
  8.231  16.3564
  8.218  16.0268
  8.205  15.6148
  8.192  15.2234
  8.179  14.6981
  8.166  14.0389
  8.153  13.2355
  8.140  12.3394
  8.128  11.2888
  8.115  10.3000
  8.102   9.4760
  8.090   8.7241
  8.077   7.8898
  8.064   7.2821
  8.052   6.7156
  8.039   6.1182
  8.027   5.6032
  8.015   5.2633
  8.002   4.8719
  7.990   4.5217
  7.978   4.2024
  7.965   3.9243
  7.953   3.5638
  7.941   3.3166
  7.929   3.0694
  7.917   2.8634
  7.905   2.6780
  7.893   2.5441
  7.881   2.3690
  7.869   2.2042
  7.857   2.0188
  7.845   1.9673
  7.833   1.8334
  7.821   1.7201
  7.809   1.6789
  7.798   1.6789
  7.786   1.5862
  7.774   1.5347
  7.763   1.5553
  7.751   1.6068
  7.739   1.5759
  7.728   1.5038
  7.716   1.4420
  7.705   1.3905
  7.694   1.2669
  7.682   1.2463
  7.671   1.2360
  7.659   1.2772
  7.648   1.2257
  7.637   1.1845
  7.626   1.1742
  7.614   1.1433
  7.603   1.1021
  7.592   1.1124
  7.581   1.1330
  7.570   1.1124
  7.559   1.0094
  7.548   1.0094
  7.537   1.0712
  7.526   1.0712
  7.515   0.9785
  7.504   1.0300
  7.493   1.0094
  7.483   0.9888
  7.472   0.9785
  7.461   0.9476
  7.450   0.8858
  7.440   0.9167
  7.429   0.9064
  7.418   0.9167
  7.408   0.9270
  7.397   0.9785
  7.387   0.9373
  7.376   0.8858
  7.366   0.8755
  7.355   0.9476
  7.345   0.9682
  7.334   0.9270
  7.324   0.9064
  7.314   0.8961
  7.303   0.8755
  7.293   0.9064
  7.283   0.9373
  7.273   0.9373
  7.263   0.8961
  7.252   0.8961
  7.242   0.9064
  7.232   0.8858
  7.222   0.8961
  7.212   0.9579
  7.202   0.9991
  7.192   0.9991
  7.182   0.9270
  7.172   0.9476
  7.162   0.9991
  7.152   0.9991
  7.143   1.0094
  7.133   1.0300
  7.123   1.0094
  7.113   1.0197
  7.103   0.9785
  7.094   0.9888
  7.084   0.9785
  7.074   0.9579
  7.065   0.9888
  7.055   1.0197
  7.046   1.0094
  7.036   1.0094
  7.026   0.9888
  7.017   1.0506
  7.007   1.0300
  6.998   1.0403
  6.989   1.0609
  6.979   1.0197
  6.970   0.9785
  6.960   1.0300
  6.951   1.0403
  6.942   1.0506
  6.932   1.0094
  6.923   0.9888
  6.914   0.9991
  6.905   1.0712
  6.896   1.1330
  6.886   1.1536
  6.877   1.0918
  6.868   1.1124
  6.859   1.0609
  6.850   1.0712
  6.841   1.0712
  6.832   1.1021
  6.823   1.1021
  6.814   1.1021
  6.805   1.0403
  6.796   0.9888
  6.787   0.9888
  6.778   1.0506
  6.770   1.0094
  6.761   0.9888
  6.752   1.0403
  6.743   1.1021
  6.734   1.0609
  6.726   1.0815
  6.717   1.1227
  6.708   1.1639
  6.700   1.1536
  6.691   1.1021
  6.682   1.1021
  6.674   1.1536
  6.665   1.1227
  6.657   1.1021
  6.648   1.0918
  6.640   1.1536
  6.631   1.1845
  6.623   1.1433
  6.614   1.1124
  6.606   1.1330
  6.597   1.1639
  6.589   1.1742
  6.581   1.1742
  6.572   1.2051
  6.564   1.2051
  6.556   1.2463
  6.547   1.2463
  6.539   1.2154
  6.531   1.1124
  6.523   1.1227
  6.514   1.1433
  6.506   1.1845
  6.498   1.1948
  6.490   1.2257
  6.482   1.2360
  6.474   1.2566
  6.466   1.2360
  6.458   1.2360
  6.450   1.2463
  6.442   1.2772
  6.434   1.2669
  6.426   1.2566
  6.418   1.2257
  6.410   1.2051
  6.402   1.2360
  6.394   1.2463
  6.386   1.2154
  6.378   1.2360
  6.370   1.2566
  6.363   1.3184
  6.355   1.3081
  6.347   1.2463
  6.339   1.2257
  6.332   1.2875
  6.324   1.2566
  6.316   1.1948
  6.308   1.2154
  6.301   1.2772
  6.293   1.2772
  6.286   1.2669
  6.278   1.2772
  6.270   1.3081
  6.263   1.2772
  6.255   1.2566
  6.248   1.2669
  6.240   1.3081
  6.233   1.2669
  6.225   1.2772
  6.218   1.2669
  6.210   1.2360
  6.203   1.1845
  6.195   1.2257
  6.188   1.2669
  6.181   1.2875
  6.173   1.3184
  6.166   1.3802
  6.159   1.3287
  6.151   1.3287
  6.144   1.3493
  6.137   1.3081
  6.130   1.2772
  6.122   1.2978
  6.115   1.3390
  6.108   1.4317
  6.101   1.4523
  6.094   1.4214
  6.086   1.3699
  6.079   1.3287
  6.072   1.3287
  6.065   1.3493
  6.058   1.3493
  6.051   1.4214
  6.044   1.4214
  6.037   1.3905
  6.030   1.3802
  6.023   1.3905
  6.016   1.3905
  6.009   1.3699
  6.002   1.3390
  5.995   1.3184
  5.988   1.3390
  5.981   1.3905
  5.974   1.3905
  5.967   1.3905
  5.960   1.3802
  5.954   1.3802
  5.947   1.3802
  5.940   1.4008
  5.933   1.4420
  5.926   1.4832
  5.920   1.4729
  5.913   1.4214
  5.906   1.3802
  5.899   1.4214
  5.893   1.4317
  5.886   1.4008
  5.879   1.3699
  5.873   1.4214
  5.866   1.4935
  5.859   1.4729
  5.853   1.4111
  5.846   1.4729
  5.840   1.5038
  5.833   1.5553
  5.827   1.5553
  5.820   1.4832
  5.813   1.4214
  5.807   1.4523
  5.800   1.4729
  5.794   1.4832
  5.788   1.4729
  5.781   1.4832
  5.775   1.4626
  5.768   1.5347
  5.762   1.5450
  5.755   1.4935
  5.749   1.4935
  5.743   1.5450
  5.736   1.5656
  5.730   1.5450
  5.724   1.5347
  5.717   1.5862
  5.711   1.5965
  5.705   1.5244
  5.698   1.4935
  5.692   1.5450
  5.686   1.5553
  5.680   1.5450
  5.674   1.5553
  5.667   1.5862
  5.661   1.5862
  5.655   1.5965
  5.649   1.6274
  5.643   1.5862
  5.637   1.5656
  5.630   1.5965
  5.624   1.5965
  5.618   1.6068
  5.612   1.5759
  5.606   1.5553
  5.600   1.5141
  5.594   1.5450
  5.588   1.5553
  5.582   1.5553
  5.576   1.5656
  5.570   1.5759
  5.564   1.5450
  5.558   1.5244
  5.552   1.5347
  5.546   1.5450
  5.540   1.5759
  5.534   1.5965
  5.528   1.5759
  5.523   1.5862
  5.517   1.6274
  5.511   1.5862
  5.505   1.5553
  5.499   1.6068
  5.493   1.6377
  5.487   1.6480
  5.482   1.6583
  5.476   1.6377
  5.470   1.6583
  5.464   1.6583
  5.459   1.6686
  5.453   1.6995
  5.447   1.6789
  5.441   1.6892
  5.436   1.6892
  5.430   1.6995
  5.424   1.7098
  5.419   1.7304
  5.413   1.7098
  5.407   1.6789
  5.402   1.6892
  5.396   1.7098
  5.390   1.6892
  5.385   1.6583
  5.379   1.6171
  5.374   1.6480
  5.368   1.6686
  5.363   1.6480
  5.357   1.6068
  5.352   1.6068
  5.346   1.6171
  5.341   1.6377
  5.335   1.6583
  5.330   1.6583
  5.324   1.6274
  5.319   1.6171
  5.313   1.5965
  5.308   1.6171
  5.302   1.6583
  5.297   1.6480
  5.291   1.6480
  5.286   1.6892
  5.281   1.7407
  5.275   1.7201
  5.270   1.6686
  5.265   1.6686
  5.259   1.6995
  5.254   1.7098
  5.249   1.6892
  5.243   1.6892
  5.238   1.7407
  5.233   1.8025
  5.227   1.8128
  5.222   1.7613
  5.217   1.7716
  5.212   1.7922
  5.206   1.8025
  5.201   1.8128
  5.196   1.8231
  5.191   1.8128
  5.186   1.7510
  5.180   1.7819
  5.175   1.7819
  5.170   1.8025
  5.165   1.8437
  5.160   1.9158
  5.155   1.8849
  5.150   1.8231
  5.145   1.7819
  5.139   1.7819
  5.134   1.8231
  5.129   1.8540
  5.124   1.8334
  5.119   1.8540
  5.114   1.8849
  5.109   1.8952
  5.104   1.8746
  5.099   1.8643
  5.094   1.8746
  5.089   1.9055
  5.084   1.9261
  5.079   1.8952
  5.074   1.8643
  5.069   1.8540
  5.064   1.8540
  5.059   1.9261
  5.054   1.9570
  5.049   1.8849
  5.044   1.8437
  5.040   1.8849
  5.035   1.9364
  5.030   1.9158
  5.025   1.9261
  5.020   1.9673
  5.015   1.9158
  5.010   1.8952
  5.005   1.8849
  5.001   1.8643
  4.996   1.8746
  4.991   1.9158
  4.986   1.8746
  4.981   1.8952
  4.977   1.9467
  4.972   1.9467
  4.967   1.9261
  4.962   1.9570
  4.958   1.9776
  4.953   2.0085
  4.948   2.0394
  4.943   2.0291
  4.939   1.9776
  4.934   2.0291
  4.929   2.0497
  4.925   2.0806
  4.920   2.1115
  4.915   2.1012
  4.911   2.1012
  4.906   2.1115
  4.901   2.1321
  4.897   2.1939
  4.892   2.2145
  4.888   2.2042
  4.883   2.1939
  4.878   2.2248
  4.874   2.2248
  4.869   2.2454
  4.865   2.3587
  4.860   2.4514
  4.856   2.4617
  4.851   2.4617
  4.846   2.4617
  4.842   2.4308
  4.837   2.4514
  4.833   2.4102
  4.828   2.4308
  4.824   2.5029
  4.819   2.4926
  4.815   2.4720
  4.810   2.4720
  4.806   2.4720
  4.802   2.5132
  4.797   2.5544
  4.793   2.5544
  4.788   2.4926
  4.784   2.4926
  4.779   2.5338
  4.775   2.5647
  4.771   2.5338
  4.766   2.4926
  4.762   2.5338
  4.758   2.5235
  4.753   2.5338
  4.749   2.5235
  4.744   2.5029
  4.740   2.5750
  4.736   2.6368
  4.731   2.6368
  4.727   2.6059
  4.723   2.5647
  4.719   2.6265
  4.714   2.6677
  4.710   2.5853
  4.706   2.5441
  4.701   2.5750
  4.697   2.6368
  4.693   2.6059
  4.689   2.5647
  4.684   2.5544
  4.680   2.5441
  4.676   2.5750
  4.672   2.6162
  4.668   2.6780
  4.663   2.6574
  4.659   2.5750
  4.655   2.5853
  4.651   2.6574
  4.647   2.6986
  4.643   2.6677
  4.638   2.6677
  4.634   2.7295
  4.630   2.7192
  4.626   2.7501
  4.622   2.8119
  4.618   2.8325
  4.614   2.8016
  4.610   2.7501
  4.605   2.7604
  4.601   2.8634
  4.597   2.9458
  4.593   2.9664
  4.589   2.9561
  4.585   2.9664
  4.581   2.9561
  4.577   2.9355
  4.573   2.9046
  4.569   2.9149
  4.565   2.9664
  4.561   3.0076
  4.557   2.9973
  4.553   2.9870
  4.549   3.0076
  4.545   3.0282
  4.541   3.0488
  4.537   2.9767
  4.533   3.0076
  4.529   3.0488
  4.525   3.0797
  4.521   3.1415
  4.517   3.0488
  4.513   2.9973
  4.509   3.0488
  4.505   3.0591
  4.502   3.0488
  4.498   3.0385
  4.494   3.0488
  4.490   3.0179
  4.486   2.9561
  4.482   2.9561
  4.478   3.0282
  4.474   3.0694
  4.470   3.0076
  4.467   2.9664
  4.463   2.9664
  4.459   2.9973
  4.455   3.0591
  4.451   3.0900
  4.447   3.0900
  4.444   3.1003
  4.440   3.0900
  4.436   3.1312
  4.432   3.2342
  4.428   3.2342
  4.425   3.2033
  4.421   3.2342
  4.417   3.2136
  4.413   3.1827
  4.410   3.2445
  4.406   3.3681
  4.402   3.3578
  4.398   3.3372
  4.395   3.3887
  4.391   3.4093
  4.387   3.4093
  4.384   3.4608
  4.380   3.5638
  4.376   3.5638
  4.372   3.5844
  4.369   3.6462
  4.365   3.6565
  4.361   3.6359
  4.358   3.6565
  4.354   3.6565
  4.350   3.6771
  4.347   3.7801
  4.343   3.7904
  4.340   3.7492
  4.336   3.7698
  4.332   3.7801
  4.329   3.8316
  4.325   3.8625
  4.321   3.8419
  4.318   3.8316
  4.314   3.8316
  4.311   3.8007
  4.307   3.8007
  4.304   3.8934
  4.300   3.9346
  4.296   3.9243
  4.293   3.9552
  4.289   3.9758
  4.286   3.9758
  4.282   3.9655
  4.279   4.0582
  4.275   4.0479
  4.272   3.9964
  4.268   3.9758
  4.265   4.0067
  4.261   4.0479
  4.258   4.1097
  4.254   4.1303
  4.251   4.1406
  4.247   4.2127
  4.244   4.1818
  4.240   4.0479
  4.237   4.0788
  4.233   4.1818
  4.230   4.2127
  4.226   4.1509
  4.223   4.1303
  4.219   4.1921
  4.216   4.2024
  4.213   4.2333
  4.209   4.2539
  4.206   4.2024
  4.202   4.2436
  4.199   4.2230
  4.196   4.1818
  4.192   4.1818
  4.189   4.2230
  4.185   4.2539
  4.182   4.2951
  4.179   4.3054
  4.175   4.2951
  4.172   4.3260
  4.169   4.3260
  4.165   4.3054
  4.162   4.3260
  4.159   4.3569
  4.155   4.4084
  4.152   4.4084
  4.149   4.3672
  4.145   4.3981
  4.142   4.4393
  4.139   4.4290
  4.135   4.4496
  4.132   4.4393
  4.129   4.3981
  4.126   4.4290
  4.122   4.5011
  4.119   4.4908
  4.116   4.4290
  4.112   4.4290
  4.109   4.5320
  4.106   4.5835
  4.103   4.5938
  4.099   4.5114
  4.096   4.5320
  4.093   4.5320
  4.090   4.5320
  4.086   4.4805
  4.083   4.4805
  4.080   4.5217
  4.077   4.5938
  4.074   4.6041
  4.070   4.5835
  4.067   4.5732
  4.064   4.5732
  4.061   4.5320
  4.058   4.5320
  4.055   4.5423
  4.051   4.6247
  4.048   4.7586
  4.045   4.7998
  4.042   4.6865
  4.039   4.6865
  4.036   4.6659
  4.032   4.6041
  4.029   4.5320
  4.026   4.4599
  4.023   4.4702
  4.020   4.6350
  4.017   4.7071
  4.014   4.7071
  4.011   4.6762
  4.008   4.6865
  4.004   4.6453
  4.001   4.6453
  3.998   4.7277
  3.995   4.7277
  3.992   4.6762
  3.989   4.6865
  3.986   4.6453
  3.983   4.5629
  3.980   4.5629
  3.977   4.6041
  3.974   4.6453
  3.971   4.6762
  3.968   4.6453
  3.965   4.7277
  3.962   4.7071
  3.959   4.6659
  3.956   4.6968
  3.953   4.7689
  3.950   4.7895
  3.947   4.7895
  3.944   4.8101
  3.941   4.7998
  3.938   4.6968
  3.935   4.7071
  3.932   4.8204
  3.929   4.8925
  3.926   4.8719
  3.923   4.8307
  3.920   4.8307
  3.917   4.7998
  3.914   4.7998
  3.911   4.7998
  3.908   4.8307
  3.905   4.8616
  3.902   4.8925
  3.899   4.9234
  3.896   4.9131
  3.893   4.9028
  3.890   4.8307
  3.887   4.8101
  3.884   4.7586
  3.882   4.7483
  3.879   4.8616
  3.876   4.9028
  3.873   4.8719
  3.870   4.8822
  3.867   4.8307
  3.864   4.7586
  3.861   4.7792
  3.858   4.8410
  3.856   4.7895
  3.853   4.7792
  3.850   4.8719
  3.847   4.9852
  3.844   4.9543
  3.841   4.9028
  3.838   4.8719
  3.836   4.9028
  3.833   4.8410
  3.830   4.7895
  3.827   4.8822
  3.824   4.9131
  3.822   4.7895
  3.819   4.8616
  3.816   4.9440
  3.813   4.9646
  3.810   4.9337
  3.807   4.8719
  3.805   4.8101
  3.802   4.8925
  3.799   4.9234
  3.796   4.9131
  3.794   4.8513
  3.791   4.8719
  3.788   4.8822
  3.785   4.8822
  3.782   4.8719
  3.780   4.8925
  3.777   4.8410
  3.774   4.8410
  3.771   4.8101
  3.769   4.8719
  3.766   4.9337
  3.763   4.9234
  3.761   4.8101
  3.758   4.7998
  3.755   4.8616
  3.752   4.8719
  3.750   4.9028
  3.747   4.8925
  3.744   4.8204
  3.742   4.7792
  3.739   4.7689
  3.736   4.8719
  3.733   4.8719
  3.731   4.7998
  3.728   4.7483
  3.725   4.7689
  3.723   4.7689
  3.720   4.7895
  3.717   4.7071
  3.715   4.6968
  3.712   4.7071
  3.709   4.7998
  3.707   4.8925
  3.704   4.9028
  3.702   4.8719
  3.699   4.7895
  3.696   4.7071
  3.694   4.8101
  3.691   4.8822
  3.688   4.8307
  3.686   4.7689
  3.683   4.7792
  3.680   4.7792
  3.678   4.7998
  3.675   4.7277
  3.673   4.7071
  3.670   4.7174
  3.667   4.7998
  3.665   4.8204
  3.662   4.8410
  3.660   4.8719
  3.657   4.8204
  3.655   4.7380
  3.652   4.7277
  3.649   4.7586
  3.647   4.7586
  3.644   4.7380
  3.642   4.8513
  3.639   4.9543
  3.637   4.8513
  3.634   4.7895
  3.632   4.7792
  3.629   4.6041
  3.626   4.6144
  3.624   4.7071
  3.621   4.7380
  3.619   4.6556
  3.616   4.6659
  3.614   4.7380
  3.611   4.6762
  3.609   4.5526
  3.606   4.5835
  3.604   4.6247
  3.601   4.6144
  3.599   4.5629
  3.596   4.6247
  3.594   4.7174
  3.591   4.7071
  3.589   4.6144
  3.586   4.5938
  3.584   4.5938
  3.581   4.5423
  3.579   4.4393
  3.576   4.5217
  3.574   4.6556
  3.571   4.6762
  3.569   4.6350
  3.567   4.6041
  3.564   4.5423
  3.562   4.5526
  3.559   4.5835
  3.557   4.5732
  3.554   4.4496
  3.552   4.4290
  3.549   4.5011
  3.547   4.5114
  3.545   4.4084
  3.542   4.3569
  3.540   4.4393
  3.537   4.3981
  3.535   4.3981
  3.533   4.4599
  3.530   4.4496
  3.528   4.3878
  3.525   4.3054
  3.523   4.3466
  3.521   4.3878
  3.518   4.4599
  3.516   4.4702
  3.513   4.4599
  3.511   4.3672
  3.509   4.3260
  3.506   4.3466
  3.504   4.2745
  3.502   4.1200
  3.499   4.1200
  3.497   4.1406
  3.494   4.2024
  3.492   4.2642
  3.490   4.2642
  3.487   4.2951
  3.485   4.3054
  3.483   4.1921
  3.480   4.1612
  3.478   4.0994
  3.476   4.1303
  3.473   4.2333
  3.471   4.1921
  3.469   4.1097
  3.466   4.0994
  3.464   4.1097
  3.462   4.1818
  3.460   4.0891
  3.457   4.0170
  3.455   4.1406
  3.453   4.1715
  3.450   4.1200
  3.448   4.1509
  3.446   4.1406
  3.443   4.0891
  3.441   4.0170
  3.439   4.0479
  3.437   4.0685
  3.434   4.0170
  3.432   3.9243
  3.430   3.9861
  3.428   4.0376
  3.425   4.0479
  3.423   3.9243
  3.421   3.9346
  3.418   4.0067
  3.416   3.8934
  3.414   3.7904
  3.412   3.8213
  3.409   3.8007
  3.407   3.7698
  3.405   3.7286
  3.403   3.8522
  3.401   3.9243
  3.398   3.8522
  3.396   3.8625
  3.394   3.8625
  3.392   3.7492
  3.389   3.8625
  3.387   3.9140
  3.385   3.8831
  3.383   3.7904
  3.381   3.7286
  3.378   3.8007
  3.376   3.8213
  3.374   3.8213
  3.372   3.8522
  3.370   3.7904
  3.367   3.7080
  3.365   3.8007
  3.363   3.9346
  3.361   3.8831
  3.359   3.8419
  3.357   3.8625
  3.354   3.9346
  3.352   3.9552
  3.350   3.8934
  3.348   3.7595
  3.346   3.7389
  3.344   3.6771
  3.341   3.6050
  3.339   3.6462
  3.337   3.7492
  3.335   3.7595
  3.333   3.8007
  3.331   3.7698
  3.329   3.7183
  3.326   3.7080
  3.324   3.7492
  3.322   3.7183
  3.320   3.6668
  3.318   3.6359
  3.316   3.7183
  3.314   3.6771
  3.312   3.7080
  3.309   3.6977
  3.307   3.5947
  3.305   3.5432
  3.303   3.5638
  3.301   3.6565
  3.299   3.6565
  3.297   3.6256
  3.295   3.6462
  3.293   3.5329
  3.291   3.5123
  3.288   3.4608
  3.286   3.5432
  3.284   3.6050
  3.282   3.6256
  3.280   3.5329
  3.278   3.4608
  3.276   3.5329
  3.274   3.6050
  3.272   3.5020
  3.270   3.4917
  3.268   3.5020
  3.266   3.3990
  3.264   3.3681
  3.262   3.5329
  3.259   3.6153
  3.257   3.6359
  3.255   3.4505
  3.253   3.3990
  3.251   3.4093
  3.249   3.4917
  3.247   3.5432
  3.245   3.4608
  3.243   3.4299
  3.241   3.3887
  3.239   3.4299
  3.237   3.5226
  3.235   3.5329
  3.233   3.4917
  3.231   3.3475
  3.229   3.3166
  3.227   3.3578
  3.225   3.3372
  3.223   3.2960
  3.221   3.3990
  3.219   3.3269
  3.217   3.3269
  3.215   3.3166
  3.213   3.4299
  3.211   3.4917
  3.209   3.4196
  3.207   3.3681
  3.205   3.3990
  3.203   3.4299
  3.201   3.5432
  3.199   3.4093
  3.197   3.2239
  3.195   3.3578
  3.193   3.4402
  3.191   3.3166
  3.189   3.3166
  3.187   3.3063
  3.185   3.3372
  3.183   3.2239
  3.182   3.2033
  3.180   3.2857
  3.178   3.4196
  3.176   3.3887
  3.174   3.3166
  3.172   3.3784
  3.170   3.3475
  3.168   3.2445
  3.166   3.1930
  3.164   3.2342
  3.162   3.3063
  3.160   3.2445
  3.158   3.2342
  3.156   3.1724
  3.154   3.1415
  3.152   3.1312
  3.151   3.1827
  3.149   3.3166
  3.147   3.3063
  3.145   3.1621
  3.143   3.1518
  3.141   3.1518
  3.139   3.2033
  3.137   3.2239
  3.135   3.2651
  3.133   3.2548
  3.132   3.2033
  3.130   3.1518
  3.128   3.1106
  3.126   3.0385
  3.124   3.1209
  3.122   3.2239
  3.120   3.2342
  3.118   3.1518
  3.117   3.1209
  3.115   3.0282
  3.113   3.0900
  3.111   3.2445
  3.109   3.2651
  3.107   3.0591
  3.105   3.0385
  3.103   3.1518
  3.102   3.2651
  3.100   3.1827
  3.098   3.0900
  3.096   3.1209
  3.094   3.2960
  3.092   3.2754
  3.091   3.1518
  3.089   3.1415
  3.087   3.2136
  3.085   3.1415
  3.083   3.0900
  3.081   3.1106
  3.079   3.1003
  3.078   3.0591
  3.076   3.0591
  3.074   3.1518
  3.072   3.2033
  3.070   3.1621
  3.069   3.1209
  3.067   3.0488
  3.065   3.0179
  3.063   2.9046
  3.061   3.0282
  3.060   3.2033
  3.058   3.2136
  3.056   3.1930
  3.054   3.1415
  3.052   3.0282
  3.051   3.0694
  3.049   3.1003
  3.047   3.1621
  3.045   3.3063
  3.043   3.3372
  3.042   3.1518
  3.040   3.0385
  3.038   3.1106
  3.036   3.1724
  3.034   3.0076
  3.033   3.0076
  3.031   3.1209
  3.029   3.2239
  3.027   3.0900
  3.026   2.9767
  3.024   3.0076
  3.022   3.2445
  3.020   3.3269
  3.019   3.2651
  3.017   3.1209
  3.015   2.9561
  3.013   2.9664
  3.012   3.1724
  3.010   3.1209
  3.008   3.1209
  3.006   3.1724
  3.005   3.1930
  3.003   3.0591
  3.001   3.0076
  2.999   3.0488
  2.998   3.1621
  2.996   3.1827
  2.994   3.2136
  2.992   3.2136
  2.991   3.2342
  2.989   3.1621
  2.987   3.1209
  2.986   3.1621
  2.984   3.1930
  2.982   3.1415
  2.980   3.1621
  2.979   2.9767
  2.977   2.9973
  2.975   2.9973
  2.974   3.0076
  2.972   3.1106
  2.970   3.1724
  2.968   3.1312
  2.967   3.1930
  2.965   3.2136
  2.963   3.1003
  2.962   3.0488
  2.960   3.1415
  2.958   2.9870
  2.957   2.9973
  2.955   3.0797
  2.953   3.1621
  2.952   3.0282
  2.950   3.0488
  2.948   3.2342
  2.947   3.3784
  2.945   3.3063
  2.943   3.1827
  2.942   3.0591
  2.940   3.0282
  2.938   3.0385
  2.937   3.1518
  2.935   3.0797
  2.933   3.1518
  2.932   3.2033
  2.930   3.2033
  2.928   3.0694
  2.927   2.9973
  2.925   3.1106
  2.923   3.2033
  2.922   3.1518
  2.920   3.1003
  2.918   3.1312
  2.917   3.1518
  2.915   3.0282
  2.913   3.1312
  2.912   3.2239
  2.910   3.1724
  2.909   3.1415
  2.907   3.0900
  2.905   3.2033
  2.904   3.3784
  2.902   3.3166
  2.900   3.2754
  2.899   3.2548
  2.897   3.1518
  2.896   2.9870
  2.894   3.1518
  2.892   3.2342
  2.891   3.2136
  2.889   3.2445
  2.887   3.2445
  2.886   3.2651
  2.884   3.2342
  2.883   3.2239
  2.881   3.4299
  2.879   3.3887
  2.878   3.2754
  2.876   3.2445
  2.875   3.2239
  2.873   3.2754
  2.871   3.3990
  2.870   3.4814
  2.868   3.5535
  2.867   3.2651
  2.865   3.2960
  2.864   3.4711
  2.862   3.3784
  2.860   3.1930
  2.859   3.2960
  2.857   3.4299
  2.856   3.2651
  2.854   3.2754
  2.853   3.5741
  2.851   3.4299
  2.849   3.2342
  2.848   3.3887
  2.846   3.4917
  2.845   3.3681
  2.843   3.2857
  2.842   3.2754
  2.840   3.4505
  2.838   3.5638
  2.837   3.4402
  2.835   3.2342
  2.834   3.4093
  2.832   3.5432
  2.831   3.3887
  2.829   3.2342
  2.828   3.2548
  2.826   3.2342
  2.825   3.2033
  2.823   3.0797
  2.821   3.2857
  2.820   3.2754
  2.818   3.3166
  2.817   3.3063
  2.815   3.3372
  2.814   3.4608
  2.812   3.3063
  2.811   3.0694
  2.809   3.0797
  2.808   3.1003
  2.806   3.1312
  2.805   2.9252
  2.803   2.9973
  2.802   3.1930
  2.800   3.1312
  2.799   3.2033
  2.797   3.2960
  2.796   3.1827
  2.794   3.1312
  2.793   3.0282
  2.791   3.0797
  2.790   2.9767
  2.788   2.8531
  2.787   2.8428
  2.785   2.9973
  2.784   3.2754
  2.782   3.3063
  2.781   3.0076
  2.779   2.9046
  2.778   2.8943
  2.776   2.8634
  2.775   2.6780
  2.773   2.9973
  2.772   3.1827
  2.770   3.0076
  2.769   2.6677
  2.767   2.7398
  2.766   2.9355
  2.764   2.9973
  2.763   3.0076
  2.761   2.9664
  2.760   2.9973
  2.758   2.8119
  2.757   2.8428
  2.756   2.9767
  2.754   2.9355
  2.753   2.9561
  2.751   2.8428
  2.750   3.0179
  2.748   3.1518
  2.747   3.3372
  2.745   3.3784
  2.744   3.3166
  2.742   3.2960
  2.741   3.2960
  2.740   3.1003
  2.738   3.1312
  2.737   3.1312
  2.735   3.3578
  2.734   3.5432
  2.732   3.4196
  2.731   3.3475
  2.729   3.5226
  2.728   3.4299
  2.727   3.7080
  2.725   3.9140
  2.724   3.8110
  2.722   3.7183
  2.721   3.9346
  2.719   4.0067
  2.718   3.9243
  2.717   3.7698
  2.715   3.8316
  2.714   4.0067
  2.712   4.1612
  2.711   4.0994
  2.709   3.9655
  2.708   3.7183
  2.707   3.6771
  2.705   3.7904
  2.704   3.9243
  2.702   3.7183
  2.701   3.8007
  2.700   4.0994
  2.698   4.2951
  2.697   4.0994
  2.695   4.2230
  2.694   4.7483
  2.693   4.9646
  2.691   5.0573
  2.690   5.4178
  2.688   5.6547
  2.687   5.8607
  2.686   6.0976
  2.684   6.5096
  2.683   6.6950
  2.681   6.6641
  2.680   6.9731
  2.679   7.2924
  2.677   7.0864
  2.676   7.2718
  2.675   7.5705
  2.673   7.7559
  2.672   7.7044
  2.670   7.8486
  2.669   8.0546
  2.668   8.2503
  2.666   8.2091
  2.665   8.0752
  2.664   7.9825
  2.662   8.1885
  2.661   8.2606
  2.659   8.4460
  2.658   8.3636
  2.657   8.2709
  2.655   8.2503
  2.654   8.2709
  2.653   8.4048
  2.651   8.6314
  2.650   8.7550
  2.649   9.0331
  2.647   8.9198
  2.646   8.7241
  2.645   8.8889
  2.643   9.1052
  2.642   8.9198
  2.640   8.7035
  2.639   8.8374
  2.638   9.0434
  2.636   8.9198
  2.635   8.8168
  2.634   8.9404
  2.632   9.1052
  2.631   8.9507
  2.630   8.9610
  2.628   8.9610
  2.627   9.0949
  2.626   9.2906
  2.624   9.3215
  2.623   9.0537
  2.622   9.1361
  2.620   8.9816
  2.619   8.9198
  2.618   8.9301
  2.617   9.2906
  2.615   9.3524
  2.614   9.2906
  2.613   9.1258
  2.611   9.0949
  2.610   9.2082
  2.609   9.1155
  2.607   9.0743
  2.606   9.2494
  2.605   9.0846
  2.603   9.3730
  2.602   9.6099
  2.601   9.3936
  2.599   9.3833
  2.598   9.4966
  2.597   9.4966
  2.596   9.2803
  2.594   9.1258
  2.593   9.2597
  2.592   9.2803
  2.590   9.3009
  2.589   9.2082
  2.588   9.3730
  2.586   9.5584
  2.585   9.6614
  2.584   9.5790
  2.583   9.5069
  2.581   9.2185
  2.580   9.2494
  2.579   9.3833
  2.577   9.4966
  2.576   9.3627
  2.575   9.3627
  2.574   9.5584
  2.572   9.6099
  2.571   9.4142
  2.570   9.5069
  2.569   9.6099
  2.567   9.8262
  2.566   9.7644
  2.565   9.8983
  2.563   9.8365
  2.562   9.8262
  2.561   9.6202
  2.560   9.6820
  2.558   9.7232
  2.557   9.6408
  2.556   9.7747
  2.555   9.9395
  2.553  10.0425
  2.552  10.0322
  2.551   9.6305
  2.550   9.5687
  2.548   9.6923
  2.547   9.8468
  2.546  10.0734
  2.545  10.1455
  2.543   9.9292
  2.542  10.0631
  2.541  10.1970
  2.540  10.0116
  2.538   9.9292
  2.537  10.1867
  2.536   9.9292
  2.535   9.7026
  2.533   9.6305
  2.532   9.8571
  2.531   9.9601
  2.530   9.9395
  2.528   9.9395
  2.527  10.0940
  2.526  10.2794
  2.525  10.0013
  2.524   9.7747
  2.522   9.8468
  2.521   9.9189
  2.520  10.0322
  2.519  10.0837
  2.517   9.7438
  2.516   9.7335
  2.515   9.9498
  2.514  10.1146
  2.513  10.2073
  2.511   9.7953
  2.510   9.8571
  2.509  10.1455
  2.508   9.9704
  2.506   9.7335
  2.505   9.8880
  2.504  10.0837
  2.503  10.1352
  2.502   9.9292
  2.500   9.7953
  2.497   9.7953
  2.493   9.7953
  2.489   9.7953
  2.485   9.7953
  2.481   9.5953
  2.477   9.4953
  2.473   9.3953
  2.469   9.3953
  2.465   9.3953
  2.461   9.3953
  2.457   9.2953
  2.453   9.3953
  2.449   9.3953
  2.445   9.3953
  2.441   9.3953
  2.437   9.3953
  2.433   9.4953
  2.429   9.4953
  2.425   9.7953
  2.421   9.7953
  2.417   9.7953
  2.413   9.7953
  2.409   9.7953
  2.405   9.8953
  2.401   9.9953
  2.397  10.0953
  2.393   9.9953
  2.389  10.0953
  2.385  10.0953
  2.381  10.0953
  2.377  10.0953
  2.373   9.9953
  2.369   9.9953
  2.365   9.9953
  2.361   9.9953
  2.357   9.8953
  2.353   9.8953
  2.349  10.0953
  2.345  10.0953
  2.341  10.1953
  2.337  10.3953
  2.333  10.3953
  2.329  10.3953
  2.325  10.3953
  2.321  10.1953
  2.317  10.1953
  2.313  10.1953
  2.309  10.0953
  2.305  10.1953
  2.301   9.9953
  2.297  10.0953
  2.293  10.6953
  2.289  10.5953
  2.285  10.5953
  2.281  10.7953
  2.277  11.0953
  2.273  11.4953
  2.269  11.4953
  2.265  11.4953
  2.261  11.4953
  2.257  11.1953
  2.253  11.1953
  2.249  11.0953
  2.245  11.1953
  2.241  11.0953
  2.237  10.9953
  2.233  11.0953
  2.229  10.9953
  2.225  10.5953
  2.221  10.6953
  2.217  10.5953
  2.213  10.4953
  2.209  10.4953
  2.205  10.5953
  2.201  10.5953
  2.197  10.7953
  2.193  11.0953
  2.189  11.1953
  2.185  11.4953
  2.181  11.5953
  2.177  11.6953
  2.173  11.7953
  2.169  11.8953
  2.165  12.1953
  2.161  12.1953
  2.157  12.1953
  2.153  12.2953
  2.149  12.2953
  2.145  12.2953
  2.141  12.5953
  2.137  12.3953
  2.133  12.3953
  2.129  12.5953
  2.125  12.3953
  2.121  12.3953
  2.117  12.5953
  2.113  12.5953
  2.109  12.7953
  2.105  12.8953
  2.101  12.9953
  2.097  13.2953
  2.093  13.1953
  2.089  13.1953
  2.085  13.2953
  2.081  13.3953
  2.077  13.3953
  2.073  13.2953
  2.069  13.3953
  2.065  13.2953
  2.061  13.2953
  2.057  13.1953
  2.053  13.1953
  2.049  13.3953
  2.045  13.2953
  2.041  13.3953
  2.037  13.3953
  2.033  13.3953
  2.029  13.4953
  2.025  13.3953
  2.021  13.3953
  2.017  13.1953
  2.013  13.3953
  2.009  13.3953
  2.005  13.2953
  2.001  13.3953
  1.997  13.3953
  1.993  13.3953
  1.989  13.3953
  1.985  13.3953
  1.981  13.3953
  1.977  13.3953
  1.973  13.2953
  1.969  13.2953
  1.965  13.3953
  1.961  13.3953
  1.957  13.2953
  1.953  13.1953
  1.949  13.1953
  1.945  13.2953
  1.941  13.2953
  1.937  13.3953
  1.933  13.3953
  1.929  13.2953
  1.925  13.1953
  1.921  13.1953
  1.917  12.9953
  1.913  12.9953
  1.909  13.1953
  1.905  13.1953
  1.901  13.1953
  1.897  13.2953
  1.893  13.4953
  1.889  13.7953
  1.885  13.9953
  1.881  14.2953
  1.877  14.7953
  1.873  14.5953
  1.869  14.4953
  1.865  13.9953
  1.861  13.9953
  1.857  14.2953
  1.853  14.5953
  1.849  14.7953
  1.845  14.9953
  1.841  15.1953
  1.837  15.0953
  1.833  14.9953
  1.829  14.9953
  1.825  14.9953
  1.821  14.8953
  1.817  15.0953
  1.813  14.9953
  1.809  15.0953
  1.805  15.3953
  1.801  15.0953
  1.797  15.1953
  1.793  15.1953
  1.789  15.1953
  1.785  15.1953
  1.781  15.4953
  1.777  15.4953
  1.773  15.5953
  1.769  15.5953
  1.765  15.5953
  1.761  15.5953
  1.757  15.4953
  1.753  15.4953
  1.749  15.5953
  1.745  15.6953
  1.741  15.8953
  1.737  15.9953
  1.733  16.0953
  1.729  16.0953
  1.725  15.9953
  1.721  15.8953
  1.717  15.8953
  1.713  15.8953
  1.709  15.6953
  1.705  15.9953
  1.701  15.9953
  1.697  15.9953
  1.693  15.9953
  1.689  16.0953
  1.685  16.1953
  1.681  16.0953
  1.677  16.1953
  1.673  16.2953
  1.669  16.1953
  1.665  16.2953
  1.661  16.2953
  1.657  16.4953
  1.653  16.4953
  1.649  16.5953
  1.645  16.4953
  1.641  16.4953
  1.637  16.2953
  1.633  16.2953
  1.629  16.5953
  1.625  16.5953
  1.621  16.6953
  1.617  16.5953
  1.613  16.6953
  1.609  16.7953
  1.605  16.9953
  1.601  16.9953
  1.597  17.0953
  1.593  16.7953
  1.589  16.7953
  1.585  17.0953
  1.581  17.0953
  1.577  17.0953
  1.573  17.0953
  1.569  17.1953
  1.565  17.2953
  1.561  17.1953
  1.557  17.0953
  1.553  17.1953
  1.549  17.1953
  1.545  17.1953
  1.541  17.2953
  1.537  17.1953
  1.533  17.2953
  1.529  17.2953
  1.525  17.1953
  1.521  17.3953
  1.517  17.3953
  1.513  17.5953
  1.509  17.7953
  1.505  18.0953
  1.501  18.0953
  1.497  17.6953
  1.493  17.3953
  1.489  17.5953
  1.485  17.7953
  1.481  17.7953
  1.477  17.7953
  1.473  17.6953
  1.469  17.7953
  1.465  17.6953
  1.461  17.7953
  1.457  17.8953
  1.453  18.0953
  1.449  18.0953
  1.445  18.0953
  1.441  18.0953
  1.437  17.7953
  1.433  17.6953
  1.429  17.5953
  1.425  17.5953
  1.421  17.6953
  1.417  17.6953
  1.413  17.5953
  1.409  17.3953
  1.405  17.1953
  1.401  17.0953
  1.397  17.3953
  1.393  17.6953
  1.389  17.7953
  1.385  18.1953
  1.381  18.1953
  1.377  17.8953
  1.373  17.7953
  1.369  18.4953
  1.365  18.9953
  1.361  18.8953
  1.357  18.2953
  1.353  18.1953
  1.349  18.3953
  1.345  18.8953
  1.341  19.3953
  1.337  19.4953
  1.333  19.3953
  1.329  19.4953
  1.325  19.3953
  1.321  19.4953
  1.317  19.4953
  1.313  19.5953
  1.309  19.5953
  1.305  19.5953
  1.301  19.8953
  1.297  19.8953
  1.293  19.8953
  1.289  19.9953
  1.285  20.0953
  1.281  19.9953
  1.277  19.9953
  1.273  19.8953
  1.269  19.8953
  1.265  19.8953
  1.261  19.8953
  1.257  19.8953
  1.253  19.8953
  1.249  19.8953
  1.245  19.8953
  1.241  19.8953
  1.237  19.8953
  1.233  19.9953
  1.229  19.9953
  1.225  19.9953
  1.221  19.9953
  1.217  19.8953
  1.213  19.7953
  1.209  19.8953
  1.205  19.9953
  1.201  19.8953
  1.197  19.8953
  1.193  19.7953
  1.189  19.8953
  1.185  19.9953
  1.181  19.9953
  1.177  20.0953
  1.173  20.2953
  1.169  20.3953
  1.165  20.3953
  1.161  20.4953
  1.157  20.5953
  1.153  20.4953
  1.149  20.4953
  1.145  20.6953
  1.141  20.8953
  1.137  20.5953
  1.133  20.5953
  1.129  20.6953
  1.125  20.8953
  1.121  20.8953
  1.117  20.8953
  1.113  20.8953
  1.109  20.9953
  1.105  21.1953
  1.101  21.1953
  1.097  21.3953
  1.093  21.1953
  1.089  21.0953
  1.085  21.0953
  1.081  21.1953
  1.077  21.5953
  1.073  21.5953
  1.069  21.5953
  1.065  21.5953
  1.061  21.5953
  1.057  21.5953
  1.053  21.6953
  1.049  21.7953
  1.045  21.6953
  1.041  21.6953
  1.037  21.9953
  1.033  22.0953
  1.029  22.0953
  1.025  21.9953
  1.021  22.0953
  1.017  22.0953
  1.013  22.2953
  1.009  22.2953
  1.005  22.3953
  1.001  22.2953
  0.997  22.1953
  0.993  22.1953
  0.989  22.7953
  0.985  22.6953
  0.981  22.5953
  0.977  22.3953
  0.973  22.5953
  0.969  22.5953
  0.965  22.6953
  0.961  22.7953
  0.957  22.6953
  0.953  22.6953
  0.949  22.6953
  0.945  22.6953
  0.941  22.6953
  0.937  22.5953
  0.933  22.7953
  0.929  22.6953
  0.925  22.6953
  0.921  22.6953
  0.917  22.7953
  0.913  22.6953
  0.909  22.7953
  0.905  22.6953
  0.901  22.7953
  0.897  22.7953
  0.893  22.8953
  0.889  22.8953
  0.885  22.7953
  0.881  22.7953
  0.877  23.0953
  0.873  23.0953
  0.869  23.1953
  0.865  23.1953
  0.861  23.1953
  0.857  23.1953
  0.853  23.1953
  0.849  23.1953
  0.845  23.3953
  0.841  23.2953
  0.837  23.4953
  0.833  23.4953
  0.829  23.6953
  0.825  23.7953
  0.821  23.8953
  0.817  23.9953
  0.813  23.9953
  0.809  24.2953
  0.805  24.2953
  0.804  23.9953
  0.803  23.9953
  0.802  24.1953
  0.801  24.2953
  0.800  24.2953
  0.799  23.9953
  0.798  23.9953
  0.797  23.9953
  0.796  24.1953
  0.795  24.1953
  0.794  23.9953
  0.793  23.9953
  0.792  24.1953
  0.791  24.2953
  0.790  24.1953
  0.789  24.2953
  0.788  24.2953
  0.787  24.2953
  0.786  24.3953
  0.785  24.3953
  0.784  24.2953
  0.783  23.9953
  0.782  24.1953
  0.781  24.1953
  0.780  24.1953
  0.779  24.1953
  0.778  24.1953
  0.777  24.4953
  0.776  24.3953
  0.775  24.5953
  0.774  24.3953
  0.773  24.2953
  0.772  24.2953
  0.771  24.2953
  0.770  24.2953
  0.769  24.3953
  0.768  24.2953
  0.767  24.3953
  0.766  24.2953
  0.765  24.3953
  0.764  24.3953
  0.763  24.2953
  0.762  24.1953
  0.761  24.2953
  0.760  24.2953
  0.759  24.3953
  0.758  24.4953
  0.757  24.5953
  0.756  24.7953
  0.755  24.4953
  0.754  24.3953
  0.753  24.5953
  0.752  24.5953
  0.751  24.3953
  0.750  24.2953
  0.749  24.2953
  0.748  24.2953
  0.747  24.1953
  0.746  24.2953
  0.745  24.4953
  0.744  24.5953
  0.743  24.5953
  0.742  24.5953
  0.741  24.7953
  0.740  24.3953
  0.739  24.3953
  0.738  24.3953
  0.737  24.5953
  0.736  24.5953
  0.735  24.5953
  0.734  24.5953
  0.733  24.5953
  0.732  24.4953
  0.731  24.8953
  0.730  24.5953
  0.729  24.3953
  0.728  24.2953
  0.727  24.3953
  0.726  24.4953
  0.725  24.3953
  0.724  24.3953
  0.723  24.2953
  0.722  24.4953
  0.721  24.4953
  0.720  24.5953
  0.719  24.5953
  0.718  24.5953
  0.717  24.5953
  0.716  24.4953
  0.715  24.4953
  0.714  24.8953
  0.713  24.9953
  0.712  24.7953
  0.711  24.4953
  0.710  24.2953
  0.709  24.3953
  0.708  24.2953
  0.707  24.3953
  0.706  24.2953
  0.705  23.9953
  0.704  24.2953
  0.703  23.9953
  0.702  23.9953
  0.701  24.1953
  0.700  23.9953
  0.699  24.1953
  0.698  23.9953
  0.697  23.9953
  0.696  23.8953
  0.695  23.9953
  0.694  23.9953
  0.693  24.1953
  0.692  24.2953
  0.691  24.3953
  0.690  24.2953
  0.689  23.9953
  0.688  24.1953
  0.687  23.9953
  0.686  23.9953
  0.685  23.9953
  0.684  23.9953
  0.683  23.9953
  0.682  23.8953
  0.681  23.9953
  0.680  23.9953
  0.679  23.8953
  0.678  23.7953
  0.677  23.9953
  0.676  23.9953
  0.675  24.1953
  0.674  24.2953
  0.673  24.1953
  0.672  24.1953
  0.671  24.1953
  0.670  23.9953
  0.669  24.1953
  0.668  24.3953
  0.667  24.2953
  0.666  24.2953
  0.665  24.2953
  0.664  24.1953
  0.663  23.8953
  0.662  23.7953
  0.661  23.6953
  0.660  23.7953
  0.659  23.9953
  0.658  24.1953
  0.657  24.1953
  0.656  23.9953
  0.655  24.1953
  0.654  23.9953
  0.653  23.9953
  0.652  23.7953
  0.651  23.8953
  0.650  23.7953
  0.649  23.9953
  0.648  23.8953
  0.647  23.7953
  0.646  23.9953
  0.645  24.2953
  0.644  24.1953
  0.643  24.1953
  0.642  23.8953
  0.641  23.7953
  0.640  23.7953
  0.639  23.7953
  0.638  23.7953
  0.637  23.9953
  0.636  24.1953
  0.635  23.9953
  0.634  23.8953
  0.633  23.8953
  0.632  23.7953
  0.631  23.7953
  0.630  23.7953
  0.629  23.7953
  0.628  23.4953
  0.627  23.7953
  0.626  23.8953
  0.625  23.8953
  0.624  23.9953
  0.623  23.8953
  0.622  23.8953
  0.621  23.9953
  0.620  23.7953
  0.619  23.8953
  0.618  23.7953
  0.617  23.8953
  0.616  23.7953
  0.615  23.7953
  0.614  23.7953
  0.613  23.7953
  0.612  23.4953
  0.611  23.7953
  0.610  23.4953
  0.609  23.4953
  0.608  23.4953
  0.607  23.4953
  0.606  23.2953
  0.605  23.2953
  0.604  23.1953
  0.603  23.3953
  0.602  23.2953
  0.601  23.2953
  0.600  23.1953
  0.599  23.1953
  0.598  23.1953
  0.597  22.8953
  0.596  23.0953
  0.595  22.8953
  0.594  22.8953
  0.593  22.8953
  0.592  22.7953
  0.591  22.3953
  0.590  22.3953
  0.589  22.2953
  0.588  22.5953
  0.587  22.3953
  0.586  21.9953
  0.585  21.9953
  0.584  21.9953
  0.583  21.5953
  0.582  21.6953
  0.581  21.4953
  0.580  21.1953
  0.579  21.1953
  0.578  21.0953
  0.577  21.0953
  0.576  20.9953
  0.575  20.6953
  0.574  20.6953
  0.573  20.4953
  0.572  20.4953
  0.571  20.2953
  0.570  20.0953
  0.569  19.8953
  0.568  19.8953
  0.567  19.7953
  0.566  19.4953
  0.565  19.2953
  0.564  19.1953
  0.563  19.2953
  0.562  19.2953
  0.561  19.2953
  0.560  18.9953
  0.559  18.8953
  0.558  18.8953
  0.557  18.7953
  0.556  18.3953
  0.555  18.1953
  0.554  18.0953
  0.553  18.0953
  0.552  17.6953
  0.551  17.7953
  0.550  17.6953
  0.549  17.5953
  0.548  17.1953
  0.547  17.1953
  0.546  17.0953
  0.545  16.9953
  0.544  17.0953
  0.543  17.0953
  0.542  16.9953
  0.541  16.9953
  0.540  16.6953
  0.539  16.6953
  0.538  16.5953
  0.537  16.6953
  0.536  16.4953
  0.535  16.2953
  0.534  16.1953
  0.533  16.1953
  0.532  16.0953
  0.531  16.0953
  0.530  15.9953
  0.529  15.9953
  0.528  15.8953
  0.527  15.8953
  0.526  15.8953
  0.525  15.8953
  0.524  16.0953
  0.523  15.9953
  0.522  15.9953
  0.521  15.8953
  0.520  15.8953
  0.519  15.5953
  0.518  15.6953
  0.517  15.4953
  0.516  15.3953
  0.515  15.4953
  0.514  15.3953
  0.513  15.3953
  0.512  15.3953
  0.511  15.0953
  0.510  15.0953
  0.509  15.1953
  0.508  15.4953
  0.507  15.1953
  0.506  15.3953
  0.505  15.1953
  0.504  15.0953
  0.503  15.1953
  0.502  14.8953
  0.501  14.9953
  0.500  14.9953
  0.499  14.5953
  0.498  14.7953
  0.497  14.8953
  0.496  15.0953
  0.495  14.9953
  0.494  14.9953
  0.493  15.0953
  0.492  15.0953
  0.491  14.7953
  0.490  14.8953
  0.489  14.7953
  0.488  14.4953
  0.487  14.4953
  0.486  14.7953
  0.485  14.8953
  0.484  14.4953
  0.483  14.5953
  0.482  14.7953
  0.481  14.7953
  0.480  14.7953
  0.479  14.7953
  0.478  14.8953
  0.477  14.7953
  0.476  14.8953
  0.475  14.7953
  0.474  14.5953
  0.473  14.9953
  0.472  14.8953
  0.471  15.0953
  0.470  14.8953
  0.469  14.8953
  0.468  14.7953
  0.467  14.9953
  0.466  14.9953
  0.465  14.8953
  0.464  14.5953
  0.463  15.4953
  0.462  15.1953
  0.461  14.9953
  0.460  15.0953
  0.459  14.9953
  0.458  14.7953
  0.457  14.9953
  0.456  15.0953
  0.455  15.1953
  0.454  14.9953
  0.453  14.9953
  0.452  15.0953
  0.451  14.9953
  0.450  14.9953
  0.449  15.0953
  0.448  15.0953
  0.447  14.8953
  0.446  14.8953
  0.445  14.9953
  0.444  15.0953
  0.443  15.1953
  0.442  15.0953
  0.441  14.9953
  0.440  15.0953
  0.439  14.9953
  0.438  14.8953
  0.437  14.5953
  0.436  14.4953
  0.435  14.7953
  0.434  14.5953
  0.433  14.8953
  0.432  14.5953
  0.431  14.7953
  0.430  14.8953
  0.429  14.7953
  0.428  14.7953
  0.427  14.8953
  0.426  14.8953
  0.425  14.8953
  0.424  14.7953
  0.423  14.4953
  0.422  14.7953
  0.421  14.8953
  0.420  14.9953
  0.419  14.7953
  0.418  14.8953
  0.417  14.5953
  0.416  14.5953
  0.415  14.7953
  0.414  14.7953
  0.413  14.9953
  0.412  14.8953
  0.411  14.7953
  0.410  14.7953
  0.409  14.7953
  0.408  14.8953
  0.407  14.8953
  0.406  14.5953
  0.405  14.7953
