Name: Rhyolite
Type: Rock
Class: Igneous
Subclass: Felsic
Particle Size: Whole Rock Chips
Sample No.: AP-981-175
Owner: United States Geological Survey, L. C. Rowan
Wavelength range: 0.405 - 14.05 um
Origin: Iberian Pyrite Belt, Spain

Description: Rhyolite, paragonitic altered





Measurement: Directional Hemispherical Reflectance
First Column: X
Second Column: Y
X Units: Wavelength (micrometers)
Y Units: Reflectance (percent)
First X Value: 14.05105
Last X Value: 0.40500
Number of X Values: 2530
Additional Information: rhy175a.txt

 14.051   2.8325
 14.013   2.7192
 13.975   2.8119
 13.938   2.8119
 13.900   2.8737
 13.863   2.7707
 13.826   2.9046
 13.790   3.0900
 13.753   3.1518
 13.717   2.9458
 13.680   2.9973
 13.644   3.0591
 13.609   3.1724
 13.573   3.2857
 13.538   3.4402
 13.502   3.4402
 13.467   3.5020
 13.432   3.5432
 13.398   3.5432
 13.363   3.3990
 13.329   3.4814
 13.295   3.5947
 13.261   3.5329
 13.227   3.4299
 13.193   3.4814
 13.160   3.4814
 13.126   3.4814
 13.093   3.4711
 13.060   3.5020
 13.027   3.4299
 12.995   3.3990
 12.962   3.3166
 12.930   3.3887
 12.898   3.4196
 12.866   3.6256
 12.834   3.6565
 12.802   3.6668
 12.771   3.5432
 12.739   3.4608
 12.708   3.4299
 12.677   3.4505
 12.646   3.4299
 12.616   3.5638
 12.585   3.6153
 12.554   3.6668
 12.524   3.7286
 12.494   3.8316
 12.464   3.5741
 12.434   3.3784
 12.404   3.1312
 12.375   2.9252
 12.345   2.7810
 12.316   2.8016
 12.287   2.6883
 12.258   2.6471
 12.229   2.6883
 12.200   2.9046
 12.171   2.9252
 12.143   2.9870
 12.115   2.9767
 12.086   2.9973
 12.058   2.9870
 12.030   2.9973
 12.002   3.0591
 11.975   3.1724
 11.947   3.1518
 11.920   3.2136
 11.892   3.2239
 11.865   3.3578
 11.838   3.4505
 11.811   3.5123
 11.784   3.5638
 11.757   3.6771
 11.731   3.7595
 11.704   3.9037
 11.678   3.9758
 11.652   4.0891
 11.626   4.1406
 11.600   4.2024
 11.574   4.2436
 11.548   4.3672
 11.522   4.3981
 11.497   4.5320
 11.471   4.6453
 11.446   4.6659
 11.421   4.6556
 11.396   4.7174
 11.371   4.7277
 11.346   4.8822
 11.321   4.9337
 11.297   4.9440
 11.272   4.9955
 11.248   5.1397
 11.223   5.1912
 11.199   5.3354
 11.175   5.3972
 11.151   5.4899
 11.127   5.5414
 11.103   5.7165
 11.079   5.7989
 11.056   5.9019
 11.032   6.0049
 11.009   6.1079
 10.985   6.1285
 10.962   6.2212
 10.939   6.1697
 10.916   6.1697
 10.893   6.1182
 10.870   6.0461
 10.848   5.9740
 10.825   6.0667
 10.802   6.1388
 10.780   6.1182
 10.758   6.0152
 10.735   6.0358
 10.713   6.0976
 10.691   6.1182
 10.669   5.9534
 10.647   5.8195
 10.625   5.6959
 10.604   5.7268
 10.582   5.7165
 10.560   5.7474
 10.539   5.7886
 10.518   5.8195
 10.496   5.8092
 10.475   5.9843
 10.454   6.1491
 10.433   6.3036
 10.412   6.4375
 10.391   6.6538
 10.370   6.8598
 10.350   7.1173
 10.329   7.3954
 10.309   7.7353
 10.288   8.0134
 10.268   8.2606
 10.247   8.5284
 10.227   8.8889
 10.207   9.1155
 10.187   9.4142
 10.167   9.6408
 10.147  10.0116
 10.127  10.2897
 10.108  10.4339
 10.088  10.5266
 10.068  10.6296
 10.049  10.6296
 10.029  10.7223
 10.010  10.8562
  9.991  11.1137
  9.972  11.2785
  9.952  11.3815
  9.933  11.5154
  9.914  11.7317
  9.895  11.8656
  9.877  12.0922
  9.858  12.2261
  9.839  12.2776
  9.821  12.4218
  9.802  12.6999
  9.783  12.9059
  9.765  13.1119
  9.747  13.2973
  9.728  13.5857
  9.710  13.8226
  9.692  14.1831
  9.674  14.5642
  9.656  14.9762
  9.638  15.2646
  9.620  15.5736
  9.602  15.7590
  9.585  15.8208
  9.567  15.7796
  9.549  15.6354
  9.532  15.2234
  9.514  14.6878
  9.497  14.1728
  9.479  13.8535
  9.462  13.6681
  9.445  13.5548
  9.428  13.5651
  9.411  13.9977
  9.394  14.4509
  9.377  14.9453
  9.360  15.5015
  9.343  16.1298
  9.326  16.6036
  9.309  16.9847
  9.293  17.3761
  9.276  17.7469
  9.259  17.9529
  9.243  18.1898
  9.226  18.3649
  9.210  18.4988
  9.194  18.4782
  9.178  18.5709
  9.161  18.6430
  9.145  18.6121
  9.129  18.5297
  9.113  18.4473
  9.097  18.3134
  9.081  18.1898
  9.065  18.0147
  9.049  17.9323
  9.034  17.7778
  9.018  17.5615
  9.002  17.3967
  8.987  17.2525
  8.971  17.0053
  8.956  16.9229
  8.940  16.7993
  8.925  16.7375
  8.909  16.7581
  8.894  16.7375
  8.879  16.6345
  8.864  16.5418
  8.849  16.3255
  8.834  16.1401
  8.819  15.9650
  8.804  15.6972
  8.789  15.3470
  8.774  15.0895
  8.759  14.7084
  8.744  14.2655
  8.730  13.7917
  8.715  13.3591
  8.700  12.7926
  8.686  12.2261
  8.671  11.7111
  8.657  11.0622
  8.642  10.1764
  8.628   9.4657
  8.614   9.2391
  8.599   9.5481
  8.585  10.0219
  8.571  10.4648
  8.557  10.7120
  8.543  10.7944
  8.529  10.7223
  8.515  10.5884
  8.501  10.3412
  8.487  10.1146
  8.473   9.9086
  8.459   9.6717
  8.445   9.3524
  8.431   9.1876
  8.418   9.0228
  8.404   8.8168
  8.391   8.5593
  8.377   8.3533
  8.363   8.2091
  8.350   8.0752
  8.337   7.9516
  8.323   7.9001
  8.310   7.8898
  8.297   7.8795
  8.283   7.8898
  8.270   7.9516
  8.257   7.9722
  8.244   8.0546
  8.231   8.1267
  8.218   8.2503
  8.205   8.2503
  8.192   8.2709
  8.179   8.2400
  8.166   8.2503
  8.153   8.1576
  8.140   8.0134
  8.128   7.8074
  8.115   7.4984
  8.102   7.1379
  8.090   6.8701
  8.077   6.5714
  8.064   6.2418
  8.052   6.0049
  8.039   5.8195
  8.027   5.5826
  8.015   5.4384
  8.002   5.3354
  7.990   5.1603
  7.978   4.9337
  7.965   4.7895
  7.953   4.6865
  7.941   4.6350
  7.929   4.4187
  7.917   4.1612
  7.905   4.0170
  7.893   3.9346
  7.881   3.8213
  7.869   3.7801
  7.857   3.6462
  7.845   3.5020
  7.833   3.4402
  7.821   3.4814
  7.809   3.4711
  7.798   3.4093
  7.786   3.3681
  7.774   3.3784
  7.763   3.3269
  7.751   3.3887
  7.739   3.3372
  7.728   3.3372
  7.716   3.3166
  7.705   3.2754
  7.694   3.2342
  7.682   3.2651
  7.671   3.2548
  7.659   3.2445
  7.648   3.1724
  7.637   3.1415
  7.626   3.1312
  7.614   3.1209
  7.603   3.0694
  7.592   3.0488
  7.581   3.0488
  7.570   3.0591
  7.559   3.0488
  7.548   3.0488
  7.537   2.9664
  7.526   2.9252
  7.515   2.9149
  7.504   2.9149
  7.493   2.8840
  7.483   2.9252
  7.472   2.9252
  7.461   2.8840
  7.450   2.7913
  7.440   2.7707
  7.429   2.7501
  7.418   2.7810
  7.408   2.7604
  7.397   2.7810
  7.387   2.7604
  7.376   2.7089
  7.366   2.6265
  7.355   2.6162
  7.345   2.5544
  7.334   2.5853
  7.324   2.6059
  7.314   2.6059
  7.303   2.5441
  7.293   2.5029
  7.283   2.4926
  7.273   2.4823
  7.263   2.4823
  7.252   2.5338
  7.242   2.5441
  7.232   2.5338
  7.222   2.5441
  7.212   2.5338
  7.202   2.4411
  7.192   2.4205
  7.182   2.3793
  7.172   2.3381
  7.162   2.2454
  7.152   2.2351
  7.143   2.1733
  7.133   2.0806
  7.123   2.0600
  7.113   2.1218
  7.103   2.1218
  7.094   2.0188
  7.084   1.9673
  7.074   1.9879
  7.065   1.9158
  7.055   1.9055
  7.046   1.9467
  7.036   1.9158
  7.026   1.8849
  7.017   1.9261
  7.007   1.8849
  6.998   1.9055
  6.989   1.8952
  6.979   1.8025
  6.970   1.7613
  6.960   1.8025
  6.951   1.8334
  6.942   1.8849
  6.932   1.9055
  6.923   1.9261
  6.914   1.8643
  6.905   1.8746
  6.896   1.9570
  6.886   2.0085
  6.877   2.0188
  6.868   2.0188
  6.859   1.9982
  6.850   2.0497
  6.841   2.0394
  6.832   2.0703
  6.823   2.0497
  6.814   2.0806
  6.805   2.1630
  6.796   2.2248
  6.787   2.1836
  6.778   2.2042
  6.770   2.2557
  6.761   2.2866
  6.752   2.2557
  6.743   2.2660
  6.734   2.2660
  6.726   2.2969
  6.717   2.3072
  6.708   2.3690
  6.700   2.3896
  6.691   2.3587
  6.682   2.3381
  6.674   2.3793
  6.665   2.4411
  6.657   2.5029
  6.648   2.4411
  6.640   2.4102
  6.631   2.4102
  6.623   2.4617
  6.614   2.5029
  6.606   2.5235
  6.597   2.4926
  6.589   2.4308
  6.581   2.3896
  6.572   2.3999
  6.564   2.3793
  6.556   2.4205
  6.547   2.4514
  6.539   2.4514
  6.531   2.4411
  6.523   2.4926
  6.514   2.5441
  6.506   2.5853
  6.498   2.6162
  6.490   2.6986
  6.482   2.7295
  6.474   2.7604
  6.466   2.7604
  6.458   2.7810
  6.450   2.7810
  6.442   2.7913
  6.434   2.8325
  6.426   2.8943
  6.418   2.8840
  6.410   2.8943
  6.402   2.8531
  6.394   2.8119
  6.386   2.7913
  6.378   2.8016
  6.370   2.7501
  6.363   2.6986
  6.355   2.6471
  6.347   2.6471
  6.339   2.6471
  6.332   2.6677
  6.324   2.6471
  6.316   2.5750
  6.308   2.5750
  6.301   2.5956
  6.293   2.5441
  6.286   2.4514
  6.278   2.3793
  6.270   2.3999
  6.263   2.4102
  6.255   2.3793
  6.248   2.3484
  6.240   2.3999
  6.233   2.3896
  6.225   2.2969
  6.218   2.2763
  6.210   2.2763
  6.203   2.2660
  6.195   2.2660
  6.188   2.2969
  6.181   2.3175
  6.173   2.2969
  6.166   2.2866
  6.159   2.3278
  6.151   2.3999
  6.144   2.3999
  6.137   2.4411
  6.130   2.4823
  6.122   2.4720
  6.115   2.5029
  6.108   2.5441
  6.101   2.5853
  6.094   2.5853
  6.086   2.5338
  6.079   2.5544
  6.072   2.5441
  6.065   2.5956
  6.058   2.6471
  6.051   2.6059
  6.044   2.5647
  6.037   2.6265
  6.030   2.6471
  6.023   2.6162
  6.016   2.5853
  6.009   2.5853
  6.002   2.5544
  5.995   2.5647
  5.988   2.5956
  5.981   2.6059
  5.974   2.5338
  5.967   2.4926
  5.960   2.5029
  5.954   2.5029
  5.947   2.4823
  5.940   2.4926
  5.933   2.5029
  5.926   2.5338
  5.920   2.5647
  5.913   2.5441
  5.906   2.5338
  5.899   2.5544
  5.893   2.5956
  5.886   2.6471
  5.879   2.6574
  5.873   2.6368
  5.866   2.6883
  5.859   2.7398
  5.853   2.7604
  5.846   2.8016
  5.840   2.8428
  5.833   2.8943
  5.827   2.9149
  5.820   2.9252
  5.813   2.9252
  5.807   2.9561
  5.800   2.9561
  5.794   2.9664
  5.788   2.9870
  5.781   2.9870
  5.775   2.9458
  5.768   2.9767
  5.762   3.0179
  5.755   3.0797
  5.749   3.1003
  5.743   3.1003
  5.736   3.0694
  5.730   3.0591
  5.724   3.1003
  5.717   3.1003
  5.711   3.1106
  5.705   3.0900
  5.698   3.0488
  5.692   3.0488
  5.686   3.0694
  5.680   3.0591
  5.674   3.0385
  5.667   3.0179
  5.661   2.9870
  5.655   2.9561
  5.649   2.9046
  5.643   2.9149
  5.637   2.8943
  5.630   2.8531
  5.624   2.8531
  5.618   2.8737
  5.612   2.8428
  5.606   2.8428
  5.600   2.8634
  5.594   2.8531
  5.588   2.8016
  5.582   2.8222
  5.576   2.8428
  5.570   2.8428
  5.564   2.8016
  5.558   2.8119
  5.552   2.8325
  5.546   2.8222
  5.540   2.8222
  5.534   2.8325
  5.528   2.8428
  5.523   2.9355
  5.517   2.9149
  5.511   2.9046
  5.505   2.9355
  5.499   2.9046
  5.493   2.9046
  5.487   2.9767
  5.482   3.0282
  5.476   3.0282
  5.470   2.9973
  5.464   3.0282
  5.459   3.0179
  5.453   3.0076
  5.447   3.0385
  5.441   3.0694
  5.436   3.1003
  5.430   3.1209
  5.424   3.0694
  5.419   3.0179
  5.413   2.9458
  5.407   2.8840
  5.402   2.8531
  5.396   2.8840
  5.390   2.8531
  5.385   2.8428
  5.379   2.8222
  5.374   2.8016
  5.368   2.7604
  5.363   2.7398
  5.357   2.7707
  5.352   2.8016
  5.346   2.7707
  5.341   2.7501
  5.335   2.7913
  5.330   2.8222
  5.324   2.8119
  5.319   2.7913
  5.313   2.8016
  5.308   2.8737
  5.302   2.8634
  5.297   2.8634
  5.291   2.8737
  5.286   2.8943
  5.281   2.9561
  5.275   3.0179
  5.270   3.0385
  5.265   3.0900
  5.259   3.1415
  5.254   3.1930
  5.249   3.2548
  5.243   3.3063
  5.238   3.3784
  5.233   3.4711
  5.227   3.5020
  5.222   3.5226
  5.217   3.5844
  5.212   3.6462
  5.206   3.7389
  5.201   3.8419
  5.196   3.8213
  5.191   3.8213
  5.186   3.8419
  5.180   3.8625
  5.175   3.8625
  5.170   3.8213
  5.165   3.8213
  5.160   3.8831
  5.155   3.8831
  5.150   3.8831
  5.145   3.9037
  5.139   3.8625
  5.134   3.8110
  5.129   3.8625
  5.124   3.9758
  5.119   4.0479
  5.114   4.0479
  5.109   4.0376
  5.104   4.0273
  5.099   4.0376
  5.094   3.9964
  5.089   3.9964
  5.084   3.9861
  5.079   3.9552
  5.074   3.9243
  5.069   3.9243
  5.064   3.9243
  5.059   3.9449
  5.054   3.9758
  5.049   3.9861
  5.044   4.0067
  5.040   4.0067
  5.035   3.9346
  5.030   3.9243
  5.025   3.9449
  5.020   3.9655
  5.015   3.9861
  5.010   3.9552
  5.005   3.9758
  5.001   4.0067
  4.996   4.0479
  4.991   4.1097
  4.986   4.1097
  4.981   4.1818
  4.977   4.2127
  4.972   4.2436
  4.967   4.3054
  4.962   4.3466
  4.958   4.3981
  4.953   4.5011
  4.948   4.5526
  4.943   4.5732
  4.939   4.6041
  4.934   4.6659
  4.929   4.7277
  4.925   4.7792
  4.920   4.7895
  4.915   4.8204
  4.911   4.8616
  4.906   4.9440
  4.901   5.0882
  4.897   5.2221
  4.892   5.3251
  4.888   5.4693
  4.883   5.6135
  4.878   5.7783
  4.874   5.8504
  4.869   5.8813
  4.865   5.9843
  4.860   6.0152
  4.856   6.0255
  4.851   6.0255
  4.846   6.0667
  4.842   6.1903
  4.837   6.3036
  4.833   6.3551
  4.828   6.3860
  4.824   6.4581
  4.819   6.4890
  4.815   6.4581
  4.810   6.4993
  4.806   6.5817
  4.802   6.5714
  4.797   6.5817
  4.793   6.6435
  4.788   6.6950
  4.784   6.7568
  4.779   6.7980
  4.775   6.8495
  4.771   6.8804
  4.766   6.9010
  4.762   6.9422
  4.758   6.9834
  4.753   7.0246
  4.749   7.0555
  4.744   7.1173
  4.740   7.1482
  4.736   7.1997
  4.731   7.2615
  4.727   7.2512
  4.723   7.3130
  4.719   7.3954
  4.714   7.3851
  4.710   7.3748
  4.706   7.3748
  4.701   7.3542
  4.697   7.3954
  4.693   7.4263
  4.689   7.4572
  4.684   7.4881
  4.680   7.5293
  4.676   7.5602
  4.672   7.5911
  4.668   7.6838
  4.663   7.7971
  4.659   7.8383
  4.655   7.9722
  4.651   8.0752
  4.647   8.1164
  4.643   8.1679
  4.638   8.2606
  4.634   8.3224
  4.630   8.3842
  4.626   8.4975
  4.622   8.6314
  4.618   8.6932
  4.614   8.7962
  4.610   8.9198
  4.605   8.9404
  4.601   8.9919
  4.597   9.0537
  4.593   9.1052
  4.589   9.1773
  4.585   9.2494
  4.581   9.3009
  4.577   9.2906
  4.573   9.2906
  4.569   9.3730
  4.565   9.5069
  4.561   9.5172
  4.557   9.5069
  4.553   9.5584
  4.549   9.6305
  4.545   9.6202
  4.541   9.5996
  4.537   9.6614
  4.533   9.6923
  4.529   9.6305
  4.525   9.5790
  4.521   9.5378
  4.517   9.4657
  4.513   9.4760
  4.509   9.4760
  4.505   9.4554
  4.502   9.4245
  4.498   9.3009
  4.494   9.2803
  4.490   9.3215
  4.486   9.2906
  4.482   9.2700
  4.478   9.2391
  4.474   9.2082
  4.470   9.2288
  4.467   9.3009
  4.463   9.3730
  4.459   9.4657
  4.455   9.5996
  4.451   9.6820
  4.447   9.7541
  4.444   9.8571
  4.440   9.9189
  4.436   9.9395
  4.432  10.0219
  4.428  10.0940
  4.425  10.1867
  4.421  10.2588
  4.417  10.3000
  4.413  10.3000
  4.410  10.3618
  4.406  10.4957
  4.402  10.5987
  4.398  10.7120
  4.395  10.8047
  4.391  10.8665
  4.387  11.0107
  4.384  11.1446
  4.380  11.1755
  4.376  11.1652
  4.372  11.2476
  4.369  11.3712
  4.365  11.4742
  4.361  11.5566
  4.358  11.5669
  4.354  11.5875
  4.350  11.5875
  4.347  11.5772
  4.343  11.6081
  4.340  11.7111
  4.336  11.7832
  4.332  11.8656
  4.329  11.8553
  4.325  11.7935
  4.321  11.8141
  4.318  11.7729
  4.314  11.7317
  4.311  11.7523
  4.307  11.8347
  4.304  11.8141
  4.300  11.8347
  4.296  11.8244
  4.293  11.7935
  4.289  11.8141
  4.286  11.8965
  4.282  11.8656
  4.279  11.8965
  4.275  11.9171
  4.272  11.9583
  4.268  11.9377
  4.265  11.9480
  4.261  12.0098
  4.258  12.0716
  4.254  12.1334
  4.251  12.1746
  4.247  12.1746
  4.244  12.2055
  4.240  12.2570
  4.237  12.2879
  4.233  12.2158
  4.230  12.1643
  4.226  12.2364
  4.223  12.2570
  4.219  12.1746
  4.216  12.1952
  4.213  12.1849
  4.209  12.2158
  4.206  12.2055
  4.202  12.1643
  4.199  12.1849
  4.196  12.1746
  4.192  12.1849
  4.189  12.2673
  4.185  12.2467
  4.182  12.2467
  4.179  12.2570
  4.175  12.2261
  4.172  12.2261
  4.169  12.2982
  4.165  12.3394
  4.162  12.4115
  4.159  12.4012
  4.155  12.3497
  4.152  12.3806
  4.149  12.4321
  4.145  12.5042
  4.142  12.5557
  4.139  12.5248
  4.135  12.5351
  4.132  12.6175
  4.129  12.6484
  4.126  12.5969
  4.122  12.6278
  4.119  12.6896
  4.116  12.7308
  4.112  12.7308
  4.109  12.7102
  4.106  12.7205
  4.103  12.8029
  4.099  12.8338
  4.096  12.8029
  4.093  12.8544
  4.090  12.9265
  4.086  12.9986
  4.083  13.0707
  4.080  13.0604
  4.077  13.0295
  4.074  12.9780
  4.070  12.9883
  4.067  13.0192
  4.064  13.1016
  4.061  13.1016
  4.058  13.0501
  4.055  13.1016
  4.051  13.2046
  4.048  13.1737
  4.045  13.0913
  4.042  13.0810
  4.039  13.2252
  4.036  13.2458
  4.032  13.1840
  4.029  13.1325
  4.026  13.0913
  4.023  13.1016
  4.020  13.1737
  4.017  13.1222
  4.014  13.0707
  4.011  13.1119
  4.008  13.1531
  4.004  13.1737
  4.001  13.1840
  3.998  13.1840
  3.995  13.1840
  3.992  13.1531
  3.989  13.0707
  3.986  13.0707
  3.983  13.1634
  3.980  13.1325
  3.977  13.0913
  3.974  13.0604
  3.971  13.1119
  3.968  13.0913
  3.965  13.0501
  3.962  13.0707
  3.959  13.1016
  3.956  13.1531
  3.953  13.1325
  3.950  13.1428
  3.947  13.0501
  3.944  12.9780
  3.941  13.0089
  3.938  13.0604
  3.935  13.0604
  3.932  12.9986
  3.929  12.9986
  3.926  12.9677
  3.923  13.0089
  3.920  13.0501
  3.917  13.0810
  3.914  13.0810
  3.911  12.9883
  3.908  12.8441
  3.905  12.7617
  3.902  12.7514
  3.899  12.8750
  3.896  12.7823
  3.893  12.7308
  3.890  12.8235
  3.887  12.8647
  3.884  12.7926
  3.882  12.7411
  3.879  12.6896
  3.876  12.6278
  3.873  12.5042
  3.870  12.6175
  3.867  12.6587
  3.864  12.5969
  3.861  12.5042
  3.858  12.4424
  3.856  12.4218
  3.853  12.4424
  3.850  12.4733
  3.847  12.5042
  3.844  12.3703
  3.841  12.2364
  3.838  12.2982
  3.836  12.3806
  3.833  12.3394
  3.830  12.2261
  3.827  12.1849
  3.824  12.1334
  3.822  12.0098
  3.819  12.0613
  3.816  12.0716
  3.813  12.0407
  3.810  12.0510
  3.807  12.0922
  3.805  12.0098
  3.802  11.8553
  3.799  11.8038
  3.796  11.8450
  3.794  11.7214
  3.791  11.6493
  3.788  11.6802
  3.785  11.7832
  3.782  11.8347
  3.780  11.7626
  3.777  11.6699
  3.774  11.5669
  3.771  11.5154
  3.769  11.5257
  3.766  11.4639
  3.763  11.3609
  3.761  11.2785
  3.758  11.2888
  3.755  11.1858
  3.752  11.1343
  3.750  11.1240
  3.747  11.0210
  3.744  10.8459
  3.742  10.7635
  3.739  10.7429
  3.736  10.8047
  3.733  10.7944
  3.731  10.7017
  3.728  10.6914
  3.725  10.7326
  3.723  10.5678
  3.720  10.4751
  3.717  10.4648
  3.715  10.4957
  3.712  10.4854
  3.709  10.4133
  3.707  10.3618
  3.704  10.3000
  3.702  10.2176
  3.699  10.1970
  3.696  10.2176
  3.694  10.2176
  3.691  10.1146
  3.688  10.0837
  3.686  10.0940
  3.683  10.0425
  3.680   9.9910
  3.678   9.8571
  3.675   9.7644
  3.673   9.8365
  3.670   9.8983
  3.667   9.8674
  3.665   9.8056
  3.662   9.7953
  3.660   9.7541
  3.657   9.7541
  3.655   9.6614
  3.652   9.6202
  3.649   9.5172
  3.647   9.3524
  3.644   9.2803
  3.642   9.3009
  3.639   9.1773
  3.637   9.1052
  3.634   9.0846
  3.632   9.0022
  3.629   9.0022
  3.626   9.0846
  3.624   8.9816
  3.621   8.8683
  3.619   8.7550
  3.616   8.7344
  3.614   8.7653
  3.611   8.7447
  3.609   8.5799
  3.606   8.4254
  3.604   8.4151
  3.601   8.4666
  3.599   8.3842
  3.596   8.2812
  3.594   8.2194
  3.591   8.0855
  3.589   7.9413
  3.586   7.9516
  3.584   7.9413
  3.581   7.9310
  3.579   7.8589
  3.576   7.7353
  3.574   7.6323
  3.571   7.6220
  3.569   7.6014
  3.567   7.5190
  3.564   7.3748
  3.562   7.4160
  3.559   7.3130
  3.557   7.2409
  3.554   7.1688
  3.552   7.1585
  3.549   7.1791
  3.547   7.1791
  3.545   7.2100
  3.542   7.1997
  3.540   7.0967
  3.537   7.1070
  3.535   7.0761
  3.533   7.0040
  3.530   7.0143
  3.528   7.1482
  3.525   7.2306
  3.523   7.1997
  3.521   7.0658
  3.518   7.0143
  3.516   7.0349
  3.513   7.0658
  3.511   7.0967
  3.509   7.0658
  3.506   6.9113
  3.504   6.8598
  3.502   6.9834
  3.499   7.0658
  3.497   7.0246
  3.494   6.9834
  3.492   6.9216
  3.490   6.9113
  3.487   6.8598
  3.485   6.7774
  3.483   6.7568
  3.480   6.8701
  3.478   6.9216
  3.476   6.8598
  3.473   6.7774
  3.471   6.7774
  3.469   6.7877
  3.466   6.7259
  3.464   6.7053
  3.462   6.7156
  3.460   6.6538
  3.457   6.6435
  3.455   6.5714
  3.453   6.4581
  3.450   6.4478
  3.448   6.4684
  3.446   6.5405
  3.443   6.4787
  3.441   6.4066
  3.439   6.4066
  3.437   6.3345
  3.434   6.2933
  3.432   6.2315
  3.430   6.2830
  3.428   6.3036
  3.425   6.2109
  3.423   6.0770
  3.421   6.1285
  3.418   6.1491
  3.416   6.1491
  3.414   6.1079
  3.412   6.0255
  3.409   5.9740
  3.407   5.9328
  3.405   5.8916
  3.403   6.0049
  3.401   5.9534
  3.398   5.8401
  3.396   5.7989
  3.394   5.7577
  3.392   5.6650
  3.389   5.6032
  3.387   5.6238
  3.385   5.6650
  3.383   5.6856
  3.381   5.6238
  3.378   5.4590
  3.376   5.3869
  3.374   5.3663
  3.372   5.4384
  3.370   5.4075
  3.367   5.4178
  3.365   5.5002
  3.363   5.5414
  3.361   5.3354
  3.359   5.1706
  3.357   5.1809
  3.354   5.2530
  3.352   5.3148
  3.350   5.3560
  3.348   5.3354
  3.346   5.2942
  3.344   5.2118
  3.341   5.0985
  3.339   5.0676
  3.337   5.1809
  3.335   5.0882
  3.333   5.0573
  3.331   5.0058
  3.329   4.9543
  3.326   4.9646
  3.324   5.0573
  3.322   5.0367
  3.320   4.9852
  3.318   4.8616
  3.316   4.8307
  3.314   4.8719
  3.312   4.8925
  3.309   4.9131
  3.307   4.9440
  3.305   4.9337
  3.303   4.9440
  3.301   4.8925
  3.299   4.8616
  3.297   4.7689
  3.295   4.7586
  3.293   4.7998
  3.291   4.8204
  3.288   4.8307
  3.286   4.8925
  3.284   4.8101
  3.282   4.8204
  3.280   4.8204
  3.278   4.8410
  3.276   4.7792
  3.274   4.7483
  3.272   4.7895
  3.270   4.8204
  3.268   4.8925
  3.266   4.8719
  3.264   4.7998
  3.262   4.8513
  3.259   4.8513
  3.257   4.8410
  3.255   4.8925
  3.253   4.8925
  3.251   4.8719
  3.249   4.9646
  3.247   4.9955
  3.245   5.0470
  3.243   4.9234
  3.241   4.8513
  3.239   4.8822
  3.237   4.8513
  3.235   4.8513
  3.233   4.8925
  3.231   4.9028
  3.229   4.9646
  3.227   4.9852
  3.225   4.9131
  3.223   4.8616
  3.221   4.8925
  3.219   4.9131
  3.217   4.9543
  3.215   4.8822
  3.213   4.9131
  3.211   4.9749
  3.209   4.9749
  3.207   4.9440
  3.205   4.9440
  3.203   4.8822
  3.201   4.8307
  3.199   4.7689
  3.197   4.7792
  3.195   4.9028
  3.193   4.9028
  3.191   4.7689
  3.189   4.7998
  3.187   4.7689
  3.185   4.7792
  3.183   4.8101
  3.182   4.8204
  3.180   4.7483
  3.178   4.7380
  3.176   4.7071
  3.174   4.8101
  3.172   4.8822
  3.170   4.8616
  3.168   4.8204
  3.166   4.8204
  3.164   4.7071
  3.162   4.6762
  3.160   4.6350
  3.158   4.7998
  3.156   4.8307
  3.154   4.7586
  3.152   4.8616
  3.151   4.9646
  3.149   4.9131
  3.147   4.8822
  3.145   4.9234
  3.143   4.8513
  3.141   4.7586
  3.139   4.8101
  3.137   4.8513
  3.135   4.8513
  3.133   4.8513
  3.132   4.8101
  3.130   4.6968
  3.128   4.6659
  3.126   4.7174
  3.124   4.8101
  3.122   4.8822
  3.120   4.9131
  3.118   4.7998
  3.117   4.7174
  3.115   4.6968
  3.113   4.7483
  3.111   4.7174
  3.109   4.6762
  3.107   4.6968
  3.105   4.7483
  3.103   4.7586
  3.102   4.8513
  3.100   4.8204
  3.098   4.7689
  3.096   4.8101
  3.094   4.8204
  3.092   4.6556
  3.091   4.5938
  3.089   4.6762
  3.087   4.6762
  3.085   4.6865
  3.083   4.7483
  3.081   4.6762
  3.079   4.5320
  3.078   4.5629
  3.076   4.7586
  3.074   4.7380
  3.072   4.7277
  3.070   4.7483
  3.069   4.7071
  3.067   4.6968
  3.065   4.6659
  3.063   4.5732
  3.061   4.5217
  3.060   4.5114
  3.058   4.6041
  3.056   4.6453
  3.054   4.6247
  3.052   4.5011
  3.051   4.4393
  3.049   4.3672
  3.047   4.4805
  3.045   4.6247
  3.043   4.5938
  3.042   4.6144
  3.040   4.5835
  3.038   4.4599
  3.036   4.4599
  3.034   4.4393
  3.033   4.4702
  3.031   4.5732
  3.029   4.6453
  3.027   4.4908
  3.026   4.4599
  3.024   4.5114
  3.022   4.5732
  3.020   4.6865
  3.019   4.6144
  3.017   4.4908
  3.015   4.5320
  3.013   4.4702
  3.012   4.4908
  3.010   4.5835
  3.008   4.5835
  3.006   4.7071
  3.005   4.7586
  3.003   4.5732
  3.001   4.3878
  2.999   4.4187
  2.998   4.5938
  2.996   4.6350
  2.994   4.6144
  2.992   4.7071
  2.991   4.7689
  2.989   4.7071
  2.987   4.7586
  2.986   4.6144
  2.984   4.5732
  2.982   4.7586
  2.980   4.7689
  2.979   4.6968
  2.977   4.7380
  2.975   4.8410
  2.974   4.8410
  2.972   4.8204
  2.970   4.8204
  2.968   4.8410
  2.967   4.9028
  2.965   4.9440
  2.963   5.0470
  2.962   5.0573
  2.960   5.0058
  2.958   4.9749
  2.957   5.0779
  2.955   5.0985
  2.953   5.0882
  2.952   5.0161
  2.950   5.1809
  2.948   5.3251
  2.947   5.2736
  2.945   5.2633
  2.943   5.2324
  2.942   5.2015
  2.940   5.2839
  2.938   5.3560
  2.937   5.3457
  2.935   5.2530
  2.933   5.3148
  2.932   5.4590
  2.930   5.4693
  2.928   5.5105
  2.927   5.6650
  2.925   5.5723
  2.923   5.4487
  2.922   5.3869
  2.920   5.5105
  2.918   5.6135
  2.917   5.6444
  2.915   5.6341
  2.913   5.7371
  2.912   5.7165
  2.910   5.7371
  2.909   5.7268
  2.907   5.6341
  2.905   5.5826
  2.904   5.7680
  2.902   5.7783
  2.900   5.8298
  2.899   5.7886
  2.897   5.6238
  2.896   5.5723
  2.894   5.7886
  2.892   5.8195
  2.891   5.7680
  2.889   5.8092
  2.887   5.9431
  2.886   5.7474
  2.884   5.5414
  2.883   5.6959
  2.881   6.0049
  2.879   5.8195
  2.878   5.7577
  2.876   5.8298
  2.875   5.7886
  2.873   5.9946
  2.871   6.0667
  2.870   6.0152
  2.868   6.0667
  2.867   5.9637
  2.865   5.7268
  2.864   5.6753
  2.862   5.8813
  2.860   6.1594
  2.859   6.3654
  2.857   6.2212
  2.856   5.9843
  2.854   5.9534
  2.853   6.1388
  2.851   5.9843
  2.849   5.9328
  2.848   5.9637
  2.846   6.1285
  2.845   6.2727
  2.843   6.3654
  2.842   6.2727
  2.840   6.0667
  2.838   6.1903
  2.837   6.3345
  2.835   6.2521
  2.834   6.2521
  2.832   6.1285
  2.831   6.0461
  2.829   6.0255
  2.828   6.1800
  2.826   6.2006
  2.825   6.2933
  2.823   6.3036
  2.821   6.1903
  2.820   6.0049
  2.818   6.3757
  2.817   6.4993
  2.815   6.1285
  2.814   5.8504
  2.812   6.1388
  2.811   6.3757
  2.809   6.3551
  2.808   6.0770
  2.806   6.1903
  2.805   6.2624
  2.803   6.2006
  2.802   6.1285
  2.800   6.4375
  2.799   6.1800
  2.797   5.6753
  2.796   5.4178
  2.794   5.4281
  2.793   5.4281
  2.791   5.5723
  2.790   5.6238
  2.788   5.4899
  2.787   5.3045
  2.785   5.1912
  2.784   4.9131
  2.782   4.7689
  2.781   4.5320
  2.779   4.3569
  2.778   4.1715
  2.776   4.0170
  2.775   3.8728
  2.773   3.7595
  2.772   3.4196
  2.770   3.3063
  2.769   3.4196
  2.767   3.5123
  2.766   3.3681
  2.764   3.0900
  2.763   2.8737
  2.761   3.0488
  2.760   3.1518
  2.758   3.0591
  2.757   2.9458
  2.756   2.9355
  2.754   2.8119
  2.753   2.8634
  2.751   2.9149
  2.750   2.6471
  2.748   2.4205
  2.747   2.7089
  2.745   2.8325
  2.744   2.8943
  2.742   2.7913
  2.741   2.6162
  2.740   2.7398
  2.738   2.7501
  2.737   2.5338
  2.735   2.6162
  2.734   2.6574
  2.732   2.8737
  2.731   2.9149
  2.729   2.8634
  2.728   2.9046
  2.727   3.0591
  2.725   3.0179
  2.724   3.0488
  2.722   3.2445
  2.721   3.5741
  2.719   3.6462
  2.718   3.4711
  2.717   3.5741
  2.715   4.1612
  2.714   4.4496
  2.712   4.4908
  2.711   4.7792
  2.709   5.3251
  2.708   5.7062
  2.707   5.9431
  2.705   6.0255
  2.704   6.2418
  2.702   6.4375
  2.701   6.5199
  2.700   6.7568
  2.698   7.0452
  2.697   7.2100
  2.695   7.3027
  2.694   7.4881
  2.693   8.0237
  2.691   8.5387
  2.690   8.9095
  2.688   9.4451
  2.687  10.0013
  2.686  10.2073
  2.684  10.5781
  2.683  11.1549
  2.681  11.5669
  2.680  11.7832
  2.679  12.1746
  2.677  12.3703
  2.676  12.4836
  2.675  12.4836
  2.673  12.6690
  2.672  12.7720
  2.670  12.8750
  2.669  13.1428
  2.668  13.4827
  2.666  13.6990
  2.665  13.8329
  2.664  13.7402
  2.662  13.8020
  2.661  13.8123
  2.659  13.9977
  2.658  13.9771
  2.657  14.3685
  2.655  14.8732
  2.654  15.0689
  2.653  15.0071
  2.651  14.9350
  2.650  15.1410
  2.649  15.4088
  2.647  15.4603
  2.646  15.5942
  2.645  15.5221
  2.643  15.5633
  2.642  15.6766
  2.640  15.6766
  2.639  15.5324
  2.638  15.5324
  2.636  15.4706
  2.635  15.5324
  2.634  15.5633
  2.632  15.5427
  2.631  15.4500
  2.630  15.3779
  2.628  15.5118
  2.627  15.5942
  2.626  15.6251
  2.624  15.8105
  2.623  15.7899
  2.622  15.7075
  2.620  15.8208
  2.619  15.7693
  2.618  15.5427
  2.617  15.5530
  2.615  15.5736
  2.614  15.7590
  2.613  15.8620
  2.611  15.9444
  2.610  16.0165
  2.609  15.9753
  2.607  15.7075
  2.606  15.8414
  2.605  16.3564
  2.603  16.4491
  2.602  16.3667
  2.601  16.5315
  2.599  16.5418
  2.598  16.6242
  2.597  16.8920
  2.596  16.8611
  2.594  16.7272
  2.593  17.0156
  2.592  17.0774
  2.590  17.1701
  2.589  17.3143
  2.588  17.3658
  2.586  17.3143
  2.585  17.4482
  2.584  17.7572
  2.583  17.8190
  2.581  17.4379
  2.580  17.4070
  2.579  17.7469
  2.577  17.9220
  2.576  17.7366
  2.575  17.9426
  2.574  17.9220
  2.572  17.8705
  2.571  17.8087
  2.570  18.0868
  2.569  18.1177
  2.567  17.9014
  2.566  17.9838
  2.565  18.1795
  2.563  18.0147
  2.562  18.1795
  2.561  18.5400
  2.560  18.7563
  2.558  18.4679
  2.557  18.2619
  2.556  18.4988
  2.555  18.8284
  2.553  18.9932
  2.552  18.7151
  2.551  18.6636
  2.550  19.0653
  2.548  19.1168
  2.547  19.0241
  2.546  19.0035
  2.545  19.1580
  2.543  19.1374
  2.542  19.0962
  2.541  19.0241
  2.540  19.2507
  2.538  19.4773
  2.537  19.1992
  2.536  19.1065
  2.535  19.2713
  2.533  19.1374
  2.532  19.3434
  2.531  19.4773
  2.530  19.1992
  2.528  19.0756
  2.527  19.0962
  2.526  18.9932
  2.525  19.1168
  2.524  18.9829
  2.522  18.7151
  2.521  18.5400
  2.520  18.4473
  2.519  18.7769
  2.517  18.5709
  2.516  18.1795
  2.515  18.2207
  2.514  18.5194
  2.513  18.5194
  2.511  18.2104
  2.510  18.1486
  2.509  17.9014
  2.508  17.7778
  2.506  17.9323
  2.505  17.9014
  2.504  17.5615
  2.503  17.9117
  2.502  18.3752
  2.500  18.0353
  2.497  18.0353
  2.493  17.8353
  2.489  17.5353
  2.485  17.4353
  2.481  16.9353
  2.477  16.7353
  2.473  16.6353
  2.469  16.3353
  2.465  16.2353
  2.461  16.0353
  2.457  15.6353
  2.453  15.6353
  2.449  15.4353
  2.445  15.4353
  2.441  15.4353
  2.437  15.2353
  2.433  15.5353
  2.429  15.6353
  2.425  15.7353
  2.421  16.0353
  2.417  16.2353
  2.413  16.4353
  2.409  16.6353
  2.405  17.1353
  2.401  17.5353
  2.397  18.0353
  2.393  18.4353
  2.389  18.6353
  2.385  18.8353
  2.381  18.8353
  2.377  19.0353
  2.373  18.9353
  2.369  19.1353
  2.365  19.0353
  2.361  18.9353
  2.357  18.8353
  2.353  18.6353
  2.349  18.6353
  2.345  18.8353
  2.341  18.8353
  2.337  18.8353
  2.333  18.9353
  2.329  19.0353
  2.325  19.3353
  2.321  19.6353
  2.317  20.1353
  2.313  20.5353
  2.309  21.3353
  2.305  21.8353
  2.301  21.8353
  2.297  23.3353
  2.293  23.4353
  2.289  24.0353
  2.285  24.8353
  2.281  25.6353
  2.277  26.5353
  2.273  26.8353
  2.269  26.9353
  2.265  27.2353
  2.261  27.1353
  2.257  26.9353
  2.253  26.9353
  2.249  27.1353
  2.245  27.1353
  2.241  26.9353
  2.237  26.7353
  2.233  26.3353
  2.229  25.9353
  2.225  25.0353
  2.221  24.3353
  2.217  23.2353
  2.213  22.2353
  2.209  21.0353
  2.205  19.4353
  2.201  18.0353
  2.197  16.8353
  2.193  16.3353
  2.189  16.3353
  2.185  16.3353
  2.181  16.9353
  2.177  17.9353
  2.173  19.3353
  2.169  20.8353
  2.165  22.3353
  2.161  23.4353
  2.157  24.5353
  2.153  25.6353
  2.149  26.2353
  2.145  26.7353
  2.141  27.4353
  2.137  27.7353
  2.133  27.7353
  2.129  27.7353
  2.125  27.3353
  2.121  27.4353
  2.117  27.8353
  2.113  28.0353
  2.109  28.3353
  2.105  28.5353
  2.101  28.8353
  2.097  29.1353
  2.093  29.1353
  2.089  29.3353
  2.085  29.4353
  2.081  29.6353
  2.077  30.0353
  2.073  30.2353
  2.069  30.1353
  2.065  30.1353
  2.061  30.4353
  2.057  30.5353
  2.053  30.5353
  2.049  30.9353
  2.045  31.1353
  2.041  31.0353
  2.037  30.9353
  2.033  31.0353
  2.029  31.1353
  2.025  31.2353
  2.021  31.1353
  2.017  31.1353
  2.013  31.0353
  2.009  31.2353
  2.005  31.1353
  2.001  31.1353
  1.997  31.2353
  1.993  30.9353
  1.989  30.9353
  1.985  30.9353
  1.981  30.9353
  1.977  30.7353
  1.973  30.9353
  1.969  31.1353
  1.965  31.3353
  1.961  31.2353
  1.957  31.3353
  1.953  31.2353
  1.949  31.2353
  1.945  31.3353
  1.941  31.2353
  1.937  31.2353
  1.933  31.2353
  1.929  31.1353
  1.925  31.0353
  1.921  30.9353
  1.917  30.7353
  1.913  30.7353
  1.909  30.9353
  1.905  31.2353
  1.901  31.5353
  1.897  32.0353
  1.893  32.7353
  1.889  33.1353
  1.885  33.7353
  1.881  34.8353
  1.877  35.4353
  1.873  35.3353
  1.869  35.0353
  1.865  34.6353
  1.861  34.9353
  1.857  35.5353
  1.853  35.9353
  1.849  36.2353
  1.845  35.9353
  1.841  35.7353
  1.837  35.5353
  1.833  35.4353
  1.829  35.1353
  1.825  35.5353
  1.821  35.6353
  1.817  35.9353
  1.813  35.6353
  1.809  35.5353
  1.805  35.7353
  1.801  36.0353
  1.797  35.9353
  1.793  35.9353
  1.789  36.0353
  1.785  36.2353
  1.781  36.4353
  1.777  36.1353
  1.773  36.2353
  1.769  36.1353
  1.765  36.2353
  1.761  36.4353
  1.757  36.1353
  1.753  36.2353
  1.749  36.0353
  1.745  36.0353
  1.741  36.1353
  1.737  36.1353
  1.733  36.2353
  1.729  36.4353
  1.725  36.4353
  1.721  36.1353
  1.717  36.2353
  1.713  36.5353
  1.709  36.4353
  1.705  36.5353
  1.701  36.6353
  1.697  36.6353
  1.693  36.7353
  1.689  36.6353
  1.685  36.5353
  1.681  36.6353
  1.677  36.7353
  1.673  36.6353
  1.669  36.8353
  1.665  37.0353
  1.661  37.3353
  1.657  36.8353
  1.653  36.5353
  1.649  36.6353
  1.645  36.7353
  1.641  37.0353
  1.637  36.6353
  1.633  36.7353
  1.629  36.8353
  1.625  37.0353
  1.621  36.8353
  1.617  36.8353
  1.613  36.8353
  1.609  36.8353
  1.605  36.7353
  1.601  36.7353
  1.597  36.7353
  1.593  36.8353
  1.589  36.7353
  1.585  37.0353
  1.581  37.0353
  1.577  37.2353
  1.573  37.2353
  1.569  37.3353
  1.565  37.1353
  1.561  36.8353
  1.557  36.6353
  1.553  36.7353
  1.549  36.6353
  1.545  36.5353
  1.541  36.6353
  1.537  36.5353
  1.533  36.8353
  1.529  36.8353
  1.525  36.7353
  1.521  37.1353
  1.517  37.1353
  1.513  37.3353
  1.509  37.3353
  1.505  37.3353
  1.501  36.8353
  1.497  37.2353
  1.493  37.1353
  1.489  37.2353
  1.485  37.3353
  1.481  37.5353
  1.477  37.5353
  1.473  37.2353
  1.469  37.3353
  1.465  37.0353
  1.461  36.8353
  1.457  36.7353
  1.453  36.7353
  1.449  36.7353
  1.445  36.6353
  1.441  36.5353
  1.437  36.4353
  1.433  36.1353
  1.429  36.0353
  1.425  35.4353
  1.421  34.6353
  1.417  33.1353
  1.413  30.5353
  1.409  28.2353
  1.405  27.1353
  1.401  26.6353
  1.397  27.6353
  1.393  29.1353
  1.389  30.9353
  1.385  33.1353
  1.381  34.6353
  1.377  34.9353
  1.373  36.1353
  1.369  37.5353
  1.365  37.5353
  1.361  36.8353
  1.357  36.4353
  1.353  37.1353
  1.349  37.5353
  1.345  37.9353
  1.341  38.1353
  1.337  38.1353
  1.333  38.1353
  1.329  38.2353
  1.325  38.1353
  1.321  37.9353
  1.317  38.1353
  1.313  38.2353
  1.309  38.2353
  1.305  38.2353
  1.301  38.3353
  1.297  38.3353
  1.293  38.3353
  1.289  38.3353
  1.285  38.2353
  1.281  38.1353
  1.277  37.8353
  1.273  37.6353
  1.269  37.5353
  1.265  37.7353
  1.261  37.6353
  1.257  37.6353
  1.253  37.5353
  1.249  37.5353
  1.245  37.2353
  1.241  37.1353
  1.237  37.2353
  1.233  37.1353
  1.229  37.0353
  1.225  37.0353
  1.221  37.1353
  1.217  37.3353
  1.213  37.1353
  1.209  36.8353
  1.205  36.7353
  1.201  36.6353
  1.197  36.6353
  1.193  36.5353
  1.189  36.4353
  1.185  36.2353
  1.181  36.2353
  1.177  36.2353
  1.173  36.4353
  1.169  36.2353
  1.165  36.1353
  1.161  36.1353
  1.157  35.9353
  1.153  35.5353
  1.149  35.4353
  1.145  36.0353
  1.141  36.0353
  1.137  35.9353
  1.133  35.5353
  1.129  35.4353
  1.125  35.1353
  1.121  35.3353
  1.117  35.3353
  1.113  34.9353
  1.109  35.0353
  1.105  34.9353
  1.101  34.8353
  1.097  34.5353
  1.093  34.4353
  1.089  33.9353
  1.085  33.8353
  1.081  34.3353
  1.077  34.0353
  1.073  34.0353
  1.069  33.9353
  1.065  33.7353
  1.061  33.5353
  1.057  33.3353
  1.053  33.4353
  1.049  33.3353
  1.045  32.8353
  1.041  33.1353
  1.037  33.3353
  1.033  33.3353
  1.029  33.3353
  1.025  33.2353
  1.021  33.1353
  1.017  32.7353
  1.013  32.6353
  1.009  32.7353
  1.005  32.6353
  1.001  32.4353
  0.997  32.1353
  0.993  32.8353
  0.989  32.6353
  0.985  32.2353
  0.981  32.3353
  0.977  32.1353
  0.973  32.0353
  0.969  32.0353
  0.965  32.0353
  0.961  31.8353
  0.957  31.8353
  0.953  31.7353
  0.949  31.7353
  0.945  31.8353
  0.941  31.7353
  0.937  31.7353
  0.933  31.7353
  0.929  31.6353
  0.925  31.6353
  0.921  31.6353
  0.917  31.3353
  0.913  31.5353
  0.909  31.5353
  0.905  31.3353
  0.901  31.2353
  0.897  31.5353
  0.893  31.2353
  0.889  31.1353
  0.885  31.2353
  0.881  31.1353
  0.877  31.2353
  0.873  31.1353
  0.869  31.2353
  0.865  31.1353
  0.861  31.1353
  0.857  31.1353
  0.853  31.3353
  0.849  31.2353
  0.845  31.1353
  0.841  31.2353
  0.837  31.5353
  0.833  31.6353
  0.829  31.6353
  0.825  31.6353
  0.821  31.8353
  0.817  31.8353
  0.813  32.2353
  0.809  32.2353
  0.805  32.1353
  0.804  33.8353
  0.803  32.9353
  0.802  32.6353
  0.801  32.6353
  0.800  32.5353
  0.799  32.6353
  0.798  32.5353
  0.797  32.6353
  0.796  33.0353
  0.795  32.8353
  0.794  33.1353
  0.793  32.9353
  0.792  32.9353
  0.791  33.1353
  0.790  33.1353
  0.789  33.1353
  0.788  33.0353
  0.787  33.0353
  0.786  33.0353
  0.785  33.0353
  0.784  33.1353
  0.783  33.0353
  0.782  33.3353
  0.781  33.4353
  0.780  33.3353
  0.779  33.1353
  0.778  33.3353
  0.777  33.5353
  0.776  33.7353
  0.775  33.4353
  0.774  33.1353
  0.773  33.1353
  0.772  33.3353
  0.771  33.3353
  0.770  33.3353
  0.769  33.4353
  0.768  33.4353
  0.767  33.4353
  0.766  33.6353
  0.765  33.6353
  0.764  33.4353
  0.763  33.5353
  0.762  33.1353
  0.761  33.3353
  0.760  33.4353
  0.759  33.7353
  0.758  33.6353
  0.757  33.6353
  0.756  33.3353
  0.755  33.5353
  0.754  33.1353
  0.753  33.3353
  0.752  33.4353
  0.751  33.4353
  0.750  33.4353
  0.749  33.4353
  0.748  33.5353
  0.747  33.3353
  0.746  33.3353
  0.745  33.1353
  0.744  33.4353
  0.743  33.3353
  0.742  33.3353
  0.741  33.0353
  0.740  32.9353
  0.739  33.0353
  0.738  33.1353
  0.737  33.1353
  0.736  33.1353
  0.735  33.0353
  0.734  32.8353
  0.733  32.8353
  0.732  32.8353
  0.731  32.6353
  0.730  32.6353
  0.729  32.8353
  0.728  32.8353
  0.727  32.9353
  0.726  32.9353
  0.725  32.9353
  0.724  32.9353
  0.723  32.8353
  0.722  32.8353
  0.721  33.0353
  0.720  32.9353
  0.719  32.5353
  0.718  32.5353
  0.717  32.5353
  0.716  32.6353
  0.715  32.8353
  0.714  32.4353
  0.713  32.3353
  0.712  32.3353
  0.711  32.3353
  0.710  32.2353
  0.709  32.2353
  0.708  32.0353
  0.707  32.4353
  0.706  32.2353
  0.705  31.9353
  0.704  31.7353
  0.703  31.4353
  0.702  31.4353
  0.701  31.4353
  0.700  31.4353
  0.699  31.7353
  0.698  31.7353
  0.697  31.4353
  0.696  31.5353
  0.695  31.7353
  0.694  31.7353
  0.693  31.8353
  0.692  31.3353
  0.691  31.1353
  0.690  30.8353
  0.689  30.9353
  0.688  31.1353
  0.687  31.1353
  0.686  31.2353
  0.685  31.2353
  0.684  31.2353
  0.683  31.3353
  0.682  31.2353
  0.681  31.1353
  0.680  30.9353
  0.679  31.1353
  0.678  31.1353
  0.677  31.4353
  0.676  31.2353
  0.675  31.2353
  0.674  31.2353
  0.673  31.3353
  0.672  30.9353
  0.671  30.9353
  0.670  31.1353
  0.669  30.8353
  0.668  30.9353
  0.667  30.7353
  0.666  30.6353
  0.665  30.6353
  0.664  30.7353
  0.663  30.7353
  0.662  30.7353
  0.661  30.6353
  0.660  30.7353
  0.659  30.9353
  0.658  31.1353
  0.657  31.1353
  0.656  30.4353
  0.655  30.7353
  0.654  30.6353
  0.653  30.6353
  0.652  30.7353
  0.651  30.8353
  0.650  30.6353
  0.649  30.6353
  0.648  30.8353
  0.647  30.8353
  0.646  30.7353
  0.645  30.9353
  0.644  30.7353
  0.643  30.6353
  0.642  30.7353
  0.641  30.7353
  0.640  30.4353
  0.639  30.6353
  0.638  30.4353
  0.637  30.3353
  0.636  30.4353
  0.635  30.7353
  0.634  30.6353
  0.633  30.2353
  0.632  30.3353
  0.631  30.6353
  0.630  30.3353
  0.629  30.4353
  0.628  30.4353
  0.627  30.8353
  0.626  30.9353
  0.625  30.8353
  0.624  30.8353
  0.623  30.9353
  0.622  31.1353
  0.621  31.3353
  0.620  30.9353
  0.619  31.2353
  0.618  31.2353
  0.617  30.8353
  0.616  30.8353
  0.615  30.7353
  0.614  30.4353
  0.613  30.4353
  0.612  30.6353
  0.611  30.4353
  0.610  30.6353
  0.609  30.6353
  0.608  30.4353
  0.607  30.4353
  0.606  30.4353
  0.605  30.3353
  0.604  30.3353
  0.603  30.8353
  0.602  30.6353
  0.601  30.7353
  0.600  30.7353
  0.599  30.7353
  0.598  30.6353
  0.597  30.3353
  0.596  30.2353
  0.595  30.0353
  0.594  30.4353
  0.593  30.3353
  0.592  30.3353
  0.591  30.1353
  0.590  30.1353
  0.589  30.2353
  0.588  30.1353
  0.587  29.8353
  0.586  30.1353
  0.585  30.0353
  0.584  30.2353
  0.583  30.0353
  0.582  29.7353
  0.581  29.6353
  0.580  29.6353
  0.579  29.3353
  0.578  29.1353
  0.577  29.1353
  0.576  29.5353
  0.575  29.6353
  0.574  29.5353
  0.573  29.6353
  0.572  29.6353
  0.571  29.5353
  0.570  29.1353
  0.569  29.2353
  0.568  29.1353
  0.567  29.0353
  0.566  28.7353
  0.565  28.5353
  0.564  28.4353
  0.563  29.3353
  0.562  29.2353
  0.561  29.3353
  0.560  29.1353
  0.559  29.0353
  0.558  29.0353
  0.557  28.7353
  0.556  28.5353
  0.555  28.4353
  0.554  28.2353
  0.553  28.1353
  0.552  27.3353
  0.551  27.3353
  0.550  27.1353
  0.549  27.1353
  0.548  26.8353
  0.547  26.7353
  0.546  26.4353
  0.545  26.4353
  0.544  26.0353
  0.543  25.6353
  0.542  25.3353
  0.541  25.4353
  0.540  25.3353
  0.539  25.1353
  0.538  24.8353
  0.537  24.6353
  0.536  24.5353
  0.535  23.9353
  0.534  23.7353
  0.533  23.6353
  0.532  23.6353
  0.531  23.5353
  0.530  23.1353
  0.529  22.8353
  0.528  22.9353
  0.527  22.6353
  0.526  22.3353
  0.525  22.1353
  0.524  21.8353
  0.523  22.0353
  0.522  21.7353
  0.521  21.4353
  0.520  20.9353
  0.519  20.7353
  0.518  20.8353
  0.517  20.1353
  0.516  19.6353
  0.515  19.9353
  0.514  19.8353
  0.513  19.5353
  0.512  19.9353
  0.511  19.9353
  0.510  19.6353
  0.509  19.2353
  0.508  19.2353
  0.507  18.8353
  0.506  18.7353
  0.505  18.4353
  0.504  18.2353
  0.503  18.5353
  0.502  18.4353
  0.501  18.2353
  0.500  18.4353
  0.499  17.7353
  0.498  17.4353
  0.497  17.4353
  0.496  17.1353
  0.495  17.3353
  0.494  17.1353
  0.493  17.3353
  0.492  17.1353
  0.491  16.8353
  0.490  16.6353
  0.489  16.6353
  0.488  16.4353
  0.487  16.4353
  0.486  16.3353
  0.485  16.3353
  0.484  16.2353
  0.483  16.0353
  0.482  15.5353
  0.481  16.0353
  0.480  16.2353
  0.479  15.8353
  0.478  16.2353
  0.477  16.0353
  0.476  16.2353
  0.475  16.0353
  0.474  15.9353
  0.473  16.0353
  0.472  15.9353
  0.471  15.9353
  0.470  16.3353
  0.469  16.3353
  0.468  16.0353
  0.467  16.0353
  0.466  15.9353
  0.465  15.8353
  0.464  15.2353
  0.463  16.3353
  0.462  16.2353
  0.461  16.2353
  0.460  16.0353
  0.459  16.0353
  0.458  16.3353
  0.457  16.2353
  0.456  15.8353
  0.455  15.8353
  0.454  15.8353
  0.453  16.2353
  0.452  16.0353
  0.451  16.0353
  0.450  16.0353
  0.449  16.0353
  0.448  15.9353
  0.447  15.7353
  0.446  15.5353
  0.445  15.4353
  0.444  14.9353
  0.443  14.9353
  0.442  14.8353
  0.441  14.8353
  0.440  14.8353
  0.439  14.6353
  0.438  14.3353
  0.437  14.6353
  0.436  14.3353
  0.435  14.1353
  0.434  13.5353
  0.433  13.1353
  0.432  13.4353
  0.431  13.4353
  0.430  13.2353
  0.429  13.5353
  0.428  13.5353
  0.427  13.2353
  0.426  13.0353
  0.425  12.9353
  0.424  12.6353
  0.423  12.6353
  0.422  12.4353
  0.421  12.5353
  0.420  12.4353
  0.419  12.1353
  0.418  12.0353
  0.417  11.9353
  0.416  12.0353
  0.415  11.9353
  0.414  11.8353
  0.413  11.6353
  0.412  11.8353
  0.411  11.8353
  0.410  12.0353
  0.409  11.8353
  0.408  11.8353
  0.407  11.9353
  0.406  11.6353
  0.405  11.5353
