Name: Rhyolite
Type: Rock
Class: Igneous
Subclass: Felsic
Particle Size: Whole Rock Chips
Sample No.: AP-936-193b
Owner: United States Geological Survey, L. C. Rowan
Wavelength range: 0.405 - 14.05 um
Origin: Iberian Pyrite Belt, Spain

Description: Rhyolite, altered





Measurement: Directional Hemispherical Reflectance
First Column: X
Second Column: Y
X Units: Wavelength (micrometers)
Y Units: Reflectance (percent)
First X Value: 14.05105
Last X Value: 0.40500
Number of X Values: 2530
Additional Information: rhy193ba.txt

 14.051   4.9234
 14.013   5.0470
 13.975   5.3354
 13.938   5.3869
 13.900   5.5002
 13.863   5.4693
 13.826   5.4281
 13.790   5.4899
 13.753   5.6135
 13.717   5.4384
 13.680   5.3457
 13.644   5.1706
 13.609   5.1706
 13.573   5.2221
 13.538   5.3457
 13.502   5.3251
 13.467   5.3766
 13.432   5.4281
 13.398   5.6341
 13.363   5.5723
 13.329   5.5414
 13.295   5.6341
 13.261   5.8607
 13.227   5.9225
 13.193   6.1285
 13.160   6.2521
 13.126   6.3654
 13.093   6.4375
 13.060   6.5817
 13.027   6.6744
 12.995   6.7980
 12.962   6.9628
 12.930   7.3851
 12.898   7.7456
 12.866   8.2194
 12.834   8.7035
 12.802   9.0846
 12.771   8.9919
 12.739   8.6417
 12.708   8.0134
 12.677   7.4469
 12.646   6.8907
 12.616   6.6641
 12.585   6.6744
 12.554   7.0246
 12.524   7.3233
 12.494   7.4675
 12.464   7.3027
 12.434   6.9216
 12.404   6.1491
 12.375   5.1603
 12.345   3.9758
 12.316   3.2548
 12.287   2.8634
 12.258   2.7604
 12.229   2.7810
 12.200   2.9870
 12.171   3.1930
 12.143   3.4093
 12.115   3.4402
 12.086   3.5432
 12.058   3.7183
 12.030   3.9552
 12.002   3.9964
 11.975   4.1406
 11.947   4.1921
 11.920   4.2642
 11.892   4.3569
 11.865   4.5217
 11.838   4.5732
 11.811   4.7174
 11.784   4.7586
 11.757   4.7998
 11.731   4.8101
 11.704   4.9955
 11.678   5.0470
 11.652   5.0264
 11.626   5.0161
 11.600   5.2118
 11.574   5.3251
 11.548   5.4487
 11.522   5.5311
 11.497   5.6547
 11.471   5.7062
 11.446   5.8195
 11.421   5.8092
 11.396   5.8813
 11.371   5.9019
 11.346   5.9534
 11.321   6.0152
 11.297   6.0255
 11.272   6.0255
 11.248   6.2109
 11.223   6.2933
 11.199   6.4169
 11.175   6.4581
 11.151   6.5508
 11.127   6.6023
 11.103   6.7362
 11.079   6.8186
 11.056   6.8701
 11.032   6.9010
 11.009   7.0143
 10.985   7.0761
 10.962   7.1585
 10.939   7.1997
 10.916   7.3027
 10.893   7.3954
 10.870   7.5705
 10.848   7.6323
 10.825   7.6941
 10.802   7.7456
 10.780   7.9207
 10.758   8.0237
 10.735   8.1061
 10.713   8.2297
 10.691   8.4254
 10.669   8.4872
 10.647   8.5902
 10.625   8.7138
 10.604   8.9095
 10.582   9.0331
 10.560   9.2494
 10.539   9.3215
 10.518   9.4657
 10.496   9.6202
 10.475   9.8365
 10.454  10.0013
 10.433  10.2176
 10.412  10.3618
 10.391  10.5884
 10.370  10.8459
 10.350  11.1343
 10.329  11.3918
 10.309  11.6802
 10.288  11.9480
 10.268  12.2673
 10.247  12.5660
 10.227  12.9265
 10.207  13.1531
 10.187  13.5136
 10.167  13.8329
 10.147  14.0801
 10.127  14.3170
 10.108  14.7084
 10.088  15.0174
 10.068  15.3264
 10.049  15.5736
 10.029  15.8723
 10.010  16.2019
  9.991  16.5521
  9.972  16.7581
  9.952  17.0259
  9.933  17.2937
  9.914  17.5615
  9.895  17.7572
  9.877  17.9735
  9.858  18.1177
  9.839  18.2825
  9.821  18.2722
  9.802  18.2928
  9.783  18.3958
  9.765  18.5503
  9.747  18.7151
  9.728  19.1477
  9.710  19.6215
  9.692  20.0747
  9.674  20.6103
  9.656  21.2386
  9.638  21.6918
  9.620  22.0420
  9.602  22.2274
  9.585  22.2995
  9.567  22.2995
  9.549  22.4025
  9.532  22.5158
  9.514  22.7527
  9.497  22.9175
  9.479  23.1647
  9.462  23.5355
  9.445  23.9784
  9.428  24.4522
  9.411  25.2041
  9.394  26.0796
  9.377  27.1199
  9.360  28.2529
  9.343  29.2623
  9.326  30.0863
  9.309  30.7352
  9.293  31.0339
  9.276  31.1575
  9.259  31.1781
  9.243  31.1575
  9.226  31.0957
  9.210  31.0133
  9.194  30.8897
  9.178  30.8794
  9.161  30.8588
  9.145  30.8588
  9.129  30.7455
  9.113  30.4777
  9.097  30.2099
  9.081  30.1378
  9.065  29.9318
  9.049  29.7361
  9.034  29.6022
  9.018  29.3447
  9.002  29.0460
  8.987  28.8812
  8.971  28.6031
  8.956  28.3971
  8.940  28.2323
  8.925  27.9439
  8.909  27.6658
  8.894  27.5319
  8.879  27.3259
  8.864  27.2229
  8.849  27.1817
  8.834  27.1714
  8.819  27.0581
  8.804  26.9860
  8.789  26.9036
  8.774  26.9036
  8.759  26.8830
  8.744  26.9139
  8.730  26.7491
  8.715  26.6255
  8.700  26.4710
  8.686  26.2444
  8.671  25.7912
  8.657  25.0393
  8.642  23.9269
  8.628  22.7012
  8.614  22.0523
  8.599  22.6497
  8.585  23.9269
  8.571  25.0702
  8.557  25.8015
  8.543  26.2753
  8.529  26.3989
  8.515  26.4401
  8.501  26.4607
  8.487  26.4195
  8.473  26.2959
  8.459  26.2032
  8.445  26.0590
  8.431  25.8736
  8.418  25.6779
  8.404  25.4616
  8.391  25.2041
  8.377  24.9878
  8.363  24.6994
  8.350  24.4213
  8.337  24.1226
  8.323  23.7827
  8.310  23.4119
  8.297  23.1132
  8.283  22.8248
  8.270  22.5673
  8.257  22.3201
  8.244  22.0729
  8.231  21.7330
  8.218  21.4034
  8.205  21.0738
  8.192  20.6618
  8.179  20.0644
  8.166  19.4052
  8.153  18.5606
  8.140  17.5409
  8.128  16.3564
  8.115  15.0586
  8.102  13.7917
  8.090  12.6381
  8.077  11.5463
  8.064  10.6708
  8.052   9.8159
  8.039   8.9610
  8.027   8.1576
  8.015   7.5396
  8.002   6.9525
  7.990   6.4684
  7.978   6.0152
  7.965   5.5414
  7.953   5.0676
  7.941   4.6968
  7.929   4.3054
  7.917   3.9346
  7.905   3.6359
  7.893   3.4505
  7.881   3.2342
  7.869   3.0076
  7.857   2.7604
  7.845   2.6059
  7.833   2.4926
  7.821   2.3999
  7.809   2.2660
  7.798   2.2145
  7.786   2.1836
  7.774   2.1115
  7.763   1.9982
  7.751   1.9467
  7.739   1.8540
  7.728   1.8643
  7.716   1.7510
  7.705   1.6789
  7.694   1.7201
  7.682   1.7098
  7.671   1.6583
  7.659   1.6377
  7.648   1.5553
  7.637   1.5244
  7.626   1.4832
  7.614   1.4317
  7.603   1.3699
  7.592   1.3596
  7.581   1.3699
  7.570   1.4111
  7.559   1.3699
  7.548   1.3699
  7.537   1.2978
  7.526   1.2978
  7.515   1.2669
  7.504   1.2360
  7.493   1.2463
  7.483   1.2772
  7.472   1.2257
  7.461   1.2463
  7.450   1.2051
  7.440   1.2051
  7.429   1.1948
  7.418   1.2257
  7.408   1.1845
  7.397   1.1433
  7.387   1.1639
  7.376   1.1845
  7.366   1.1639
  7.355   1.1639
  7.345   1.1227
  7.334   1.1227
  7.324   1.1227
  7.314   1.1124
  7.303   1.0918
  7.293   1.1639
  7.283   1.2257
  7.273   1.2875
  7.263   1.3081
  7.252   1.2566
  7.242   1.1845
  7.232   1.2257
  7.222   1.2360
  7.212   1.2154
  7.202   1.2154
  7.192   1.2875
  7.182   1.3184
  7.172   1.2978
  7.162   1.2360
  7.152   1.1948
  7.143   1.2154
  7.133   1.3184
  7.123   1.3699
  7.113   1.3596
  7.103   1.3699
  7.094   1.3699
  7.084   1.3287
  7.074   1.3184
  7.065   1.2463
  7.055   1.3184
  7.046   1.4111
  7.036   1.4523
  7.026   1.4317
  7.017   1.4008
  7.007   1.3596
  6.998   1.3802
  6.989   1.3699
  6.979   1.3596
  6.970   1.3184
  6.960   1.3493
  6.951   1.3905
  6.942   1.4214
  6.932   1.4008
  6.923   1.4420
  6.914   1.4832
  6.905   1.4317
  6.896   1.3905
  6.886   1.4420
  6.877   1.4523
  6.868   1.4523
  6.859   1.4008
  6.850   1.4008
  6.841   1.4317
  6.832   1.4523
  6.823   1.4008
  6.814   1.3802
  6.805   1.3493
  6.796   1.4317
  6.787   1.4420
  6.778   1.3802
  6.770   1.3905
  6.761   1.4317
  6.752   1.4111
  6.743   1.3905
  6.734   1.4008
  6.726   1.4317
  6.717   1.3905
  6.708   1.4111
  6.700   1.4420
  6.691   1.4420
  6.682   1.4111
  6.674   1.4626
  6.665   1.4729
  6.657   1.4523
  6.648   1.4111
  6.640   1.4626
  6.631   1.4832
  6.623   1.4832
  6.614   1.4832
  6.606   1.4626
  6.597   1.4523
  6.589   1.4626
  6.581   1.4420
  6.572   1.4729
  6.564   1.4626
  6.556   1.4523
  6.547   1.4729
  6.539   1.5038
  6.531   1.5656
  6.523   1.5965
  6.514   1.5862
  6.506   1.6377
  6.498   1.5965
  6.490   1.6171
  6.482   1.6686
  6.474   1.6377
  6.466   1.5862
  6.458   1.6480
  6.450   1.6892
  6.442   1.6892
  6.434   1.6789
  6.426   1.6892
  6.418   1.6995
  6.410   1.6995
  6.402   1.7098
  6.394   1.6995
  6.386   1.6377
  6.378   1.6686
  6.370   1.6686
  6.363   1.6686
  6.355   1.6274
  6.347   1.6171
  6.339   1.6583
  6.332   1.6892
  6.324   1.5862
  6.316   1.5038
  6.308   1.5141
  6.301   1.5759
  6.293   1.6068
  6.286   1.5965
  6.278   1.5553
  6.270   1.5347
  6.263   1.5347
  6.255   1.6583
  6.248   1.6686
  6.240   1.6068
  6.233   1.5244
  6.225   1.5553
  6.218   1.5656
  6.210   1.5656
  6.203   1.5553
  6.195   1.5553
  6.188   1.5553
  6.181   1.5862
  6.173   1.5656
  6.166   1.5965
  6.159   1.6171
  6.151   1.6480
  6.144   1.6274
  6.137   1.6377
  6.130   1.6789
  6.122   1.7098
  6.115   1.6892
  6.108   1.6892
  6.101   1.6686
  6.094   1.6995
  6.086   1.7510
  6.079   1.8025
  6.072   1.7510
  6.065   1.6892
  6.058   1.6480
  6.051   1.6995
  6.044   1.8128
  6.037   1.8128
  6.030   1.8128
  6.023   1.8540
  6.016   1.8334
  6.009   1.8025
  6.002   1.7819
  5.995   1.7613
  5.988   1.8025
  5.981   1.8334
  5.974   1.8025
  5.967   1.8025
  5.960   1.7716
  5.954   1.7304
  5.947   1.7613
  5.940   1.8231
  5.933   1.8334
  5.926   1.8231
  5.920   1.8128
  5.913   1.7716
  5.906   1.7716
  5.899   1.8437
  5.893   1.8643
  5.886   1.8643
  5.879   1.8952
  5.873   1.9261
  5.866   1.9158
  5.859   1.8849
  5.853   1.8437
  5.846   1.9055
  5.840   1.9364
  5.833   1.9055
  5.827   1.9261
  5.820   2.0291
  5.813   2.0909
  5.807   2.0497
  5.800   2.0085
  5.794   2.0394
  5.788   1.9982
  5.781   1.9364
  5.775   1.9776
  5.768   2.0188
  5.762   2.0291
  5.755   2.0188
  5.749   1.9570
  5.743   2.0188
  5.736   2.0600
  5.730   2.0600
  5.724   2.0703
  5.717   2.0909
  5.711   2.0394
  5.705   2.0085
  5.698   1.9879
  5.692   2.0188
  5.686   2.0600
  5.680   2.0703
  5.674   2.0394
  5.667   1.9982
  5.661   1.9879
  5.655   2.0497
  5.649   2.0600
  5.643   2.0600
  5.637   2.0188
  5.630   1.9673
  5.624   1.9055
  5.618   1.9158
  5.612   1.9261
  5.606   1.9467
  5.600   1.9364
  5.594   1.9776
  5.588   1.9776
  5.582   1.9467
  5.576   1.9570
  5.570   1.9673
  5.564   1.9467
  5.558   1.9673
  5.552   1.9673
  5.546   1.9776
  5.540   1.9776
  5.534   2.0085
  5.528   2.0291
  5.523   2.0600
  5.517   2.0703
  5.511   2.0497
  5.505   2.0909
  5.499   2.1424
  5.493   2.1424
  5.487   2.1115
  5.482   2.1218
  5.476   2.1424
  5.470   2.1115
  5.464   2.1321
  5.459   2.1527
  5.453   2.1630
  5.447   2.1630
  5.441   2.1321
  5.436   2.1630
  5.430   2.1836
  5.424   2.1836
  5.419   2.2042
  5.413   2.1527
  5.407   2.1424
  5.402   2.1527
  5.396   2.1836
  5.390   2.1527
  5.385   2.0806
  5.379   2.0291
  5.374   2.0703
  5.368   2.0806
  5.363   2.0291
  5.357   2.0291
  5.352   2.0600
  5.346   2.0806
  5.341   2.0600
  5.335   2.0497
  5.330   2.0600
  5.324   2.0497
  5.319   2.0394
  5.313   2.0909
  5.308   2.1218
  5.302   2.0600
  5.297   1.9879
  5.291   2.0394
  5.286   2.1218
  5.281   2.1321
  5.275   2.1321
  5.270   2.1630
  5.265   2.1733
  5.259   2.1527
  5.254   2.1733
  5.249   2.2042
  5.243   2.2351
  5.238   2.2763
  5.233   2.2660
  5.227   2.2557
  5.222   2.2866
  5.217   2.3175
  5.212   2.3587
  5.206   2.3793
  5.201   2.3896
  5.196   2.3999
  5.191   2.3999
  5.186   2.4514
  5.180   2.4720
  5.175   2.4823
  5.170   2.4617
  5.165   2.4617
  5.160   2.4926
  5.155   2.4823
  5.150   2.4617
  5.145   2.4411
  5.139   2.4617
  5.134   2.4823
  5.129   2.4514
  5.124   2.4514
  5.119   2.4823
  5.114   2.4823
  5.109   2.4617
  5.104   2.4926
  5.099   2.4617
  5.094   2.4411
  5.089   2.4823
  5.084   2.4926
  5.079   2.5029
  5.074   2.4926
  5.069   2.4308
  5.064   2.4514
  5.059   2.4617
  5.054   2.4514
  5.049   2.4720
  5.044   2.5235
  5.040   2.5235
  5.035   2.4617
  5.030   2.4720
  5.025   2.4823
  5.020   2.4823
  5.015   2.4617
  5.010   2.4514
  5.005   2.4926
  5.001   2.5441
  4.996   2.5235
  4.991   2.4823
  4.986   2.4514
  4.981   2.4308
  4.977   2.5132
  4.972   2.5647
  4.967   2.5853
  4.962   2.6677
  4.958   2.7295
  4.953   2.7501
  4.948   2.7604
  4.943   2.7398
  4.939   2.6986
  4.934   2.7295
  4.929   2.7604
  4.925   2.8119
  4.920   2.8222
  4.915   2.8737
  4.911   2.9149
  4.906   2.9458
  4.901   3.0282
  4.897   3.1209
  4.892   3.2033
  4.888   3.3269
  4.883   3.3784
  4.878   3.3887
  4.874   3.4196
  4.869   3.5020
  4.865   3.5844
  4.860   3.6462
  4.856   3.7183
  4.851   3.7801
  4.846   3.8007
  4.842   3.8419
  4.837   3.8728
  4.833   3.9243
  4.828   3.9552
  4.824   3.9449
  4.819   3.9861
  4.815   4.0170
  4.810   4.0067
  4.806   3.9964
  4.802   3.9346
  4.797   3.9758
  4.793   4.0273
  4.788   3.9964
  4.784   4.0170
  4.779   4.0685
  4.775   4.0788
  4.771   4.0685
  4.766   4.0582
  4.762   4.0891
  4.758   4.1097
  4.753   4.1612
  4.749   4.1818
  4.744   4.1406
  4.740   4.1509
  4.736   4.2127
  4.731   4.2333
  4.727   4.2333
  4.723   4.2127
  4.719   4.2230
  4.714   4.2333
  4.710   4.2642
  4.706   4.2539
  4.701   4.2127
  4.697   4.2127
  4.693   4.1612
  4.689   4.1509
  4.684   4.1200
  4.680   4.1509
  4.676   4.1921
  4.672   4.1921
  4.668   4.1509
  4.663   4.1715
  4.659   4.2333
  4.655   4.2951
  4.651   4.3260
  4.647   4.3878
  4.643   4.4187
  4.638   4.4599
  4.634   4.4805
  4.630   4.5011
  4.626   4.5526
  4.622   4.5835
  4.618   4.5629
  4.614   4.5629
  4.610   4.6247
  4.605   4.6762
  4.601   4.7277
  4.597   4.7998
  4.593   4.8307
  4.589   4.9131
  4.585   4.9646
  4.581   4.9337
  4.577   4.8719
  4.573   4.9028
  4.569   4.9543
  4.565   4.9440
  4.561   4.9955
  4.557   5.0573
  4.553   5.0985
  4.549   5.1294
  4.545   5.1088
  4.541   5.0573
  4.537   5.0470
  4.533   5.1088
  4.529   5.0882
  4.525   5.0882
  4.521   5.1294
  4.517   5.0882
  4.513   4.9852
  4.509   4.9234
  4.505   4.8719
  4.502   4.8822
  4.498   4.8410
  4.494   4.7792
  4.490   4.7895
  4.486   4.7586
  4.482   4.7483
  4.478   4.8101
  4.474   4.7998
  4.470   4.7174
  4.467   4.6762
  4.463   4.6968
  4.459   4.7483
  4.455   4.8204
  4.451   4.9440
  4.447   5.0470
  4.444   5.0264
  4.440   5.0882
  4.436   5.1603
  4.432   5.1500
  4.428   5.1294
  4.425   5.1912
  4.421   5.2427
  4.417   5.2530
  4.413   5.2839
  4.410   5.3560
  4.406   5.4590
  4.402   5.5002
  4.398   5.5414
  4.395   5.6135
  4.391   5.6444
  4.387   5.6444
  4.384   5.7268
  4.380   5.8710
  4.376   5.9534
  4.372   5.9328
  4.369   5.9843
  4.365   6.1079
  4.361   6.1388
  4.358   6.2006
  4.354   6.2830
  4.350   6.3242
  4.347   6.3448
  4.343   6.4272
  4.340   6.4684
  4.336   6.4993
  4.332   6.4993
  4.329   6.5611
  4.325   6.6126
  4.321   6.6641
  4.318   6.6641
  4.314   6.6847
  4.311   6.7259
  4.307   6.7156
  4.304   6.6744
  4.300   6.6641
  4.296   6.6950
  4.293   6.7465
  4.289   6.8186
  4.286   6.8289
  4.282   6.8083
  4.279   6.8392
  4.275   6.8804
  4.272   7.0040
  4.268   7.0349
  4.265   6.9319
  4.261   6.9525
  4.258   7.0864
  4.254   7.1173
  4.251   7.1276
  4.247   7.1070
  4.244   7.1276
  4.240   7.1276
  4.237   7.1276
  4.233   7.1379
  4.230   7.1791
  4.226   7.1688
  4.223   7.1585
  4.219   7.1173
  4.216   7.1070
  4.213   7.1482
  4.209   7.2306
  4.206   7.2100
  4.202   7.1688
  4.199   7.1791
  4.196   7.2306
  4.192   7.2924
  4.189   7.3336
  4.185   7.3027
  4.182   7.3027
  4.179   7.2821
  4.175   7.3130
  4.172   7.3954
  4.169   7.3954
  4.165   7.3954
  4.162   7.4366
  4.159   7.4057
  4.155   7.4160
  4.152   7.4469
  4.149   7.4469
  4.145   7.4675
  4.142   7.5602
  4.139   7.6220
  4.135   7.6632
  4.132   7.6220
  4.129   7.5396
  4.126   7.5396
  4.122   7.6220
  4.119   7.7250
  4.116   7.6838
  4.112   7.6426
  4.109   7.6735
  4.106   7.7250
  4.103   7.8177
  4.099   7.7868
  4.096   7.7868
  4.093   7.8074
  4.090   7.7971
  4.086   7.8486
  4.083   7.9001
  4.080   7.8486
  4.077   7.8074
  4.074   7.7868
  4.070   7.8177
  4.067   7.8383
  4.064   7.8589
  4.061   7.9104
  4.058   7.9104
  4.055   7.9413
  4.051   7.9207
  4.048   7.9310
  4.045   8.0134
  4.042   7.9722
  4.039   7.9310
  4.036   7.8074
  4.032   7.7868
  4.029   7.8486
  4.026   7.9413
  4.023   7.9310
  4.020   7.9104
  4.017   7.9413
  4.014   7.9516
  4.011   7.9207
  4.008   7.8074
  4.004   7.8383
  4.001   7.9722
  3.998   7.9928
  3.995   8.0134
  3.992   7.9207
  3.989   7.8795
  3.986   7.9001
  3.983   7.9207
  3.980   7.8795
  3.977   7.9104
  3.974   7.9001
  3.971   7.8898
  3.968   7.9001
  3.965   7.9928
  3.962   8.0134
  3.959   8.0649
  3.956   8.1061
  3.953   8.1061
  3.950   8.0443
  3.947   7.9825
  3.944   7.9928
  3.941   8.0340
  3.938   8.0443
  3.935   8.1061
  3.932   8.1576
  3.929   8.1679
  3.926   8.1473
  3.923   8.0649
  3.920   8.0649
  3.917   8.1164
  3.914   8.0958
  3.911   8.2091
  3.908   8.1988
  3.905   8.0855
  3.902   8.0443
  3.899   8.1473
  3.896   8.2091
  3.893   8.1370
  3.890   8.0855
  3.887   8.1370
  3.884   8.0855
  3.882   8.0031
  3.879   8.0134
  3.876   8.0546
  3.873   8.1061
  3.870   8.1061
  3.867   8.0752
  3.864   8.0443
  3.861   8.0443
  3.858   8.0237
  3.856   7.9825
  3.853   7.9928
  3.850   8.0237
  3.847   8.0031
  3.844   8.0546
  3.841   8.1164
  3.838   8.0134
  3.836   8.0855
  3.833   8.1164
  3.830   8.0237
  3.827   8.0134
  3.824   8.0958
  3.822   8.0649
  3.819   8.0443
  3.816   8.0958
  3.813   8.1370
  3.810   8.1885
  3.807   8.1988
  3.805   8.1061
  3.802   8.1061
  3.799   8.0958
  3.796   8.0958
  3.794   8.0855
  3.791   8.1061
  3.788   8.0340
  3.785   8.0237
  3.782   7.9722
  3.780   8.0443
  3.777   8.1267
  3.774   8.0546
  3.771   7.9928
  3.769   7.9825
  3.766   7.9104
  3.763   7.9310
  3.761   8.0031
  3.758   8.0237
  3.755   7.9928
  3.752   7.9825
  3.750   7.9516
  3.747   7.9207
  3.744   7.9722
  3.742   8.0134
  3.739   7.9928
  3.736   8.0134
  3.733   7.9001
  3.731   7.7765
  3.728   7.8280
  3.725   7.9928
  3.723   8.0031
  3.720   7.9722
  3.717   7.9207
  3.715   7.9207
  3.712   7.9619
  3.709   7.9722
  3.707   7.9722
  3.704   8.0031
  3.702   7.8795
  3.699   7.8898
  3.696   7.9619
  3.694   8.0340
  3.691   8.0340
  3.688   7.9516
  3.686   7.9207
  3.683   7.9001
  3.680   7.8898
  3.678   8.0237
  3.675   7.9619
  3.673   7.9928
  3.670   8.1061
  3.667   8.0958
  3.665   7.9825
  3.662   7.9413
  3.660   7.9825
  3.657   8.0752
  3.655   8.0443
  3.652   7.9310
  3.649   7.9619
  3.647   7.9825
  3.644   7.9207
  3.642   7.9207
  3.639   7.9619
  3.637   7.9413
  3.634   7.9104
  3.632   7.9207
  3.629   7.9001
  3.626   7.9104
  3.624   7.9722
  3.621   7.9516
  3.619   7.9104
  3.616   7.9207
  3.614   7.9207
  3.611   7.9310
  3.609   7.8898
  3.606   7.8692
  3.604   7.8795
  3.601   7.8589
  3.599   7.8074
  3.596   7.8383
  3.594   7.8383
  3.591   7.7765
  3.589   7.7971
  3.586   7.8692
  3.584   7.7868
  3.581   7.6632
  3.579   7.6220
  3.576   7.6632
  3.574   7.7456
  3.571   7.7971
  3.569   7.7250
  3.567   7.7147
  3.564   7.7353
  3.562   7.6838
  3.559   7.6529
  3.557   7.7456
  3.554   7.7765
  3.552   7.6941
  3.549   7.6220
  3.547   7.6426
  3.545   7.5911
  3.542   7.5499
  3.540   7.6014
  3.537   7.6117
  3.535   7.5602
  3.533   7.6323
  3.530   7.6632
  3.528   7.6014
  3.525   7.5293
  3.523   7.4778
  3.521   7.4572
  3.518   7.4469
  3.516   7.3748
  3.513   7.4263
  3.511   7.4881
  3.509   7.4469
  3.506   7.3851
  3.504   7.4263
  3.502   7.4366
  3.499   7.5190
  3.497   7.4675
  3.494   7.4778
  3.492   7.5602
  3.490   7.4778
  3.487   7.3542
  3.485   7.3336
  3.483   7.3027
  3.480   7.2718
  3.478   7.2512
  3.476   7.2718
  3.473   7.2924
  3.471   7.3233
  3.469   7.2924
  3.466   7.2203
  3.464   7.1791
  3.462   7.2615
  3.460   7.2512
  3.457   7.2409
  3.455   7.1894
  3.453   7.1894
  3.450   7.1173
  3.448   7.1688
  3.446   7.1791
  3.443   7.1482
  3.441   7.0967
  3.439   7.0658
  3.437   7.0040
  3.434   6.9731
  3.432   6.9628
  3.430   6.9216
  3.428   6.9525
  3.425   7.0658
  3.423   7.0761
  3.421   7.0658
  3.418   7.0349
  3.416   7.0040
  3.414   6.9216
  3.412   6.8289
  3.409   6.7362
  3.407   6.8495
  3.405   6.8598
  3.403   6.7877
  3.401   6.8701
  3.398   6.9216
  3.396   6.8495
  3.394   6.7980
  3.392   6.7774
  3.389   6.7568
  3.387   6.6744
  3.385   6.7156
  3.383   6.7362
  3.381   6.6641
  3.378   6.6435
  3.376   6.7053
  3.374   6.5920
  3.372   6.4993
  3.370   6.4993
  3.367   6.5405
  3.365   6.4787
  3.363   6.4890
  3.361   6.5096
  3.359   6.4993
  3.357   6.4169
  3.354   6.4169
  3.352   6.4787
  3.350   6.5199
  3.348   6.5302
  3.346   6.5508
  3.344   6.3345
  3.341   6.2315
  3.339   6.3345
  3.337   6.3860
  3.335   6.3139
  3.333   6.2727
  3.331   6.2521
  3.329   6.2521
  3.326   6.1903
  3.324   6.1903
  3.322   6.2315
  3.320   6.2315
  3.318   6.1697
  3.316   6.0976
  3.314   6.0667
  3.312   6.1182
  3.309   6.1800
  3.307   6.1800
  3.305   6.0667
  3.303   6.0049
  3.301   5.9328
  3.299   5.9740
  3.297   5.9843
  3.295   6.0049
  3.293   5.9843
  3.291   5.9328
  3.288   5.9019
  3.286   5.8504
  3.284   5.8607
  3.282   5.9534
  3.280   5.9328
  3.278   5.8607
  3.276   5.7886
  3.274   5.8504
  3.272   5.7783
  3.270   5.6238
  3.268   5.6753
  3.266   5.7886
  3.264   5.7165
  3.262   5.7474
  3.259   5.7062
  3.257   5.6238
  3.255   5.6341
  3.253   5.6650
  3.251   5.6135
  3.249   5.5620
  3.247   5.5517
  3.245   5.6341
  3.243   5.6238
  3.241   5.5414
  3.239   5.5208
  3.237   5.5723
  3.235   5.5517
  3.233   5.4899
  3.231   5.3148
  3.229   5.2839
  3.227   5.3457
  3.225   5.4384
  3.223   5.4075
  3.221   5.3972
  3.219   5.3560
  3.217   5.3354
  3.215   5.1912
  3.213   5.1088
  3.211   5.1912
  3.209   5.2633
  3.207   5.2633
  3.205   5.3869
  3.203   5.4075
  3.201   5.3354
  3.199   5.2221
  3.197   5.1088
  3.195   5.0676
  3.193   5.1191
  3.191   5.1603
  3.189   5.2221
  3.187   5.1603
  3.185   5.0676
  3.183   5.0676
  3.182   5.1603
  3.180   5.1397
  3.178   5.0264
  3.176   5.0058
  3.174   5.0676
  3.172   4.9955
  3.170   4.9955
  3.168   4.9955
  3.166   5.0264
  3.164   5.0161
  3.162   4.9852
  3.160   4.9337
  3.158   5.0264
  3.156   5.0573
  3.154   4.9028
  3.152   4.8307
  3.151   4.9543
  3.149   4.9852
  3.147   4.9337
  3.145   4.9131
  3.143   4.8410
  3.141   4.7071
  3.139   4.7689
  3.137   4.7277
  3.135   4.6041
  3.133   4.5938
  3.132   4.6762
  3.130   4.6659
  3.128   4.6762
  3.126   4.7277
  3.124   4.7277
  3.122   4.5732
  3.120   4.5217
  3.118   4.6144
  3.117   4.6968
  3.115   4.6144
  3.113   4.6041
  3.111   4.6556
  3.109   4.4290
  3.107   4.3569
  3.105   4.5320
  3.103   4.6144
  3.102   4.5938
  3.100   4.5423
  3.098   4.5938
  3.096   4.5526
  3.094   4.4187
  3.092   4.3672
  3.091   4.3878
  3.089   4.4805
  3.087   4.5217
  3.085   4.4290
  3.083   4.7174
  3.081   4.6453
  3.079   4.3878
  3.078   4.3569
  3.076   4.3981
  3.074   4.3157
  3.072   4.3260
  3.070   4.3260
  3.069   4.3878
  3.067   4.4599
  3.065   4.3672
  3.063   4.2848
  3.061   4.3054
  3.060   4.3054
  3.058   4.3569
  3.056   4.3157
  3.054   4.3260
  3.052   4.3466
  3.051   4.3878
  3.049   4.4702
  3.047   4.4908
  3.045   4.4599
  3.043   4.4496
  3.042   4.3363
  3.040   4.2333
  3.038   4.2333
  3.036   4.3054
  3.034   4.3260
  3.033   4.3878
  3.031   4.4393
  3.029   4.3466
  3.027   4.2127
  3.026   4.3981
  3.024   4.3569
  3.022   4.2642
  3.020   4.1509
  3.019   4.2230
  3.017   4.4084
  3.015   4.4496
  3.013   4.4393
  3.012   4.3569
  3.010   4.2230
  3.008   4.1509
  3.006   4.2539
  3.005   4.3466
  3.003   4.3054
  3.001   4.3054
  2.999   4.2024
  2.998   4.1921
  2.996   4.2539
  2.994   4.3260
  2.992   4.1715
  2.991   4.1406
  2.989   4.2436
  2.987   4.3157
  2.986   4.2436
  2.984   4.2436
  2.982   4.2024
  2.980   4.1818
  2.979   4.1612
  2.977   4.2436
  2.975   4.2127
  2.974   4.1200
  2.972   4.0891
  2.970   4.1818
  2.968   4.1200
  2.967   4.1715
  2.965   4.2436
  2.963   4.2642
  2.962   4.2024
  2.960   4.1612
  2.958   4.1818
  2.957   4.0891
  2.955   4.0891
  2.953   4.2539
  2.952   4.0479
  2.950   3.8831
  2.948   4.0376
  2.947   4.0994
  2.945   4.0891
  2.943   4.2745
  2.942   4.1612
  2.940   4.0994
  2.938   4.0891
  2.937   4.1303
  2.935   4.0685
  2.933   4.0891
  2.932   4.3672
  2.930   4.3466
  2.928   4.1612
  2.927   4.0582
  2.925   4.0376
  2.923   4.0994
  2.922   4.0788
  2.920   4.0685
  2.918   4.0170
  2.917   4.0685
  2.915   4.0994
  2.913   4.1921
  2.912   4.3363
  2.910   4.3260
  2.909   4.2539
  2.907   4.3775
  2.905   4.2848
  2.904   4.2745
  2.902   4.1509
  2.900   4.0067
  2.899   4.0994
  2.897   4.1406
  2.896   4.0685
  2.894   4.2539
  2.892   4.2642
  2.891   4.2024
  2.889   4.1715
  2.887   4.0994
  2.886   4.1921
  2.884   4.3363
  2.883   4.2230
  2.881   4.1303
  2.879   4.2024
  2.878   4.3363
  2.876   4.2951
  2.875   4.2436
  2.873   4.1921
  2.871   4.3157
  2.870   4.2951
  2.868   4.2333
  2.867   4.3054
  2.865   4.4599
  2.864   4.3569
  2.862   4.4084
  2.860   4.3363
  2.859   4.3054
  2.857   4.3878
  2.856   4.4187
  2.854   4.5217
  2.853   4.4805
  2.851   4.3157
  2.849   4.3775
  2.848   4.5320
  2.846   4.5114
  2.845   4.5320
  2.843   4.7174
  2.842   4.6659
  2.840   4.5423
  2.838   4.3878
  2.837   4.3466
  2.835   4.3878
  2.834   4.2848
  2.832   4.3878
  2.831   4.7071
  2.829   4.6144
  2.828   4.4805
  2.826   4.4084
  2.825   4.4187
  2.823   4.3672
  2.821   4.3260
  2.820   4.3363
  2.818   4.3260
  2.817   4.3672
  2.815   4.4393
  2.814   4.1612
  2.812   4.2745
  2.811   4.3672
  2.809   4.2951
  2.808   4.1406
  2.806   4.0788
  2.805   4.0479
  2.803   4.0376
  2.802   3.9655
  2.800   3.8625
  2.799   3.8625
  2.797   3.9552
  2.796   3.8110
  2.794   3.8934
  2.793   3.8419
  2.791   3.5947
  2.790   3.5123
  2.788   3.5226
  2.787   3.5535
  2.785   3.7080
  2.784   3.6668
  2.782   3.5020
  2.781   3.5844
  2.779   3.7698
  2.778   3.5432
  2.776   3.4093
  2.775   3.3990
  2.773   3.4917
  2.772   3.5741
  2.770   3.6153
  2.769   3.5947
  2.767   3.4608
  2.766   3.3475
  2.764   3.5329
  2.763   3.4711
  2.761   3.3784
  2.760   3.3372
  2.758   3.3887
  2.757   3.4814
  2.756   3.7492
  2.754   3.8522
  2.753   3.8522
  2.751   3.7595
  2.750   3.6874
  2.748   3.7904
  2.747   4.0788
  2.745   4.1612
  2.744   4.0479
  2.742   3.9346
  2.741   4.0685
  2.740   4.0994
  2.738   4.2024
  2.737   4.3775
  2.735   4.5114
  2.734   4.6144
  2.732   4.8719
  2.731   5.0058
  2.729   5.1088
  2.728   5.3354
  2.727   5.5620
  2.725   5.5517
  2.724   5.6753
  2.722   5.7062
  2.721   5.8195
  2.719   5.9328
  2.718   5.9328
  2.717   6.0564
  2.715   6.1697
  2.714   5.9122
  2.712   5.9534
  2.711   5.9740
  2.709   6.1182
  2.708   6.1388
  2.707   5.9946
  2.705   6.0564
  2.704   6.0358
  2.702   5.7474
  2.701   5.7577
  2.700   5.8607
  2.698   6.1285
  2.697   6.4066
  2.695   6.7053
  2.694   6.7980
  2.693   6.9319
  2.691   7.2718
  2.690   7.3851
  2.688   7.4057
  2.687   7.4160
  2.686   7.2306
  2.684   7.2512
  2.683   7.3748
  2.681   7.7147
  2.680   7.9104
  2.679   7.8280
  2.677   7.6941
  2.676   7.7765
  2.675   7.9516
  2.673   7.9001
  2.672   7.7044
  2.670   7.9001
  2.669   7.8589
  2.668   7.7147
  2.666   7.5499
  2.665   7.5911
  2.664   7.7353
  2.662   8.0752
  2.661   8.0958
  2.659   7.9516
  2.658   7.6838
  2.657   8.0443
  2.655   8.2194
  2.654   7.9516
  2.653   7.8486
  2.651   8.0649
  2.650   7.9825
  2.649   7.8589
  2.647   7.7147
  2.646   7.7765
  2.645   7.8692
  2.643   8.2194
  2.642   8.0958
  2.640   7.7662
  2.639   7.5808
  2.638   7.8383
  2.636   8.1164
  2.635   7.9825
  2.634   7.9310
  2.632   8.0340
  2.631   7.9619
  2.630   7.9928
  2.628   7.7765
  2.627   7.9001
  2.626   8.0855
  2.624   8.1061
  2.623   7.9619
  2.622   7.8589
  2.620   7.7353
  2.619   7.8383
  2.618   8.0855
  2.617   8.0031
  2.615   7.9928
  2.614   8.1576
  2.613   8.0134
  2.611   8.0031
  2.610   7.9310
  2.609   7.9825
  2.607   8.0855
  2.606   8.0134
  2.605   7.9619
  2.603   7.8692
  2.602   7.6426
  2.601   7.7559
  2.599   7.8280
  2.598   8.0237
  2.597   8.0752
  2.596   8.0649
  2.594   7.8486
  2.593   7.7353
  2.592   7.7662
  2.590   7.9001
  2.589   7.9104
  2.588   7.9413
  2.586   7.7044
  2.585   7.7765
  2.584   7.8177
  2.583   7.9516
  2.581   8.0031
  2.580   7.9207
  2.579   7.9001
  2.577   8.0031
  2.576   7.9825
  2.575   7.9619
  2.574   7.7250
  2.572   7.8486
  2.571   7.7147
  2.570   7.5808
  2.569   7.8589
  2.567   7.9001
  2.566   7.8589
  2.565   8.1473
  2.563   8.0237
  2.562   7.7353
  2.561   7.4984
  2.560   7.5705
  2.558   7.8177
  2.557   8.0134
  2.556   7.7868
  2.555   7.6941
  2.553   7.7971
  2.552   7.9310
  2.551   7.8383
  2.550   7.9104
  2.548   7.9722
  2.547   8.1164
  2.546   8.1988
  2.545   8.1679
  2.543   8.0134
  2.542   7.8074
  2.541   7.7559
  2.540   8.0752
  2.538   7.9207
  2.537   7.8177
  2.536   7.6323
  2.535   7.5808
  2.533   7.7044
  2.532   8.0443
  2.531   8.2709
  2.530   8.1267
  2.528   8.1164
  2.527   8.0237
  2.526   7.7662
  2.525   7.9413
  2.524   7.9928
  2.522   7.8383
  2.521   7.7971
  2.520   8.0134
  2.519   8.0855
  2.517   8.0649
  2.516   7.9207
  2.515   7.7250
  2.514   7.5808
  2.513   7.6735
  2.511   7.8589
  2.510   7.5808
  2.509   7.3954
  2.508   7.6838
  2.506   7.8074
  2.505   8.0443
  2.504   8.0031
  2.503   8.1061
  2.502   7.8795
  2.500   7.9722
  2.497   7.9722
  2.493   7.7722
  2.489   7.7722
  2.485   7.7722
  2.481   7.4722
  2.477   7.3722
  2.473   7.4722
  2.469   7.4722
  2.465   7.6722
  2.461   7.3722
  2.457   7.4722
  2.453   7.6722
  2.449   7.7722
  2.445   7.7722
  2.441   8.1722
  2.437   8.2722
  2.433   8.5722
  2.429   8.9722
  2.425   9.2722
  2.421   9.6722
  2.417  10.1722
  2.413  10.5722
  2.409  10.7722
  2.405  11.4722
  2.401  11.6722
  2.397  12.0722
  2.393  12.0722
  2.389  12.1722
  2.385  12.2722
  2.381  12.3722
  2.377  12.3722
  2.373  12.1722
  2.369  12.0722
  2.365  11.8722
  2.361  11.6722
  2.357  11.6722
  2.353  11.6722
  2.349  11.6722
  2.345  11.8722
  2.341  12.0722
  2.337  12.2722
  2.333  12.6722
  2.329  13.1722
  2.325  13.6722
  2.321  14.3722
  2.317  15.1722
  2.313  16.1722
  2.309  17.0722
  2.305  18.2722
  2.301  20.6722
  2.297  20.6722
  2.293  20.8722
  2.289  21.5722
  2.285  22.3722
  2.281  23.7722
  2.277  23.9722
  2.273  23.7722
  2.269  23.6722
  2.265  23.2722
  2.261  22.6722
  2.257  21.5722
  2.253  20.8722
  2.249  20.1722
  2.245  19.3722
  2.241  18.3722
  2.237  17.5722
  2.233  16.2722
  2.229  15.1722
  2.225  14.3722
  2.221  13.3722
  2.217  12.8722
  2.213  12.3722
  2.209  12.5722
  2.205  13.1722
  2.201  13.9722
  2.197  15.1722
  2.193  16.2722
  2.189  17.6722
  2.185  18.8722
  2.181  20.1722
  2.177  21.5722
  2.173  22.8722
  2.169  23.9722
  2.165  24.9722
  2.161  26.0722
  2.157  26.9722
  2.153  28.1722
  2.149  28.7722
  2.145  29.1722
  2.141  29.5722
  2.137  30.3722
  2.133  30.0722
  2.129  30.0722
  2.125  30.3722
  2.121  30.6722
  2.117  31.3722
  2.113  31.4722
  2.109  31.6722
  2.105  31.6722
  2.101  31.4722
  2.097  31.9722
  2.093  32.1722
  2.089  32.5722
  2.085  32.6722
  2.081  32.8722
  2.077  32.8722
  2.073  32.7722
  2.069  32.5722
  2.065  32.2722
  2.061  32.1722
  2.057  32.1722
  2.053  32.0722
  2.049  32.1722
  2.045  32.0722
  2.041  31.5722
  2.037  31.1722
  2.033  30.8722
  2.029  30.4722
  2.025  30.0722
  2.021  29.7722
  2.017  29.3722
  2.013  28.7722
  2.009  28.1722
  2.005  27.6722
  2.001  27.4722
  1.997  26.9722
  1.993  26.3722
  1.989  25.6722
  1.985  25.0722
  1.981  24.5722
  1.977  24.1722
  1.973  23.6722
  1.969  23.0722
  1.965  22.7722
  1.961  22.1722
  1.957  21.6722
  1.953  21.0722
  1.949  20.5722
  1.945  20.0722
  1.941  19.7722
  1.937  19.7722
  1.933  19.3722
  1.929  18.8722
  1.925  17.9722
  1.921  17.1722
  1.917  16.4722
  1.913  16.0722
  1.909  16.0722
  1.905  16.7722
  1.901  17.7722
  1.897  19.5722
  1.893  22.1722
  1.889  25.0722
  1.885  28.1722
  1.881  30.8722
  1.877  33.7722
  1.873  36.0722
  1.869  38.0722
  1.865  39.9722
  1.861  41.9722
  1.857  43.0722
  1.853  43.8722
  1.849  44.7722
  1.845  45.3722
  1.841  45.8722
  1.837  46.4722
  1.833  46.3722
  1.829  46.4722
  1.825  46.5722
  1.821  46.9722
  1.817  47.1722
  1.813  47.0722
  1.809  47.1722
  1.805  47.4722
  1.801  47.4722
  1.797  47.5722
  1.793  47.5722
  1.789  47.6722
  1.785  47.7722
  1.781  47.7722
  1.777  47.9722
  1.773  48.1722
  1.769  48.2722
  1.765  48.5722
  1.761  48.5722
  1.757  48.2722
  1.753  48.2722
  1.749  48.4722
  1.745  48.6722
  1.741  48.8722
  1.737  49.2722
  1.733  49.6722
  1.729  49.9722
  1.725  49.5722
  1.721  49.3722
  1.717  49.5722
  1.713  49.3722
  1.709  49.2722
  1.705  49.6722
  1.701  49.7722
  1.697  49.7722
  1.693  49.7722
  1.689  49.7722
  1.685  49.7722
  1.681  49.9722
  1.677  50.1722
  1.673  50.2722
  1.669  49.9722
  1.665  50.1722
  1.661  49.8722
  1.657  49.8722
  1.653  49.3722
  1.649  49.5722
  1.645  49.2722
  1.641  49.2722
  1.637  49.1722
  1.633  49.3722
  1.629  49.6722
  1.625  49.6722
  1.621  49.3722
  1.617  49.0722
  1.613  48.8722
  1.609  48.8722
  1.605  48.5722
  1.601  48.2722
  1.597  48.2722
  1.593  48.2722
  1.589  47.9722
  1.585  47.7722
  1.581  47.4722
  1.577  47.3722
  1.573  47.3722
  1.569  46.8722
  1.565  46.5722
  1.561  46.3722
  1.557  45.8722
  1.553  45.7722
  1.549  45.4722
  1.545  45.5722
  1.541  45.5722
  1.537  45.3722
  1.533  45.2722
  1.529  44.9722
  1.525  44.6722
  1.521  44.7722
  1.517  44.1722
  1.513  43.5722
  1.509  43.0722
  1.505  42.5722
  1.501  42.4722
  1.497  42.0722
  1.493  41.8722
  1.489  41.4722
  1.485  41.1722
  1.481  40.7722
  1.477  40.3722
  1.473  39.7722
  1.469  39.4722
  1.465  39.1722
  1.461  38.7722
  1.457  38.5722
  1.453  38.1722
  1.449  37.7722
  1.445  37.2722
  1.441  36.4722
  1.437  35.3722
  1.433  33.9722
  1.429  32.2722
  1.425  29.9722
  1.421  27.6722
  1.417  25.4722
  1.413  23.8722
  1.409  23.3722
  1.405  24.2722
  1.401  26.0722
  1.397  28.9722
  1.393  31.6722
  1.389  33.6722
  1.385  36.3722
  1.381  38.0722
  1.377  38.8722
  1.373  40.7722
  1.369  42.4722
  1.365  42.9722
  1.361  42.7722
  1.357  43.2722
  1.353  43.8722
  1.349  43.7722
  1.345  44.2722
  1.341  44.6722
  1.337  44.9722
  1.333  44.7722
  1.329  44.8722
  1.325  44.7722
  1.321  44.7722
  1.317  44.7722
  1.313  44.7722
  1.309  44.6722
  1.305  44.4722
  1.301  44.4722
  1.297  44.2722
  1.293  44.1722
  1.289  44.1722
  1.285  43.8722
  1.281  43.5722
  1.277  43.1722
  1.273  42.7722
  1.269  42.5722
  1.265  42.1722
  1.261  41.8722
  1.257  41.3722
  1.253  41.0722
  1.249  41.0722
  1.245  40.9722
  1.241  40.9722
  1.237  40.8722
  1.233  40.5722
  1.229  40.2722
  1.225  39.9722
  1.221  40.2722
  1.217  40.2722
  1.213  39.9722
  1.209  39.6722
  1.205  39.2722
  1.201  39.0722
  1.197  38.7722
  1.193  38.6722
  1.189  38.5722
  1.185  38.5722
  1.181  38.2722
  1.177  38.1722
  1.173  38.1722
  1.169  38.0722
  1.165  37.9722
  1.161  37.6722
  1.157  37.4722
  1.153  37.2722
  1.149  37.2722
  1.145  37.1722
  1.141  37.1722
  1.137  37.0722
  1.133  37.0722
  1.129  36.8722
  1.125  36.6722
  1.121  36.9722
  1.117  36.6722
  1.113  36.3722
  1.109  36.1722
  1.105  36.4722
  1.101  37.0722
  1.097  36.9722
  1.093  36.6722
  1.089  36.4722
  1.085  36.1722
  1.081  36.5722
  1.077  36.8722
  1.073  36.5722
  1.069  37.0722
  1.065  36.8722
  1.061  36.6722
  1.057  36.4722
  1.053  36.1722
  1.049  36.0722
  1.045  35.8722
  1.041  35.8722
  1.037  35.9722
  1.033  36.3722
  1.029  36.0722
  1.025  36.0722
  1.021  36.4722
  1.017  36.1722
  1.013  36.1722
  1.009  36.5722
  1.005  36.4722
  1.001  36.1722
  0.997  35.9722
  0.993  36.4722
  0.989  36.4722
  0.985  36.3722
  0.981  36.0722
  0.977  35.9722
  0.973  35.5722
  0.969  35.5722
  0.965  35.5722
  0.961  35.5722
  0.957  35.2722
  0.953  35.0722
  0.949  35.2722
  0.945  35.0722
  0.941  34.9722
  0.937  35.0722
  0.933  35.2722
  0.929  34.8722
  0.925  34.7722
  0.921  34.7722
  0.917  34.4722
  0.913  34.4722
  0.909  34.3722
  0.905  34.2722
  0.901  34.4722
  0.897  34.4722
  0.893  34.1722
  0.889  33.9722
  0.885  33.8722
  0.881  33.6722
  0.877  33.9722
  0.873  33.9722
  0.869  34.1722
  0.865  34.1722
  0.861  33.8722
  0.857  33.8722
  0.853  33.8722
  0.849  33.7722
  0.845  34.1722
  0.841  34.2722
  0.837  34.4722
  0.833  34.3722
  0.829  34.3722
  0.825  34.4722
  0.821  34.3722
  0.817  34.4722
  0.813  34.3722
  0.809  34.4722
  0.805  34.2722
  0.804  34.1722
  0.803  34.1722
  0.802  33.9722
  0.801  34.2722
  0.800  33.9722
  0.799  33.7722
  0.798  33.7722
  0.797  33.7722
  0.796  33.9722
  0.795  33.8722
  0.794  33.8722
  0.793  33.5722
  0.792  33.8722
  0.791  33.8722
  0.790  33.8722
  0.789  33.5722
  0.788  33.5722
  0.787  33.3722
  0.786  33.3722
  0.785  33.6722
  0.784  33.3722
  0.783  33.3722
  0.782  33.5722
  0.781  33.2722
  0.780  33.0722
  0.779  33.1722
  0.778  33.1722
  0.777  33.2722
  0.776  33.1722
  0.775  33.3722
  0.774  33.1722
  0.773  33.1722
  0.772  33.0722
  0.771  33.1722
  0.770  33.0722
  0.769  33.0722
  0.768  32.8722
  0.767  32.8722
  0.766  33.0722
  0.765  33.1722
  0.764  33.2722
  0.763  33.0722
  0.762  32.5722
  0.761  33.1722
  0.760  33.1722
  0.759  33.0722
  0.758  32.5722
  0.757  32.6722
  0.756  32.5722
  0.755  32.5722
  0.754  32.4722
  0.753  32.8722
  0.752  33.0722
  0.751  32.6722
  0.750  32.6722
  0.749  32.5722
  0.748  32.5722
  0.747  32.1722
  0.746  32.2722
  0.745  32.2722
  0.744  32.4722
  0.743  32.5722
  0.742  32.6722
  0.741  32.6722
  0.740  32.2722
  0.739  32.6722
  0.738  32.6722
  0.737  32.6722
  0.736  32.6722
  0.735  32.8722
  0.734  32.2722
  0.733  32.1722
  0.732  32.4722
  0.731  32.5722
  0.730  32.2722
  0.729  32.2722
  0.728  32.5722
  0.727  32.8722
  0.726  32.6722
  0.725  32.4722
  0.724  32.5722
  0.723  32.5722
  0.722  32.2722
  0.721  32.6722
  0.720  32.5722
  0.719  32.4722
  0.718  32.5722
  0.717  32.4722
  0.716  32.2722
  0.715  32.1722
  0.714  32.2722
  0.713  32.2722
  0.712  32.2722
  0.711  32.1722
  0.710  31.9722
  0.709  31.6722
  0.708  31.6722
  0.707  31.9722
  0.706  31.7722
  0.705  31.9722
  0.704  31.7722
  0.703  31.0722
  0.702  31.1722
  0.701  31.4722
  0.700  31.4722
  0.699  31.5722
  0.698  31.1722
  0.697  31.3722
  0.696  31.1722
  0.695  31.5722
  0.694  31.4722
  0.693  31.5722
  0.692  31.1722
  0.691  31.0722
  0.690  30.6722
  0.689  30.9722
  0.688  31.1722
  0.687  31.1722
  0.686  31.3722
  0.685  31.1722
  0.684  31.3722
  0.683  31.3722
  0.682  31.0722
  0.681  30.9722
  0.680  30.9722
  0.679  31.0722
  0.678  30.9722
  0.677  31.4722
  0.676  31.1722
  0.675  31.0722
  0.674  31.3722
  0.673  31.3722
  0.672  31.1722
  0.671  31.0722
  0.670  30.9722
  0.669  30.8722
  0.668  31.0722
  0.667  31.0722
  0.666  30.9722
  0.665  31.0722
  0.664  30.6722
  0.663  30.3722
  0.662  30.3722
  0.661  30.4722
  0.660  30.5722
  0.659  30.8722
  0.658  30.8722
  0.657  31.0722
  0.656  30.3722
  0.655  30.6722
  0.654  30.4722
  0.653  30.2722
  0.652  30.2722
  0.651  30.2722
  0.650  30.3722
  0.649  30.0722
  0.648  30.5722
  0.647  30.4722
  0.646  30.3722
  0.645  30.5722
  0.644  30.0722
  0.643  29.8722
  0.642  30.3722
  0.641  30.3722
  0.640  29.9722
  0.639  30.0722
  0.638  29.9722
  0.637  29.9722
  0.636  29.7722
  0.635  29.5722
  0.634  29.4722
  0.633  29.4722
  0.632  29.3722
  0.631  29.4722
  0.630  29.7722
  0.629  29.3722
  0.628  29.3722
  0.627  29.5722
  0.626  29.7722
  0.625  30.0722
  0.624  29.7722
  0.623  29.4722
  0.622  29.7722
  0.621  29.9722
  0.620  29.2722
  0.619  29.2722
  0.618  29.4722
  0.617  29.4722
  0.616  29.2722
  0.615  29.1722
  0.614  28.9722
  0.613  28.9722
  0.612  29.1722
  0.611  28.9722
  0.610  28.9722
  0.609  29.1722
  0.608  28.9722
  0.607  28.8722
  0.606  28.6722
  0.605  28.6722
  0.604  28.3722
  0.603  28.2722
  0.602  28.3722
  0.601  28.6722
  0.600  28.4722
  0.599  28.6722
  0.598  28.6722
  0.597  28.1722
  0.596  27.8722
  0.595  27.8722
  0.594  28.1722
  0.593  28.0722
  0.592  28.1722
  0.591  27.8722
  0.590  27.8722
  0.589  27.7722
  0.588  28.0722
  0.587  27.7722
  0.586  27.6722
  0.585  27.5722
  0.584  27.4722
  0.583  27.2722
  0.582  27.5722
  0.581  27.1722
  0.580  27.1722
  0.579  27.1722
  0.578  27.0722
  0.577  27.2722
  0.576  27.1722
  0.575  26.9722
  0.574  26.9722
  0.573  27.0722
  0.572  27.0722
  0.571  27.0722
  0.570  26.7722
  0.569  26.9722
  0.568  26.7722
  0.567  26.5722
  0.566  26.5722
  0.565  26.3722
  0.564  26.1722
  0.563  26.0722
  0.562  26.0722
  0.561  26.0722
  0.560  26.1722
  0.559  26.1722
  0.558  26.1722
  0.557  25.8722
  0.556  25.6722
  0.555  25.5722
  0.554  24.9722
  0.553  25.0722
  0.552  25.8722
  0.551  25.6722
  0.550  25.2722
  0.549  25.4722
  0.548  25.2722
  0.547  25.2722
  0.546  25.0722
  0.545  25.0722
  0.544  24.8722
  0.543  24.8722
  0.542  24.9722
  0.541  24.5722
  0.540  24.7722
  0.539  24.4722
  0.538  24.3722
  0.537  24.1722
  0.536  24.1722
  0.535  23.8722
  0.534  23.6722
  0.533  23.7722
  0.532  23.6722
  0.531  23.4722
  0.530  23.6722
  0.529  23.4722
  0.528  23.6722
  0.527  23.4722
  0.526  23.0722
  0.525  23.2722
  0.524  23.2722
  0.523  23.1722
  0.522  22.7722
  0.521  22.6722
  0.520  22.2722
  0.519  22.3722
  0.518  22.2722
  0.517  21.7722
  0.516  21.6722
  0.515  21.6722
  0.514  21.5722
  0.513  21.6722
  0.512  21.6722
  0.511  21.5722
  0.510  21.5722
  0.509  20.9722
  0.508  20.9722
  0.507  20.8722
  0.506  20.9722
  0.505  20.5722
  0.504  20.3722
  0.503  20.1722
  0.502  20.4722
  0.501  20.3722
  0.500  20.4722
  0.499  19.7722
  0.498  19.4722
  0.497  19.2722
  0.496  19.3722
  0.495  19.4722
  0.494  19.7722
  0.493  19.4722
  0.492  19.2722
  0.491  18.7722
  0.490  18.7722
  0.489  18.7722
  0.488  18.6722
  0.487  18.4722
  0.486  18.3722
  0.485  18.3722
  0.484  17.8722
  0.483  17.9722
  0.482  17.7722
  0.481  17.9722
  0.480  17.8722
  0.479  17.5722
  0.478  17.6722
  0.477  17.2722
  0.476  17.3722
  0.475  17.2722
  0.474  17.1722
  0.473  17.0722
  0.472  17.0722
  0.471  17.0722
  0.470  16.8722
  0.469  16.6722
  0.468  16.2722
  0.467  16.4722
  0.466  16.4722
  0.465  16.1722
  0.464  16.2722
  0.463  16.1722
  0.462  16.0722
  0.461  15.6722
  0.460  15.6722
  0.459  15.5722
  0.458  15.3722
  0.457  14.9722
  0.456  14.9722
  0.455  15.0722
  0.454  14.8722
  0.453  14.7722
  0.452  14.3722
  0.451  14.3722
  0.450  14.3722
  0.449  14.3722
  0.448  14.0722
  0.447  13.6722
  0.446  13.3722
  0.445  13.4722
  0.444  13.6722
  0.443  13.7722
  0.442  13.3722
  0.441  13.2722
  0.440  12.8722
  0.439  12.6722
  0.438  12.7722
  0.437  12.5722
  0.436  12.1722
  0.435  12.0722
  0.434  12.2722
  0.433  12.1722
  0.432  12.1722
  0.431  12.2722
  0.430  12.0722
  0.429  12.0722
  0.428  11.7722
  0.427  11.5722
  0.426  11.4722
  0.425  11.0722
  0.424  11.0722
  0.423  10.7722
  0.422  10.9722
  0.421  10.6722
  0.420  10.6722
  0.419  10.4722
  0.418  10.5722
  0.417  10.1722
  0.416   9.9722
  0.415   9.8722
  0.414   9.8722
  0.413   9.6722
  0.412   9.3722
  0.411   9.3722
  0.410   9.3722
  0.409   9.0722
  0.408   8.9722
  0.407   8.9722
  0.406   8.5722
  0.405   8.4722
