Name: Rhyolite
Type: Rock
Class: Igneous
Subclass: Felsic
Particle Size: Whole Rock Chips
Sample No.: AP-936-186
Owner: United States Geological Survey, L. C. Rowan
Wavelength range: 0.405 - 14.05 um
Origin: Iberian Pyrite Belt, Spain

Description: Rhyolite, chloritic, fine





Measurement: Directional Hemispherical Reflectance
First Column: X
Second Column: Y
X Units: Wavelength (micrometers)
Y Units: Reflectance (percent)
First X Value: 14.05105
Last X Value: 0.40500
Number of X Values: 2530
Additional Information: rhy186a.txt

 14.051   1.8437
 14.013   1.5965
 13.975   1.8437
 13.938   2.0085
 13.900   2.0703
 13.863   2.0188
 13.826   2.1218
 13.790   2.0703
 13.753   2.2660
 13.717   2.1733
 13.680   2.2351
 13.644   2.1836
 13.609   2.2763
 13.573   2.3175
 13.538   2.4205
 13.502   2.3175
 13.467   2.4102
 13.432   2.4411
 13.398   2.5235
 13.363   2.4926
 13.329   2.5956
 13.295   2.5956
 13.261   2.6059
 13.227   2.4926
 13.193   2.6059
 13.160   2.6265
 13.126   2.7707
 13.093   2.7810
 13.060   2.7295
 13.027   2.7295
 12.995   2.8531
 12.962   2.8634
 12.930   2.9458
 12.898   2.9561
 12.866   3.0591
 12.834   3.1209
 12.802   3.1827
 12.771   3.1209
 12.739   3.1621
 12.708   3.1312
 12.677   3.2239
 12.646   3.2136
 12.616   3.2651
 12.585   3.2033
 12.554   3.2136
 12.524   3.2136
 12.494   3.2754
 12.464   3.1312
 12.434   3.0900
 12.404   3.0900
 12.375   3.1724
 12.345   3.1930
 12.316   3.2445
 12.287   3.2342
 12.258   3.3578
 12.229   3.3784
 12.200   3.4711
 12.171   3.5638
 12.143   3.6462
 12.115   3.6256
 12.086   3.7080
 12.058   3.7286
 12.030   3.8213
 12.002   3.9037
 11.975   4.0273
 11.947   4.0788
 11.920   4.1200
 11.892   4.0994
 11.865   4.1715
 11.838   4.2127
 11.811   4.3260
 11.784   4.4084
 11.757   4.5629
 11.731   4.5732
 11.704   4.6762
 11.678   4.6865
 11.652   4.7586
 11.626   4.7895
 11.600   4.9028
 11.574   4.8719
 11.548   4.9337
 11.522   5.0161
 11.497   5.1706
 11.471   5.2221
 11.446   5.2942
 11.421   5.2736
 11.396   5.3148
 11.371   5.2839
 11.346   5.3869
 11.321   5.4693
 11.297   5.6135
 11.272   5.7268
 11.248   5.9019
 11.223   5.9534
 11.199   5.9946
 11.175   6.0564
 11.151   6.2624
 11.127   6.3139
 11.103   6.4478
 11.079   6.6538
 11.056   6.9010
 11.032   7.1070
 11.009   7.2512
 10.985   7.2409
 10.962   7.2203
 10.939   6.9834
 10.916   6.6950
 10.893   6.3242
 10.870   5.9122
 10.848   5.4693
 10.825   5.2015
 10.802   4.9955
 10.780   4.8719
 10.758   4.7689
 10.735   4.7689
 10.713   4.7483
 10.691   4.8410
 10.669   4.7174
 10.647   4.6762
 10.625   4.7483
 10.604   4.8410
 10.582   4.8719
 10.560   5.0161
 10.539   5.0882
 10.518   5.2015
 10.496   5.2324
 10.475   5.3766
 10.454   5.5208
 10.433   5.7371
 10.412   5.8504
 10.391   6.0564
 10.370   6.2727
 10.350   6.5302
 10.329   6.7465
 10.309   6.9937
 10.288   7.2821
 10.268   7.5911
 10.247   7.7765
 10.227   8.0649
 10.207   8.3636
 10.187   8.6829
 10.167   8.9713
 10.147   9.3524
 10.127   9.6820
 10.108  10.1249
 10.088  10.5369
 10.068  10.9386
 10.049  11.2991
 10.029  11.8347
 10.010  12.3291
  9.991  12.7926
  9.972  13.1016
  9.952  13.3385
  9.933  13.4518
  9.914  13.5033
  9.895  13.3797
  9.877  13.1943
  9.858  12.8853
  9.839  12.6072
  9.821  12.3703
  9.802  12.2467
  9.783  12.3909
  9.765  12.9265
  9.747  13.4209
  9.728  14.0801
  9.710  14.8423
  9.692  15.6457
  9.674  16.4697
  9.656  17.2113
  9.638  17.7057
  9.620  18.2104
  9.602  18.6430
  9.585  18.9108
  9.567  19.0550
  9.549  19.2507
  9.532  19.2507
  9.514  19.2095
  9.497  18.9726
  9.479  18.7460
  9.462  18.5194
  9.445  18.2516
  9.428  17.7057
  9.411  17.1289
  9.394  16.5624
  9.377  15.9856
  9.360  15.2852
  9.343  14.6981
  9.326  14.0595
  9.309  13.3179
  9.293  12.5042
  9.276  11.8450
  9.259  11.1549
  9.243  10.5163
  9.226   9.8468
  9.210   9.2906
  9.194   8.7653
  9.178   8.3224
  9.161   7.7662
  9.145   7.2409
  9.129   6.6950
  9.113   6.2418
  9.097   5.8092
  9.081   5.2942
  9.065   4.8410
  9.049   4.5938
  9.034   4.2745
  9.018   4.0170
  9.002   3.9552
  8.987   4.1303
  8.971   4.4290
  8.956   4.8925
  8.940   5.3148
  8.925   5.6238
  8.909   5.8813
  8.894   6.2212
  8.879   6.2830
  8.864   6.1903
  8.849   5.9946
  8.834   5.7989
  8.819   5.5311
  8.804   5.4075
  8.789   5.0985
  8.774   4.7483
  8.759   4.4496
  8.744   4.2333
  8.730   3.9758
  8.715   3.8007
  8.700   3.6462
  8.686   3.4814
  8.671   3.2857
  8.657   3.1003
  8.642   2.9149
  8.628   2.8840
  8.614   2.7913
  8.599   2.8119
  8.585   2.8531
  8.571   2.8840
  8.557   2.8943
  8.543   3.0076
  8.529   2.9870
  8.515   2.9561
  8.501   2.9870
  8.487   3.0488
  8.473   3.0385
  8.459   3.1518
  8.445   3.2651
  8.431   3.2960
  8.418   3.3475
  8.404   3.4196
  8.391   3.4814
  8.377   3.5638
  8.363   3.6256
  8.350   3.7904
  8.337   3.8213
  8.323   3.8625
  8.310   3.8831
  8.297   3.9243
  8.283   3.9861
  8.270   4.0994
  8.257   4.0891
  8.244   4.1612
  8.231   4.1715
  8.218   4.2230
  8.205   4.2745
  8.192   4.2436
  8.179   4.1715
  8.166   4.2230
  8.153   4.1818
  8.140   4.1303
  8.128   4.0582
  8.115   4.0067
  8.102   3.8831
  8.090   3.7595
  8.077   3.7080
  8.064   3.6462
  8.052   3.5020
  8.039   3.4711
  8.027   3.3372
  8.015   3.2239
  8.002   3.2342
  7.990   3.2651
  7.978   3.2239
  7.965   3.2033
  7.953   3.0797
  7.941   3.0694
  7.929   3.0797
  7.917   3.0694
  7.905   3.0282
  7.893   2.9458
  7.881   2.9046
  7.869   2.9561
  7.857   2.8840
  7.845   2.8840
  7.833   2.8531
  7.821   2.8222
  7.809   2.8016
  7.798   2.8531
  7.786   2.8943
  7.774   2.9561
  7.763   2.9252
  7.751   2.9355
  7.739   2.9561
  7.728   2.9355
  7.716   2.8531
  7.705   2.8943
  7.694   2.8840
  7.682   2.8737
  7.671   2.8943
  7.659   2.9664
  7.648   2.9458
  7.637   2.9664
  7.626   2.9046
  7.614   2.8634
  7.603   2.8222
  7.592   2.8531
  7.581   2.8840
  7.570   2.8943
  7.559   2.8119
  7.548   2.8634
  7.537   2.8634
  7.526   2.8840
  7.515   2.9252
  7.504   2.9664
  7.493   2.9561
  7.483   2.9252
  7.472   2.8737
  7.461   2.8943
  7.450   2.9149
  7.440   2.9870
  7.429   2.9767
  7.418   2.9355
  7.408   2.9046
  7.397   2.8840
  7.387   2.8428
  7.376   2.8737
  7.366   2.8634
  7.355   2.9458
  7.345   2.9973
  7.334   2.9870
  7.324   2.9767
  7.314   2.9870
  7.303   2.9355
  7.293   2.9561
  7.283   3.0179
  7.273   3.0591
  7.263   3.0694
  7.252   3.0694
  7.242   2.9870
  7.232   2.9870
  7.222   3.0488
  7.212   3.0900
  7.202   3.0694
  7.192   3.1003
  7.182   3.0591
  7.172   3.0488
  7.162   3.0385
  7.152   3.0488
  7.143   3.0591
  7.133   3.1003
  7.123   3.1106
  7.113   3.1312
  7.103   3.1415
  7.094   3.1209
  7.084   3.1003
  7.074   3.1106
  7.065   3.0900
  7.055   3.1003
  7.046   3.0797
  7.036   3.0488
  7.026   2.9973
  7.017   3.1209
  7.007   3.2445
  6.998   3.2239
  6.989   3.1415
  6.979   3.1312
  6.970   3.1312
  6.960   3.1930
  6.951   3.2033
  6.942   3.2754
  6.932   3.2445
  6.923   3.1827
  6.914   3.2136
  6.905   3.2960
  6.896   3.3063
  6.886   3.3166
  6.877   3.2445
  6.868   3.2342
  6.859   3.2651
  6.850   3.3475
  6.841   3.3681
  6.832   3.3887
  6.823   3.4093
  6.814   3.4814
  6.805   3.4711
  6.796   3.4402
  6.787   3.3990
  6.778   3.4505
  6.770   3.5123
  6.761   3.5020
  6.752   3.5432
  6.743   3.5844
  6.734   3.6256
  6.726   3.7080
  6.717   3.7183
  6.708   3.7389
  6.700   3.7801
  6.691   3.7492
  6.682   3.7080
  6.674   3.7286
  6.665   3.7183
  6.657   3.6977
  6.648   3.7080
  6.640   3.7183
  6.631   3.7080
  6.623   3.7801
  6.614   3.7389
  6.606   3.6977
  6.597   3.6565
  6.589   3.6668
  6.581   3.7080
  6.572   3.7183
  6.564   3.6565
  6.556   3.6771
  6.547   3.6668
  6.539   3.6462
  6.531   3.6256
  6.523   3.6153
  6.514   3.6153
  6.506   3.6359
  6.498   3.6771
  6.490   3.6462
  6.482   3.6565
  6.474   3.6565
  6.466   3.5947
  6.458   3.5741
  6.450   3.5123
  6.442   3.5226
  6.434   3.5535
  6.426   3.5432
  6.418   3.5226
  6.410   3.5226
  6.402   3.4608
  6.394   3.4402
  6.386   3.4608
  6.378   3.4505
  6.370   3.3887
  6.363   3.3681
  6.355   3.3784
  6.347   3.3990
  6.339   3.3887
  6.332   3.3578
  6.324   3.2651
  6.316   3.2548
  6.308   3.2342
  6.301   3.2548
  6.293   3.2754
  6.286   3.2239
  6.278   3.1621
  6.270   3.1724
  6.263   3.1930
  6.255   3.2136
  6.248   3.1930
  6.240   3.2136
  6.233   3.1930
  6.225   3.1209
  6.218   3.0900
  6.210   3.1209
  6.203   3.1106
  6.195   3.1415
  6.188   3.1312
  6.181   3.0797
  6.173   3.0488
  6.166   3.0797
  6.159   3.1106
  6.151   3.1003
  6.144   3.0282
  6.137   2.9870
  6.130   2.9767
  6.122   3.0385
  6.115   3.0179
  6.108   3.0282
  6.101   3.0282
  6.094   3.0488
  6.086   3.0488
  6.079   3.0797
  6.072   3.0900
  6.065   3.0591
  6.058   3.0591
  6.051   3.0797
  6.044   3.0694
  6.037   3.1106
  6.030   3.1518
  6.023   3.1621
  6.016   3.1518
  6.009   3.1415
  6.002   3.1312
  5.995   3.2033
  5.988   3.2651
  5.981   3.2754
  5.974   3.2239
  5.967   3.2445
  5.960   3.2651
  5.954   3.3475
  5.947   3.3990
  5.940   3.4196
  5.933   3.4299
  5.926   3.4711
  5.920   3.5020
  5.913   3.5226
  5.906   3.5123
  5.899   3.4917
  5.893   3.5535
  5.886   3.6153
  5.879   3.6050
  5.873   3.6668
  5.866   3.7080
  5.859   3.7389
  5.853   3.8007
  5.846   3.8522
  5.840   3.8625
  5.833   3.8728
  5.827   3.9346
  5.820   4.0067
  5.813   4.0067
  5.807   4.0067
  5.800   4.0582
  5.794   4.1097
  5.788   4.0891
  5.781   4.1612
  5.775   4.2333
  5.768   4.2539
  5.762   4.3157
  5.755   4.3672
  5.749   4.3878
  5.743   4.3878
  5.736   4.4084
  5.730   4.4393
  5.724   4.4187
  5.717   4.4187
  5.711   4.4496
  5.705   4.5011
  5.698   4.5114
  5.692   4.5217
  5.686   4.5732
  5.680   4.5835
  5.674   4.5732
  5.667   4.5732
  5.661   4.5835
  5.655   4.6556
  5.649   4.6556
  5.643   4.6968
  5.637   4.6659
  5.630   4.6453
  5.624   4.6659
  5.618   4.6762
  5.612   4.6968
  5.606   4.7380
  5.600   4.7174
  5.594   4.6762
  5.588   4.6453
  5.582   4.6865
  5.576   4.6556
  5.570   4.6350
  5.564   4.6556
  5.558   4.6762
  5.552   4.6865
  5.546   4.6865
  5.540   4.6968
  5.534   4.6968
  5.528   4.6865
  5.523   4.6865
  5.517   4.6247
  5.511   4.6041
  5.505   4.6247
  5.499   4.6556
  5.493   4.6556
  5.487   4.6865
  5.482   4.7071
  5.476   4.7277
  5.470   4.7277
  5.464   4.7483
  5.459   4.6968
  5.453   4.7071
  5.447   4.7586
  5.441   4.7998
  5.436   4.8101
  5.430   4.8307
  5.424   4.8719
  5.419   4.9028
  5.413   4.9131
  5.407   4.9131
  5.402   4.8822
  5.396   4.8719
  5.390   4.9028
  5.385   4.9028
  5.379   4.8822
  5.374   4.8925
  5.368   4.9028
  5.363   4.8925
  5.357   4.8822
  5.352   4.8822
  5.346   4.9337
  5.341   4.9646
  5.335   5.0058
  5.330   5.0161
  5.324   4.9955
  5.319   5.0367
  5.313   5.0470
  5.308   5.0161
  5.302   5.0367
  5.297   5.1088
  5.291   5.1191
  5.286   5.1397
  5.281   5.1500
  5.275   5.1397
  5.270   5.1500
  5.265   5.1809
  5.259   5.2324
  5.254   5.2839
  5.249   5.2633
  5.243   5.2427
  5.238   5.3045
  5.233   5.3457
  5.227   5.3251
  5.222   5.3560
  5.217   5.3457
  5.212   5.3560
  5.206   5.3869
  5.201   5.4281
  5.196   5.4281
  5.191   5.3766
  5.186   5.4075
  5.180   5.4487
  5.175   5.4796
  5.170   5.4899
  5.165   5.5002
  5.160   5.5208
  5.155   5.5620
  5.150   5.5517
  5.145   5.5208
  5.139   5.5311
  5.134   5.5929
  5.129   5.6135
  5.124   5.6135
  5.119   5.6135
  5.114   5.6032
  5.109   5.6547
  5.104   5.6856
  5.099   5.6856
  5.094   5.6753
  5.089   5.7062
  5.084   5.7680
  5.079   5.8092
  5.074   5.8092
  5.069   5.8092
  5.064   5.8195
  5.059   5.8401
  5.054   5.8092
  5.049   5.8195
  5.044   5.8813
  5.040   5.9431
  5.035   5.9740
  5.030   5.9431
  5.025   5.9431
  5.020   5.9843
  5.015   5.9946
  5.010   5.9637
  5.005   5.9637
  5.001   5.9740
  4.996   6.0049
  4.991   6.0358
  4.986   6.0461
  4.981   6.0873
  4.977   6.1388
  4.972   6.1697
  4.967   6.1697
  4.962   6.1182
  4.958   6.2212
  4.953   6.3345
  4.948   6.2933
  4.943   6.2830
  4.939   6.3139
  4.934   6.3963
  4.929   6.4169
  4.925   6.4066
  4.920   6.4272
  4.915   6.4684
  4.911   6.4890
  4.906   6.4993
  4.901   6.5199
  4.897   6.5302
  4.892   6.5199
  4.888   6.5508
  4.883   6.5714
  4.878   6.6023
  4.874   6.6847
  4.869   6.7465
  4.865   6.7671
  4.860   6.7877
  4.856   6.7980
  4.851   6.8083
  4.846   6.8392
  4.842   6.8495
  4.837   6.8392
  4.833   6.8186
  4.828   6.8495
  4.824   6.8701
  4.819   6.8392
  4.815   6.8598
  4.810   6.9216
  4.806   6.9422
  4.802   6.9525
  4.797   6.9731
  4.793   6.9319
  4.788   6.9216
  4.784   6.9937
  4.779   7.0349
  4.775   7.0349
  4.771   6.9731
  4.766   6.9525
  4.762   6.9834
  4.758   7.0143
  4.753   7.0349
  4.749   7.0555
  4.744   7.0349
  4.740   7.0040
  4.736   7.0246
  4.731   7.0658
  4.727   7.0555
  4.723   7.0864
  4.719   7.1482
  4.714   7.1997
  4.710   7.1894
  4.706   7.1585
  4.701   7.1379
  4.697   7.1379
  4.693   7.1585
  4.689   7.1173
  4.684   7.1173
  4.680   7.1585
  4.676   7.2203
  4.672   7.2615
  4.668   7.1894
  4.663   7.1791
  4.659   7.2100
  4.655   7.2718
  4.651   7.3439
  4.647   7.3336
  4.643   7.3851
  4.638   7.4263
  4.634   7.4057
  4.630   7.3851
  4.626   7.4057
  4.622   7.4469
  4.618   7.4469
  4.614   7.4572
  4.610   7.4984
  4.605   7.5293
  4.601   7.5705
  4.597   7.6014
  4.593   7.5808
  4.589   7.6014
  4.585   7.5808
  4.581   7.5705
  4.577   7.6426
  4.573   7.6941
  4.569   7.6529
  4.565   7.6220
  4.561   7.6426
  4.557   7.6632
  4.553   7.6323
  4.549   7.6014
  4.545   7.6323
  4.541   7.7353
  4.537   7.7559
  4.533   7.7559
  4.529   7.6941
  4.525   7.7044
  4.521   7.6735
  4.517   7.6838
  4.513   7.7353
  4.509   7.7662
  4.505   7.7456
  4.502   7.7147
  4.498   7.7971
  4.494   7.8280
  4.490   7.7662
  4.486   7.7147
  4.482   7.7353
  4.478   7.7868
  4.474   7.8589
  4.470   7.8383
  4.467   7.7559
  4.463   7.8177
  4.459   7.8692
  4.455   7.8795
  4.451   7.8692
  4.447   7.8898
  4.444   7.9001
  4.440   7.9001
  4.436   7.9310
  4.432   7.9104
  4.428   7.9207
  4.425   7.9310
  4.421   7.9516
  4.417   7.9722
  4.413   7.9413
  4.410   7.9516
  4.406   7.9928
  4.402   8.0649
  4.398   8.0752
  4.395   8.0134
  4.391   8.0443
  4.387   8.1576
  4.384   8.1576
  4.380   8.0752
  4.376   8.0546
  4.372   8.1473
  4.369   8.1370
  4.365   8.1679
  4.361   8.1782
  4.358   8.1679
  4.354   8.2400
  4.350   8.2503
  4.347   8.2606
  4.343   8.2297
  4.340   8.1576
  4.336   8.1679
  4.332   8.2091
  4.329   8.2297
  4.325   8.2709
  4.321   8.3224
  4.318   8.3224
  4.314   8.3327
  4.311   8.3327
  4.307   8.3327
  4.304   8.3327
  4.300   8.2709
  4.296   8.1782
  4.293   8.2606
  4.289   8.3430
  4.286   8.3739
  4.282   8.3224
  4.279   8.3224
  4.275   8.3739
  4.272   8.3636
  4.268   8.3018
  4.265   8.3121
  4.261   8.3533
  4.258   8.3842
  4.254   8.4151
  4.251   8.4563
  4.247   8.4563
  4.244   8.4254
  4.240   8.3430
  4.237   8.3327
  4.233   8.3430
  4.230   8.3636
  4.226   8.3945
  4.223   8.4048
  4.219   8.4357
  4.216   8.5078
  4.213   8.5078
  4.209   8.4872
  4.206   8.4872
  4.202   8.5593
  4.199   8.5593
  4.196   8.5181
  4.192   8.4872
  4.189   8.5284
  4.185   8.6005
  4.182   8.6314
  4.179   8.5490
  4.175   8.5181
  4.172   8.5593
  4.169   8.5696
  4.165   8.5902
  4.162   8.6726
  4.159   8.7035
  4.155   8.6005
  4.152   8.5284
  4.149   8.5490
  4.145   8.5284
  4.142   8.5593
  4.139   8.6211
  4.135   8.6005
  4.132   8.6108
  4.129   8.6726
  4.126   8.6314
  4.122   8.5490
  4.119   8.5696
  4.116   8.5902
  4.112   8.5593
  4.109   8.5799
  4.106   8.5902
  4.103   8.6726
  4.099   8.6726
  4.096   8.6726
  4.093   8.6932
  4.090   8.6829
  4.086   8.6314
  4.083   8.6211
  4.080   8.5387
  4.077   8.5902
  4.074   8.7035
  4.070   8.6932
  4.067   8.6417
  4.064   8.6829
  4.061   8.7138
  4.058   8.6932
  4.055   8.6932
  4.051   8.7138
  4.048   8.6932
  4.045   8.7035
  4.042   8.6932
  4.039   8.7138
  4.036   8.7344
  4.032   8.7756
  4.029   8.7447
  4.026   8.6417
  4.023   8.6005
  4.020   8.6211
  4.017   8.5799
  4.014   8.6314
  4.011   8.6932
  4.008   8.7344
  4.004   8.6932
  4.001   8.6623
  3.998   8.7035
  3.995   8.7447
  3.992   8.7344
  3.989   8.6932
  3.986   8.6211
  3.983   8.6520
  3.980   8.6726
  3.977   8.7035
  3.974   8.7550
  3.971   8.7653
  3.968   8.7138
  3.965   8.6932
  3.962   8.6623
  3.959   8.6623
  3.956   8.6829
  3.953   8.7447
  3.950   8.6829
  3.947   8.6314
  3.944   8.6005
  3.941   8.5387
  3.938   8.6211
  3.935   8.7344
  3.932   8.7344
  3.929   8.7447
  3.926   8.7138
  3.923   8.6314
  3.920   8.5902
  3.917   8.6005
  3.914   8.6314
  3.911   8.6005
  3.908   8.4975
  3.905   8.4975
  3.902   8.6314
  3.899   8.7447
  3.896   8.7035
  3.893   8.6520
  3.890   8.6211
  3.887   8.5593
  3.884   8.5078
  3.882   8.5284
  3.879   8.5078
  3.876   8.4769
  3.873   8.4872
  3.870   8.5902
  3.867   8.6829
  3.864   8.6108
  3.861   8.4666
  3.858   8.4769
  3.856   8.5284
  3.853   8.5078
  3.850   8.4666
  3.847   8.4769
  3.844   8.4151
  3.841   8.4151
  3.838   8.4460
  3.836   8.5181
  3.833   8.5593
  3.830   8.5387
  3.827   8.4460
  3.824   8.4254
  3.822   8.3533
  3.819   8.3636
  3.816   8.3327
  3.813   8.3739
  3.810   8.4666
  3.807   8.4872
  3.805   8.3636
  3.802   8.3430
  3.799   8.3224
  3.796   8.2812
  3.794   8.3430
  3.791   8.3533
  3.788   8.3018
  3.785   8.2812
  3.782   8.1679
  3.780   8.1267
  3.777   8.1576
  3.774   8.2194
  3.771   8.2297
  3.769   8.1988
  3.766   8.1473
  3.763   8.1164
  3.761   8.0855
  3.758   8.0752
  3.755   8.0958
  3.752   8.1267
  3.750   8.0443
  3.747   7.9928
  3.744   8.0340
  3.742   8.1061
  3.739   8.1061
  3.736   8.0134
  3.733   8.0855
  3.731   8.1473
  3.728   8.0134
  3.725   7.9001
  3.723   7.7971
  3.720   7.7868
  3.717   7.7765
  3.715   7.8074
  3.712   7.7765
  3.709   7.7353
  3.707   7.7662
  3.704   7.8177
  3.702   7.8074
  3.699   7.8383
  3.696   7.8074
  3.694   7.7250
  3.691   7.7868
  3.688   7.7868
  3.686   7.6735
  3.683   7.6529
  3.680   7.6735
  3.678   7.6323
  3.675   7.5293
  3.673   7.5293
  3.670   7.6323
  3.667   7.6426
  3.665   7.5911
  3.662   7.6117
  3.660   7.5705
  3.657   7.4984
  3.655   7.4984
  3.652   7.5705
  3.649   7.4675
  3.647   7.4366
  3.644   7.4675
  3.642   7.4366
  3.639   7.4572
  3.637   7.4572
  3.634   7.4160
  3.632   7.4572
  3.629   7.4263
  3.626   7.3130
  3.624   7.2718
  3.621   7.2821
  3.619   7.2512
  3.616   7.2100
  3.614   7.1791
  3.611   7.1379
  3.609   7.1379
  3.606   7.2718
  3.604   7.3027
  3.601   7.1894
  3.599   7.1791
  3.596   7.1688
  3.594   7.2203
  3.591   7.2203
  3.589   7.0452
  3.586   7.0349
  3.584   7.0555
  3.581   7.0143
  3.579   6.9319
  3.576   6.9937
  3.574   6.9731
  3.571   6.9113
  3.569   6.9216
  3.567   6.8804
  3.564   6.8598
  3.562   6.9010
  3.559   6.9216
  3.557   6.9422
  3.554   6.8083
  3.552   6.7877
  3.549   6.8495
  3.547   6.8186
  3.545   6.7053
  3.542   6.6435
  3.540   6.6641
  3.537   6.6641
  3.535   6.6538
  3.533   6.6435
  3.530   6.5920
  3.528   6.5302
  3.525   6.5199
  3.523   6.5611
  3.521   6.5199
  3.518   6.4478
  3.516   6.3860
  3.513   6.4066
  3.511   6.3448
  3.509   6.3448
  3.506   6.3242
  3.504   6.2624
  3.502   6.2418
  3.499   6.2521
  3.497   6.1594
  3.494   6.1697
  3.492   6.2212
  3.490   6.1800
  3.487   6.0255
  3.485   6.0976
  3.483   6.0976
  3.480   6.0667
  3.478   6.0667
  3.476   6.0873
  3.473   6.0976
  3.471   6.1182
  3.469   6.1285
  3.466   6.1182
  3.464   6.0255
  3.462   5.9637
  3.460   5.9534
  3.457   5.9225
  3.455   5.9122
  3.453   5.9946
  3.450   6.0255
  3.448   6.0461
  3.446   6.0152
  3.443   5.9740
  3.441   5.8504
  3.439   5.8298
  3.437   5.9122
  3.434   5.8607
  3.432   5.7268
  3.430   5.6856
  3.428   5.6444
  3.425   5.6856
  3.423   5.7062
  3.421   5.6650
  3.418   5.5826
  3.416   5.5723
  3.414   5.5620
  3.412   5.5723
  3.409   5.5414
  3.407   5.4590
  3.405   5.4899
  3.403   5.6341
  3.401   5.5517
  3.398   5.4796
  3.396   5.4899
  3.394   5.6547
  3.392   5.7062
  3.389   5.5414
  3.387   5.4178
  3.385   5.3766
  3.383   5.3869
  3.381   5.4487
  3.378   5.4796
  3.376   5.4487
  3.374   5.3663
  3.372   5.3869
  3.370   5.2839
  3.367   5.2942
  3.365   5.3354
  3.363   5.3354
  3.361   5.3251
  3.359   5.3663
  3.357   5.4487
  3.354   5.4590
  3.352   5.3354
  3.350   5.3354
  3.348   5.2942
  3.346   5.2530
  3.344   5.1706
  3.341   5.1809
  3.339   5.2324
  3.337   5.2324
  3.335   5.2427
  3.333   5.3148
  3.331   5.2427
  3.329   5.2118
  3.326   5.2633
  3.324   5.2530
  3.322   5.2118
  3.320   5.2015
  3.318   5.1912
  3.316   5.1912
  3.314   5.0882
  3.312   5.0470
  3.309   5.0264
  3.307   4.9852
  3.305   5.0058
  3.303   5.0470
  3.301   4.9543
  3.299   5.0161
  3.297   5.1500
  3.295   5.1191
  3.293   4.9543
  3.291   5.0058
  3.288   5.0573
  3.286   4.9955
  3.284   4.9131
  3.282   4.9028
  3.280   4.8204
  3.278   4.8204
  3.276   4.8513
  3.274   4.8307
  3.272   4.7689
  3.270   4.8101
  3.268   4.7998
  3.266   4.7586
  3.264   4.7277
  3.262   4.7277
  3.259   4.7380
  3.257   4.7071
  3.255   4.6762
  3.253   4.7071
  3.251   4.7071
  3.249   4.6659
  3.247   4.5732
  3.245   4.5217
  3.243   4.5320
  3.241   4.5938
  3.239   4.6144
  3.237   4.7071
  3.235   4.7380
  3.233   4.6350
  3.231   4.4908
  3.229   4.5629
  3.227   4.5011
  3.225   4.4084
  3.223   4.4908
  3.221   4.5835
  3.219   4.5526
  3.217   4.5526
  3.215   4.4084
  3.213   4.3363
  3.211   4.3775
  3.209   4.4187
  3.207   4.4805
  3.205   4.5320
  3.203   4.4599
  3.201   4.5423
  3.199   4.5320
  3.197   4.4187
  3.195   4.2951
  3.193   4.3157
  3.191   4.3260
  3.189   4.2642
  3.187   4.1097
  3.185   4.1303
  3.183   4.2642
  3.182   4.3260
  3.180   4.2539
  3.178   4.2436
  3.176   4.2951
  3.174   4.3775
  3.172   4.3672
  3.170   4.3054
  3.168   4.2642
  3.166   4.2333
  3.164   4.2024
  3.162   4.2024
  3.160   4.2333
  3.158   4.2333
  3.156   4.2127
  3.154   4.2024
  3.152   4.1200
  3.151   4.0067
  3.149   3.9552
  3.147   4.0479
  3.145   4.0582
  3.143   4.1406
  3.141   4.1509
  3.139   4.1818
  3.137   4.1818
  3.135   4.1303
  3.133   4.0685
  3.132   3.9758
  3.130   3.9758
  3.128   4.0479
  3.126   4.0479
  3.124   4.0582
  3.122   4.0582
  3.120   4.0170
  3.118   3.9449
  3.117   4.0582
  3.115   4.1818
  3.113   4.1200
  3.111   3.9964
  3.109   4.0685
  3.107   4.0479
  3.105   3.9552
  3.103   3.9243
  3.102   3.9861
  3.100   3.9964
  3.098   3.9758
  3.096   4.0582
  3.094   4.0994
  3.092   4.0376
  3.091   4.0376
  3.089   4.0170
  3.087   3.9449
  3.085   3.9964
  3.083   4.0376
  3.081   3.9758
  3.079   4.0067
  3.078   3.9449
  3.076   3.9346
  3.074   3.9552
  3.072   3.8831
  3.070   3.7389
  3.069   3.7389
  3.067   3.8419
  3.065   3.8625
  3.063   3.8007
  3.061   3.8110
  3.060   3.8419
  3.058   4.0376
  3.056   4.0891
  3.054   4.0376
  3.052   3.9449
  3.051   3.8625
  3.049   3.8213
  3.047   3.8625
  3.045   3.8316
  3.043   3.8728
  3.042   3.8625
  3.040   3.8831
  3.038   3.8934
  3.036   3.8522
  3.034   3.8625
  3.033   4.0067
  3.031   3.9655
  3.029   3.7801
  3.027   3.7389
  3.026   3.8625
  3.024   3.9140
  3.022   3.9552
  3.020   3.9243
  3.019   3.8728
  3.017   3.8007
  3.015   3.8316
  3.013   3.8625
  3.012   3.8110
  3.010   3.8934
  3.008   3.9964
  3.006   3.9552
  3.005   3.7595
  3.003   3.6050
  3.001   3.8213
  2.999   3.9140
  2.998   3.9449
  2.996   3.6977
  2.994   3.6256
  2.992   3.9140
  2.991   3.9758
  2.989   3.7286
  2.987   3.7286
  2.986   3.6874
  2.984   3.8110
  2.982   3.8316
  2.980   3.8007
  2.979   3.8522
  2.977   3.8934
  2.975   3.6874
  2.974   3.5226
  2.972   3.5947
  2.970   3.8934
  2.968   3.8728
  2.967   3.8007
  2.965   3.8522
  2.963   4.0479
  2.962   3.8625
  2.960   3.6256
  2.958   3.5638
  2.957   3.6668
  2.955   3.7183
  2.953   3.7389
  2.952   3.8522
  2.950   3.8934
  2.948   3.5741
  2.947   3.5741
  2.945   3.6359
  2.943   3.6977
  2.942   3.6565
  2.940   3.6050
  2.938   3.6359
  2.937   3.6977
  2.935   3.6771
  2.933   3.5741
  2.932   3.4814
  2.930   3.5947
  2.928   3.6565
  2.927   3.6153
  2.925   3.5123
  2.923   3.5432
  2.922   3.4917
  2.920   3.5432
  2.918   3.4608
  2.917   3.4814
  2.915   3.6462
  2.913   3.6771
  2.912   3.6668
  2.910   3.8110
  2.909   3.6668
  2.907   3.5638
  2.905   3.6153
  2.904   3.7595
  2.902   3.6256
  2.900   3.7080
  2.899   3.8213
  2.897   3.7698
  2.896   3.6565
  2.894   3.7080
  2.892   3.6050
  2.891   3.7286
  2.889   3.9655
  2.887   3.9964
  2.886   3.7801
  2.884   3.7595
  2.883   3.8522
  2.881   3.8007
  2.879   3.5535
  2.878   3.4814
  2.876   3.6153
  2.875   3.7801
  2.873   3.8728
  2.871   3.9037
  2.870   3.6668
  2.868   3.6359
  2.867   3.7698
  2.865   3.8625
  2.864   3.8419
  2.862   3.7080
  2.860   3.6050
  2.859   3.6359
  2.857   3.5947
  2.856   3.4505
  2.854   3.2857
  2.853   3.6565
  2.851   3.9037
  2.849   3.8110
  2.848   3.7286
  2.846   3.8007
  2.845   3.7904
  2.843   3.7286
  2.842   3.7904
  2.840   3.8316
  2.838   3.7904
  2.837   3.7080
  2.835   3.6771
  2.834   3.9449
  2.832   3.8625
  2.831   3.6977
  2.829   3.7595
  2.828   3.8831
  2.826   3.7080
  2.825   3.5947
  2.823   3.5020
  2.821   3.6977
  2.820   3.7595
  2.818   3.5844
  2.817   3.4711
  2.815   3.7286
  2.814   3.8934
  2.812   3.7801
  2.811   3.4917
  2.809   3.5020
  2.808   3.6359
  2.806   3.6874
  2.805   3.6977
  2.803   3.9655
  2.802   4.0376
  2.800   3.7904
  2.799   3.4711
  2.797   3.4402
  2.796   3.3578
  2.794   3.3681
  2.793   3.4505
  2.791   3.7801
  2.790   3.8419
  2.788   3.8110
  2.787   3.7183
  2.785   3.5638
  2.784   3.4711
  2.782   3.5741
  2.781   3.3990
  2.779   3.2960
  2.778   3.3269
  2.776   3.3475
  2.775   3.3372
  2.773   3.4505
  2.772   3.5020
  2.770   3.3887
  2.769   3.3784
  2.767   3.4917
  2.766   3.2754
  2.764   3.2445
  2.763   3.1827
  2.761   3.0900
  2.760   3.2239
  2.758   3.2960
  2.757   3.0694
  2.756   3.1621
  2.754   3.3269
  2.753   3.2239
  2.751   2.9870
  2.750   3.0900
  2.748   3.1415
  2.747   3.1003
  2.745   3.0385
  2.744   3.0076
  2.742   3.1003
  2.741   3.4814
  2.740   3.5329
  2.738   3.3784
  2.737   3.1106
  2.735   3.0694
  2.734   3.1312
  2.732   3.2239
  2.731   3.3372
  2.729   3.4608
  2.728   3.4505
  2.727   3.3269
  2.725   3.5020
  2.724   3.6153
  2.722   3.6153
  2.721   3.7389
  2.719   3.7080
  2.718   3.5638
  2.717   3.6874
  2.715   3.7286
  2.714   3.5123
  2.712   3.5020
  2.711   3.5638
  2.709   3.7080
  2.708   3.6668
  2.707   3.5638
  2.705   3.3681
  2.704   3.3372
  2.702   3.2754
  2.701   3.3475
  2.700   3.3887
  2.698   3.5638
  2.697   4.0376
  2.695   4.3878
  2.694   4.1200
  2.693   4.1818
  2.691   4.4187
  2.690   4.6762
  2.688   5.1912
  2.687   5.8195
  2.686   6.0873
  2.684   6.2933
  2.683   6.3654
  2.681   6.7053
  2.680   7.1070
  2.679   7.2615
  2.677   7.3748
  2.676   7.6735
  2.675   7.8486
  2.673   7.9413
  2.672   8.0649
  2.670   8.2297
  2.669   8.4769
  2.668   8.6211
  2.666   8.5593
  2.665   8.7859
  2.664   8.7859
  2.662   8.9301
  2.661   9.0125
  2.659   8.9507
  2.658   9.0846
  2.657   9.2597
  2.655   9.2597
  2.654   9.2906
  2.653   9.1464
  2.651   9.2288
  2.650   9.2082
  2.649   9.3936
  2.647   9.7232
  2.646   9.6820
  2.645   9.6408
  2.643   9.8880
  2.642   9.9189
  2.640  10.0425
  2.639   9.9807
  2.638   9.8777
  2.636   9.8674
  2.635  10.0425
  2.634   9.9807
  2.632   9.9704
  2.631   9.7850
  2.630   9.7747
  2.628   9.9395
  2.627  10.1970
  2.626  10.3824
  2.624  10.6296
  2.623  10.6193
  2.622  10.5163
  2.620  10.3515
  2.619  10.3206
  2.618  10.4957
  2.617  10.5266
  2.615  10.4648
  2.614  10.6296
  2.613  10.2794
  2.611   9.9498
  2.610  10.1249
  2.609  10.6090
  2.607  10.6708
  2.606  10.5987
  2.605  10.5884
  2.603  10.4545
  2.602  10.4442
  2.601  10.6708
  2.599  10.6914
  2.598  10.7944
  2.597  10.9180
  2.596  10.7223
  2.594  10.4545
  2.593  10.5060
  2.592  10.5472
  2.590  10.6399
  2.589  10.5884
  2.588  10.6914
  2.586  10.7326
  2.585  10.5781
  2.584  10.6193
  2.583  10.7326
  2.581  10.4339
  2.580  10.6193
  2.579  10.9798
  2.577  11.1343
  2.576  10.9283
  2.575  10.6296
  2.574  10.6296
  2.572  10.6708
  2.571  10.8974
  2.570  10.9695
  2.569  10.7532
  2.567  10.6811
  2.566  10.8665
  2.565  11.2270
  2.563  11.2682
  2.562  11.2682
  2.561  11.4124
  2.560  11.4021
  2.558  11.2270
  2.557  11.0931
  2.556  11.0725
  2.555  11.1858
  2.553  11.1858
  2.552  11.2888
  2.551  11.0519
  2.550  11.0622
  2.548  10.9077
  2.547  10.9283
  2.546  11.0931
  2.545  11.2682
  2.543  11.3094
  2.542  11.2991
  2.541  11.5154
  2.540  11.6596
  2.538  11.4433
  2.537  11.5669
  2.536  11.3712
  2.535  11.1755
  2.533  11.1858
  2.532  11.1549
  2.531  11.2888
  2.530  11.3506
  2.528  11.4639
  2.527  11.6287
  2.526  11.7523
  2.525  11.7214
  2.524  11.6184
  2.522  11.6905
  2.521  11.7935
  2.520  11.6184
  2.519  11.2785
  2.517  11.3094
  2.516  11.3918
  2.515  11.4845
  2.514  11.7111
  2.513  11.8965
  2.511  11.6802
  2.510  11.4639
  2.509  11.4536
  2.508  11.6390
  2.506  11.5566
  2.505  11.2888
  2.504  11.0931
  2.503  11.4227
  2.502  11.7111
  2.500  11.7832
  2.497  11.7832
  2.493  11.4832
  2.489  11.4832
  2.485  11.4832
  2.481  11.4832
  2.477  11.4832
  2.473  11.3832
  2.469  11.4832
  2.465  11.4832
  2.461  11.5832
  2.457  11.7832
  2.453  11.5832
  2.449  11.7832
  2.445  11.7832
  2.441  11.9832
  2.437  12.0832
  2.433  12.0832
  2.429  12.0832
  2.425  12.3832
  2.421  12.4832
  2.417  12.3832
  2.413  12.3832
  2.409  12.5832
  2.405  12.5832
  2.401  12.5832
  2.397  12.5832
  2.393  12.6832
  2.389  12.5832
  2.385  12.5832
  2.381  12.3832
  2.377  12.2832
  2.373  12.2832
  2.369  11.9832
  2.365  11.8832
  2.361  11.8832
  2.357  11.5832
  2.353  11.3832
  2.349  11.2832
  2.345  11.2832
  2.341  11.1832
  2.337  11.1832
  2.333  10.8832
  2.329  10.9832
  2.325  10.8832
  2.321  10.8832
  2.317  11.1832
  2.313  11.2832
  2.309  11.3832
  2.305  11.4832
  2.301  11.8832
  2.297  11.7832
  2.293  11.8832
  2.289  12.2832
  2.285  12.5832
  2.281  12.9832
  2.277  13.0832
  2.273  13.3832
  2.269  13.3832
  2.265  13.1832
  2.261  13.3832
  2.257  13.0832
  2.253  13.1832
  2.249  13.1832
  2.245  13.1832
  2.241  13.3832
  2.237  13.3832
  2.233  13.5832
  2.229  13.5832
  2.225  13.4832
  2.221  13.4832
  2.217  13.5832
  2.213  13.6832
  2.209  13.5832
  2.205  13.9832
  2.201  13.9832
  2.197  14.0832
  2.193  14.2832
  2.189  14.5832
  2.185  14.6832
  2.181  14.6832
  2.177  14.6832
  2.173  14.7832
  2.169  15.0832
  2.165  15.1832
  2.161  15.2832
  2.157  15.3832
  2.153  15.6832
  2.149  15.6832
  2.145  15.7832
  2.141  15.7832
  2.137  15.8832
  2.133  15.9832
  2.129  15.9832
  2.125  15.9832
  2.121  15.9832
  2.117  16.2832
  2.113  16.3832
  2.109  16.4832
  2.105  16.4832
  2.101  16.4832
  2.097  16.4832
  2.093  16.3832
  2.089  16.7832
  2.085  16.6832
  2.081  16.6832
  2.077  16.3832
  2.073  16.3832
  2.069  16.4832
  2.065  16.3832
  2.061  16.2832
  2.057  16.1832
  2.053  16.2832
  2.049  16.2832
  2.045  16.3832
  2.041  16.3832
  2.037  16.3832
  2.033  16.2832
  2.029  16.1832
  2.025  15.8832
  2.021  15.9832
  2.017  15.8832
  2.013  15.8832
  2.009  15.8832
  2.005  15.8832
  2.001  15.8832
  1.997  15.8832
  1.993  15.6832
  1.989  15.5832
  1.985  15.3832
  1.981  15.3832
  1.977  15.3832
  1.973  15.3832
  1.969  15.3832
  1.965  15.3832
  1.961  15.2832
  1.957  15.1832
  1.953  15.1832
  1.949  15.0832
  1.945  14.8832
  1.941  14.8832
  1.937  14.7832
  1.933  14.8832
  1.929  14.8832
  1.925  14.7832
  1.921  14.6832
  1.917  14.4832
  1.913  14.5832
  1.909  14.7832
  1.905  15.0832
  1.901  15.0832
  1.897  15.3832
  1.893  15.7832
  1.889  15.8832
  1.885  16.1832
  1.881  16.3832
  1.877  16.4832
  1.873  16.6832
  1.869  16.4832
  1.865  16.6832
  1.861  16.7832
  1.857  16.9832
  1.853  17.0832
  1.849  17.0832
  1.845  17.2832
  1.841  17.2832
  1.837  17.2832
  1.833  16.9832
  1.829  16.9832
  1.825  16.9832
  1.821  17.0832
  1.817  17.2832
  1.813  17.0832
  1.809  17.0832
  1.805  17.2832
  1.801  17.2832
  1.797  17.2832
  1.793  17.3832
  1.789  17.3832
  1.785  17.3832
  1.781  17.3832
  1.777  17.3832
  1.773  17.4832
  1.769  17.5832
  1.765  17.5832
  1.761  17.7832
  1.757  17.3832
  1.753  17.0832
  1.749  17.2832
  1.745  17.2832
  1.741  17.3832
  1.737  17.3832
  1.733  17.4832
  1.729  17.5832
  1.725  17.4832
  1.721  17.4832
  1.717  17.4832
  1.713  17.4832
  1.709  17.3832
  1.705  17.4832
  1.701  17.5832
  1.697  17.4832
  1.693  17.4832
  1.689  17.4832
  1.685  17.5832
  1.681  17.5832
  1.677  17.5832
  1.673  17.4832
  1.669  17.5832
  1.665  17.4832
  1.661  17.4832
  1.657  17.4832
  1.653  17.5832
  1.649  17.5832
  1.645  17.5832
  1.641  17.7832
  1.637  17.8832
  1.633  17.7832
  1.629  17.8832
  1.625  17.7832
  1.621  17.4832
  1.617  17.5832
  1.613  17.5832
  1.609  17.7832
  1.605  17.8832
  1.601  17.7832
  1.597  17.8832
  1.593  17.7832
  1.589  17.7832
  1.585  17.5832
  1.581  17.5832
  1.577  17.4832
  1.573  17.5832
  1.569  17.5832
  1.565  17.4832
  1.561  17.5832
  1.557  17.5832
  1.553  17.3832
  1.549  17.2832
  1.545  17.2832
  1.541  17.4832
  1.537  17.4832
  1.533  17.7832
  1.529  17.7832
  1.525  17.5832
  1.521  17.4832
  1.517  17.5832
  1.513  17.7832
  1.509  17.7832
  1.505  17.5832
  1.501  17.4832
  1.497  17.5832
  1.493  17.5832
  1.489  17.7832
  1.485  17.7832
  1.481  17.7832
  1.477  17.8832
  1.473  17.5832
  1.469  17.8832
  1.465  17.8832
  1.461  17.8832
  1.457  17.8832
  1.453  17.8832
  1.449  17.9832
  1.445  17.9832
  1.441  17.9832
  1.437  17.7832
  1.433  17.7832
  1.429  17.5832
  1.425  17.4832
  1.421  17.2832
  1.417  17.0832
  1.413  16.8832
  1.409  16.9832
  1.405  17.0832
  1.401  17.0832
  1.397  17.2832
  1.393  17.5832
  1.389  17.4832
  1.385  17.8832
  1.381  18.0832
  1.377  17.8832
  1.373  18.0832
  1.369  18.5832
  1.365  18.5832
  1.361  18.5832
  1.357  18.5832
  1.353  18.5832
  1.349  18.5832
  1.345  18.6832
  1.341  18.9832
  1.337  19.0832
  1.333  18.9832
  1.329  18.6832
  1.325  18.6832
  1.321  18.8832
  1.317  18.8832
  1.313  18.8832
  1.309  18.8832
  1.305  18.8832
  1.301  18.8832
  1.297  18.9832
  1.293  18.8832
  1.289  18.9832
  1.285  18.9832
  1.281  18.8832
  1.277  18.5832
  1.273  18.5832
  1.269  18.4832
  1.265  18.3832
  1.261  18.3832
  1.257  18.4832
  1.253  18.5832
  1.249  18.5832
  1.245  18.4832
  1.241  18.5832
  1.237  18.5832
  1.233  18.5832
  1.229  18.5832
  1.225  18.5832
  1.221  18.6832
  1.217  18.4832
  1.213  18.3832
  1.209  18.3832
  1.205  18.3832
  1.201  18.3832
  1.197  18.3832
  1.193  18.1832
  1.189  18.1832
  1.185  18.1832
  1.181  18.3832
  1.177  18.3832
  1.173  18.3832
  1.169  18.1832
  1.165  18.3832
  1.161  18.1832
  1.157  18.1832
  1.153  18.1832
  1.149  18.1832
  1.145  18.0832
  1.141  18.0832
  1.137  17.9832
  1.133  18.0832
  1.129  18.0832
  1.125  17.9832
  1.121  17.9832
  1.117  17.9832
  1.113  17.8832
  1.109  17.8832
  1.105  17.7832
  1.101  17.9832
  1.097  18.0832
  1.093  18.0832
  1.089  17.9832
  1.085  18.0832
  1.081  17.9832
  1.077  17.8832
  1.073  18.0832
  1.069  18.0832
  1.065  18.1832
  1.061  18.1832
  1.057  17.9832
  1.053  17.8832
  1.049  17.7832
  1.045  17.8832
  1.041  17.9832
  1.037  17.9832
  1.033  17.9832
  1.029  18.0832
  1.025  18.0832
  1.021  17.9832
  1.017  17.9832
  1.013  18.0832
  1.009  18.1832
  1.005  18.1832
  1.001  18.1832
  0.997  18.4832
  0.993  18.3832
  0.989  18.3832
  0.985  18.1832
  0.981  18.0832
  0.977  18.4832
  0.973  18.3832
  0.969  18.0832
  0.965  18.3832
  0.961  18.3832
  0.957  18.0832
  0.953  18.3832
  0.949  18.1832
  0.945  18.3832
  0.941  18.4832
  0.937  18.1832
  0.933  18.1832
  0.929  18.3832
  0.925  18.3832
  0.921  18.3832
  0.917  18.3832
  0.913  18.3832
  0.909  18.3832
  0.905  18.1832
  0.901  18.4832
  0.897  18.3832
  0.893  18.3832
  0.889  18.3832
  0.885  18.3832
  0.881  18.3832
  0.877  18.4832
  0.873  18.4832
  0.869  18.4832
  0.865  18.4832
  0.861  18.5832
  0.857  18.5832
  0.853  18.4832
  0.849  18.5832
  0.845  18.6832
  0.841  18.6832
  0.837  18.8832
  0.833  18.9832
  0.829  18.8832
  0.825  19.0832
  0.821  19.0832
  0.817  19.1832
  0.813  19.1832
  0.809  19.4832
  0.805  19.4832
  0.804  19.0832
  0.803  19.0832
  0.802  19.1832
  0.801  19.2832
  0.800  19.1832
  0.799  19.2832
  0.798  19.2832
  0.797  19.1832
  0.796  19.1832
  0.795  18.9832
  0.794  18.9832
  0.793  19.0832
  0.792  19.2832
  0.791  19.2832
  0.790  19.4832
  0.789  19.2832
  0.788  19.2832
  0.787  19.1832
  0.786  19.2832
  0.785  19.1832
  0.784  19.0832
  0.783  19.1832
  0.782  19.2832
  0.781  19.0832
  0.780  19.0832
  0.779  19.0832
  0.778  18.9832
  0.777  19.1832
  0.776  19.0832
  0.775  19.1832
  0.774  19.1832
  0.773  19.1832
  0.772  18.6832
  0.771  18.8832
  0.770  18.9832
  0.769  19.1832
  0.768  18.8832
  0.767  18.8832
  0.766  19.0832
  0.765  18.8832
  0.764  18.6832
  0.763  18.8832
  0.762  18.6832
  0.761  19.0832
  0.760  18.9832
  0.759  18.8832
  0.758  18.8832
  0.757  18.6832
  0.756  18.6832
  0.755  18.9832
  0.754  18.8832
  0.753  18.6832
  0.752  18.5832
  0.751  18.6832
  0.750  18.8832
  0.749  18.6832
  0.748  18.5832
  0.747  18.4832
  0.746  18.6832
  0.745  18.6832
  0.744  18.6832
  0.743  18.5832
  0.742  18.1832
  0.741  18.1832
  0.740  18.3832
  0.739  18.5832
  0.738  18.3832
  0.737  18.3832
  0.736  18.4832
  0.735  18.3832
  0.734  18.1832
  0.733  18.1832
  0.732  18.4832
  0.731  18.4832
  0.730  18.4832
  0.729  18.4832
  0.728  18.3832
  0.727  18.1832
  0.726  17.8832
  0.725  18.0832
  0.724  18.3832
  0.723  18.5832
  0.722  18.1832
  0.721  18.3832
  0.720  18.1832
  0.719  18.1832
  0.718  18.1832
  0.717  18.1832
  0.716  18.0832
  0.715  18.0832
  0.714  18.1832
  0.713  18.4832
  0.712  18.0832
  0.711  17.9832
  0.710  17.9832
  0.709  17.9832
  0.708  17.9832
  0.707  17.9832
  0.706  17.5832
  0.705  17.5832
  0.704  17.9832
  0.703  17.3832
  0.702  17.3832
  0.701  17.4832
  0.700  17.7832
  0.699  17.7832
  0.698  17.4832
  0.697  17.3832
  0.696  17.3832
  0.695  17.5832
  0.694  17.5832
  0.693  17.5832
  0.692  17.3832
  0.691  17.5832
  0.690  17.7832
  0.689  17.5832
  0.688  17.3832
  0.687  17.2832
  0.686  17.2832
  0.685  17.2832
  0.684  17.2832
  0.683  17.0832
  0.682  17.3832
  0.681  17.3832
  0.680  17.5832
  0.679  17.3832
  0.678  17.3832
  0.677  17.4832
  0.676  17.3832
  0.675  17.3832
  0.674  17.2832
  0.673  17.2832
  0.672  17.2832
  0.671  17.2832
  0.670  17.3832
  0.669  17.0832
  0.668  17.4832
  0.667  17.0832
  0.666  17.3832
  0.665  17.0832
  0.664  17.0832
  0.663  16.9832
  0.662  17.0832
  0.661  17.2832
  0.660  16.8832
  0.659  17.0832
  0.658  17.0832
  0.657  16.9832
  0.656  16.8832
  0.655  17.0832
  0.654  16.9832
  0.653  16.9832
  0.652  16.8832
  0.651  16.7832
  0.650  16.7832
  0.649  16.7832
  0.648  16.7832
  0.647  16.4832
  0.646  16.6832
  0.645  16.8832
  0.644  16.8832
  0.643  16.9832
  0.642  16.8832
  0.641  16.8832
  0.640  16.8832
  0.639  16.8832
  0.638  16.6832
  0.637  16.7832
  0.636  16.6832
  0.635  16.6832
  0.634  16.6832
  0.633  16.6832
  0.632  16.7832
  0.631  16.6832
  0.630  16.6832
  0.629  16.6832
  0.628  16.6832
  0.627  16.4832
  0.626  16.6832
  0.625  16.7832
  0.624  16.4832
  0.623  16.3832
  0.622  16.3832
  0.621  16.6832
  0.620  16.4832
  0.619  16.6832
  0.618  16.6832
  0.617  16.6832
  0.616  16.7832
  0.615  16.6832
  0.614  16.3832
  0.613  16.4832
  0.612  16.3832
  0.611  16.4832
  0.610  16.3832
  0.609  16.4832
  0.608  16.3832
  0.607  16.3832
  0.606  16.2832
  0.605  16.3832
  0.604  16.3832
  0.603  16.4832
  0.602  16.1832
  0.601  16.3832
  0.600  16.1832
  0.599  16.1832
  0.598  16.1832
  0.597  15.9832
  0.596  16.1832
  0.595  15.9832
  0.594  15.9832
  0.593  15.9832
  0.592  15.8832
  0.591  15.6832
  0.590  15.3832
  0.589  15.3832
  0.588  15.5832
  0.587  15.6832
  0.586  15.5832
  0.585  15.6832
  0.584  15.6832
  0.583  15.2832
  0.582  15.3832
  0.581  15.3832
  0.580  15.2832
  0.579  15.3832
  0.578  15.1832
  0.577  14.8832
  0.576  14.8832
  0.575  15.0832
  0.574  15.0832
  0.573  15.1832
  0.572  14.8832
  0.571  14.7832
  0.570  14.5832
  0.569  14.5832
  0.568  14.6832
  0.567  14.4832
  0.566  14.2832
  0.565  14.1832
  0.564  14.0832
  0.563  14.0832
  0.562  14.0832
  0.561  14.0832
  0.560  14.1832
  0.559  14.0832
  0.558  13.9832
  0.557  13.9832
  0.556  13.6832
  0.555  13.4832
  0.554  13.1832
  0.553  13.0832
  0.552  12.8832
  0.551  13.0832
  0.550  13.0832
  0.549  12.9832
  0.548  12.8832
  0.547  12.5832
  0.546  12.3832
  0.545  12.3832
  0.544  12.4832
  0.543  12.2832
  0.542  11.9832
  0.541  11.9832
  0.540  11.7832
  0.539  11.8832
  0.538  11.7832
  0.537  11.3832
  0.536  11.3832
  0.535  11.3832
  0.534  11.2832
  0.533  11.2832
  0.532  10.9832
  0.531  10.9832
  0.530  10.8832
  0.529  10.7832
  0.528  10.6832
  0.527  10.3832
  0.526  10.4832
  0.525  10.4832
  0.524  10.2832
  0.523  10.1832
  0.522  10.0832
  0.521   9.8832
  0.520   9.7832
  0.519   9.7832
  0.518   9.8832
  0.517   9.7832
  0.516   9.5832
  0.515   9.4832
  0.514   9.2832
  0.513   9.1832
  0.512   9.1832
  0.511   8.9832
  0.510   8.9832
  0.509   9.0832
  0.508   8.9832
  0.507   8.6832
  0.506   8.4832
  0.505   8.4832
  0.504   8.5832
  0.503   8.4832
  0.502   8.4832
  0.501   8.4832
  0.500   8.3832
  0.499   7.9832
  0.498   8.0832
  0.497   8.0832
  0.496   7.9832
  0.495   7.8832
  0.494   7.9832
  0.493   7.9832
  0.492   7.9832
  0.491   7.5832
  0.490   7.5832
  0.489   7.4832
  0.488   7.5832
  0.487   7.4832
  0.486   7.3832
  0.485   7.3832
  0.484   7.3832
  0.483   7.3832
  0.482   7.3832
  0.481   7.4832
  0.480   7.3832
  0.479   7.2832
  0.478   7.2832
  0.477   7.2832
  0.476   7.3832
  0.475   7.3832
  0.474   7.4832
  0.473   7.3832
  0.472   7.4832
  0.471   7.4832
  0.470   7.4832
  0.469   7.3832
  0.468   7.3832
  0.467   7.3832
  0.466   7.5832
  0.465   7.5832
  0.464   7.2832
  0.463   7.6832
  0.462   7.6832
  0.461   7.5832
  0.460   7.4832
  0.459   7.4832
  0.458   7.3832
  0.457   7.3832
  0.456   7.3832
  0.455   7.5832
  0.454   7.4832
  0.453   7.4832
  0.452   7.4832
  0.451   7.6832
  0.450   7.8832
  0.449   7.8832
  0.448   7.8832
  0.447   7.3832
  0.446   7.0832
  0.445   7.2832
  0.444   7.4832
  0.443   7.4832
  0.442   7.2832
  0.441   7.2832
  0.440   7.2832
  0.439   7.0832
  0.438   7.2832
  0.437   7.0832
  0.436   6.7832
  0.435   6.5832
  0.434   6.5832
  0.433   6.5832
  0.432   6.8832
  0.431   6.7832
  0.430   6.5832
  0.429   6.5832
  0.428   6.5832
  0.427   6.5832
  0.426   6.4832
  0.425   6.4832
  0.424   6.5832
  0.423   6.4832
  0.422   6.4832
  0.421   6.3832
  0.420   6.3832
  0.419   6.4832
  0.418   6.4832
  0.417   6.3832
  0.416   6.3832
  0.415   6.2832
  0.414   6.2832
  0.413   6.3832
  0.412   6.4832
  0.411   6.4832
  0.410   6.3832
  0.409   6.2832
  0.408   6.3832
  0.407   6.3832
  0.406   6.2832
  0.405   6.2832
