Name: Basalt
Type: Rock
Class: Igneous
Subclass: Mafic
Particle Size: Whole rock chips
Sample No.: Me11a
Owner: Lawrence Rowan, USGS Reston
Wavelength range: 0.40 - 14.05 um
Origin: Jebel, Jordan

Description: Basalt, fresh surface





Measurement: Directional Hemispherical Reflectance
First Column: X
Second Column: Y
X Units: Wavelength (micrometers)
Y Units: Reflectance (percent)
First X Value: 14.05105
Last X Value: 0.40000
Number of X Values: 2231
Additional Information: me11aa.txt

 14.051   3.8728
 14.013   3.8522
 13.975   3.8728
 13.938   3.7389
 13.900   3.6874
 13.863   3.6771
 13.826   3.7286
 13.790   3.5844
 13.753   3.5432
 13.717   3.5432
 13.680   3.5741
 13.644   3.5226
 13.609   3.5844
 13.573   3.6153
 13.538   3.5844
 13.502   3.5329
 13.467   3.6565
 13.432   3.7080
 13.398   3.8110
 13.363   3.8934
 13.329   3.8831
 13.295   3.8316
 13.261   3.7801
 13.227   3.7698
 13.193   3.9449
 13.160   3.9552
 13.126   3.9346
 13.093   3.9552
 13.060   3.9964
 13.027   3.9449
 12.995   3.9655
 12.962   3.9964
 12.930   4.0067
 12.898   3.9346
 12.866   3.9140
 12.834   3.9861
 12.802   4.0479
 12.771   4.1406
 12.739   4.2333
 12.708   4.1406
 12.677   4.2024
 12.646   4.2848
 12.616   4.3981
 12.585   4.3981
 12.554   4.5011
 12.524   4.5835
 12.494   4.5732
 12.464   4.5320
 12.434   4.7174
 12.404   4.8513
 12.375   4.9234
 12.345   4.9852
 12.316   5.0058
 12.287   5.0470
 12.258   5.2015
 12.229   5.2942
 12.200   5.4178
 12.171   5.4899
 12.143   5.6650
 12.115   5.7577
 12.086   5.8813
 12.058   6.0255
 12.030   6.1491
 12.002   6.2212
 11.975   6.3551
 11.947   6.4272
 11.920   6.4684
 11.892   6.4478
 11.865   6.5405
 11.838   6.6538
 11.811   6.9113
 11.784   7.0967
 11.757   7.2924
 11.731   7.4572
 11.704   7.6323
 11.678   7.8383
 11.652   8.0649
 11.626   8.2194
 11.600   8.3636
 11.574   8.5387
 11.548   8.7550
 11.522   8.9404
 11.497   9.2597
 11.471   9.5996
 11.446   9.8468
 11.421   9.8880
 11.396  10.0631
 11.371  10.3309
 11.346  10.4957
 11.321  10.5163
 11.297  10.6914
 11.272  10.8974
 11.248  11.0004
 11.223  10.9901
 11.199  10.8974
 11.175  10.8562
 11.151  10.9798
 11.127  11.0725
 11.103  11.1858
 11.079  11.2270
 11.056  11.3712
 11.032  11.5051
 11.009  11.6390
 10.985  11.7523
 10.962  11.8244
 10.939  11.9377
 10.916  11.9892
 10.893  11.8450
 10.870  11.8965
 10.848  11.9995
 10.825  12.1746
 10.802  12.2467
 10.780  12.2158
 10.758  12.1540
 10.735  12.1952
 10.713  12.2570
 10.691  12.3188
 10.669  12.3394
 10.647  12.3703
 10.625  12.4012
 10.604  12.4218
 10.582  12.3497
 10.560  12.2982
 10.539  12.2467
 10.518  12.1643
 10.496  12.1128
 10.475  12.2055
 10.454  12.3497
 10.433  12.6175
 10.412  12.8544
 10.391  13.1222
 10.370  13.3694
 10.350  13.6269
 10.329  13.7814
 10.309  13.8844
 10.288  13.9668
 10.268  14.0904
 10.247  14.1419
 10.227  14.1831
 10.207  14.1934
 10.187  14.2346
 10.167  14.2243
 10.147  14.1419
 10.127  14.0698
 10.108  14.1419
 10.088  14.2140
 10.068  14.3067
 10.049  14.4303
 10.029  14.6672
 10.010  14.8423
  9.991  14.9762
  9.972  15.0689
  9.952  15.2440
  9.933  15.3779
  9.914  15.4088
  9.895  15.5118
  9.877  15.6251
  9.858  15.6972
  9.839  15.8002
  9.821  15.8414
  9.802  15.9238
  9.783  15.8723
  9.765  15.9547
  9.747  15.9959
  9.728  16.0680
  9.710  16.1710
  9.692  16.2328
  9.674  16.2122
  9.656  16.2122
  9.638  16.1710
  9.620  16.2431
  9.602  16.2637
  9.585  16.1916
  9.567  16.1401
  9.549  15.9856
  9.532  15.7899
  9.514  15.6869
  9.497  15.4706
  9.479  15.1616
  9.462  14.8629
  9.445  14.6260
  9.428  14.3994
  9.411  14.0904
  9.394  13.6990
  9.377  13.3179
  9.360  12.9368
  9.343  12.6278
  9.326  12.3703
  9.309  12.1952
  9.293  12.0407
  9.276  11.8553
  9.259  11.6699
  9.243  11.5978
  9.226  11.5463
  9.210  11.5566
  9.194  11.5154
  9.178  11.5257
  9.161  11.6287
  9.145  11.8347
  9.129  11.8965
  9.113  11.8141
  9.097  11.7008
  9.081  11.6699
  9.065  11.5669
  9.049  11.4536
  9.034  11.3094
  9.018  11.1446
  9.002  10.9592
  8.987  10.7120
  8.971  10.3824
  8.956  10.0837
  8.940   9.7438
  8.925   9.5481
  8.909   9.2700
  8.894   8.9507
  8.879   8.5593
  8.864   8.1988
  8.849   7.8280
  8.834   7.6426
  8.819   7.3954
  8.804   7.0761
  8.789   6.8701
  8.774   6.6950
  8.759   6.4787
  8.744   6.2933
  8.730   6.0564
  8.715   5.9328
  8.700   5.7783
  8.686   5.6959
  8.671   5.5826
  8.657   5.5002
  8.642   5.3251
  8.628   5.2118
  8.614   5.1603
  8.599   5.0161
  8.585   4.8616
  8.571   4.8204
  8.557   4.7174
  8.543   4.5938
  8.529   4.5011
  8.515   4.4290
  8.501   4.3878
  8.487   4.3775
  8.473   4.3363
  8.459   4.3466
  8.445   4.3157
  8.431   4.2745
  8.418   4.1509
  8.404   4.1406
  8.391   4.1097
  8.377   4.0685
  8.363   3.9449
  8.350   3.8728
  8.337   3.7595
  8.323   3.6977
  8.310   3.6565
  8.297   3.6462
  8.283   3.6565
  8.270   3.5123
  8.257   3.2857
  8.244   3.1827
  8.231   3.1518
  8.218   3.0900
  8.205   2.9664
  8.192   2.9355
  8.179   2.8737
  8.166   2.7707
  8.153   2.6677
  8.140   2.6574
  8.128   2.6574
  8.115   2.5956
  8.102   2.5029
  8.090   2.4926
  8.077   2.4102
  8.064   2.3484
  8.052   2.3587
  8.039   2.3999
  8.027   2.3896
  8.015   2.3381
  8.002   2.2763
  7.990   2.3175
  7.978   2.2660
  7.965   2.3175
  7.953   2.3484
  7.941   2.3072
  7.929   2.2454
  7.917   2.3072
  7.905   2.3484
  7.893   2.3587
  7.881   2.2866
  7.869   2.2660
  7.857   2.3072
  7.845   2.3381
  7.833   2.2969
  7.821   2.2969
  7.809   2.2866
  7.798   2.2969
  7.786   2.2557
  7.774   2.2454
  7.763   2.2557
  7.751   2.2969
  7.739   2.3278
  7.728   2.3278
  7.716   2.3072
  7.705   2.3999
  7.694   2.4102
  7.682   2.3793
  7.671   2.3999
  7.659   2.4720
  7.648   2.4720
  7.637   2.4411
  7.626   2.3999
  7.614   2.4205
  7.603   2.3999
  7.592   2.3896
  7.581   2.4205
  7.570   2.4823
  7.559   2.5338
  7.548   2.5029
  7.537   2.4823
  7.526   2.5338
  7.515   2.4926
  7.504   2.5029
  7.493   2.5235
  7.483   2.5132
  7.472   2.5029
  7.461   2.5338
  7.450   2.5750
  7.440   2.5544
  7.429   2.5029
  7.418   2.5338
  7.408   2.5441
  7.397   2.5853
  7.387   2.6162
  7.376   2.6883
  7.366   2.6883
  7.355   2.6883
  7.345   2.6368
  7.334   2.6471
  7.324   2.6883
  7.314   2.6883
  7.303   2.6883
  7.293   2.7295
  7.283   2.7501
  7.273   2.7295
  7.263   2.6986
  7.252   2.7604
  7.242   2.8531
  7.232   2.8840
  7.222   2.7501
  7.212   2.6883
  7.202   2.7810
  7.192   2.9046
  7.182   2.9046
  7.172   2.8943
  7.162   2.8634
  7.152   2.9458
  7.143   2.9767
  7.133   2.9046
  7.123   2.9355
  7.113   3.0076
  7.103   2.9973
  7.094   3.0076
  7.084   2.9973
  7.074   3.0385
  7.065   3.0591
  7.055   3.0385
  7.046   3.0900
  7.036   3.2651
  7.026   3.2548
  7.017   3.1415
  7.007   3.1003
  6.998   3.1518
  6.989   3.1209
  6.979   3.1003
  6.970   3.1518
  6.960   3.2857
  6.951   3.2548
  6.942   3.1518
  6.932   3.1003
  6.923   3.1106
  6.914   3.1209
  6.905   3.1827
  6.896   3.2754
  6.886   3.2960
  6.877   3.2239
  6.868   3.3269
  6.859   3.4299
  6.850   3.3372
  6.841   3.2960
  6.832   3.2960
  6.823   3.2857
  6.814   3.2651
  6.805   3.2548
  6.796   3.3372
  6.787   3.3578
  6.778   3.4402
  6.770   3.3990
  6.761   3.3269
  6.752   3.3372
  6.743   3.3269
  6.734   3.2445
  6.726   3.2548
  6.717   3.3578
  6.708   3.4196
  6.700   3.3887
  6.691   3.3887
  6.682   3.3990
  6.674   3.3887
  6.665   3.3887
  6.657   3.4093
  6.648   3.4917
  6.640   3.5947
  6.631   3.6462
  6.623   3.5329
  6.614   3.4093
  6.606   3.3990
  6.597   3.4299
  6.589   3.4608
  6.581   3.4505
  6.572   3.5844
  6.564   3.6256
  6.556   3.5638
  6.547   3.5329
  6.539   3.5432
  6.531   3.4814
  6.523   3.4917
  6.514   3.5432
  6.506   3.5226
  6.498   3.4402
  6.490   3.4505
  6.482   3.4917
  6.474   3.4814
  6.466   3.5020
  6.458   3.5535
  6.450   3.5020
  6.442   3.4917
  6.434   3.5020
  6.426   3.4608
  6.418   3.3990
  6.410   3.5329
  6.402   3.4917
  6.394   3.3269
  6.386   3.2445
  6.378   3.2548
  6.370   3.2651
  6.363   3.3063
  6.355   3.1827
  6.347   3.1415
  6.339   3.2239
  6.332   3.2342
  6.324   3.1415
  6.316   3.1106
  6.308   3.0591
  6.301   3.0797
  6.293   3.0900
  6.286   3.1003
  6.278   3.0694
  6.270   3.0694
  6.263   3.1312
  6.255   3.1930
  6.248   3.1106
  6.240   3.0282
  6.233   3.0694
  6.225   3.1106
  6.218   3.0694
  6.210   3.0385
  6.203   3.0282
  6.195   3.0076
  6.188   2.9561
  6.181   2.9973
  6.173   2.9870
  6.166   2.9561
  6.159   2.9664
  6.151   2.9458
  6.144   2.8737
  6.137   2.8634
  6.130   2.8531
  6.122   2.8840
  6.115   2.9458
  6.108   2.9767
  6.101   2.8737
  6.094   2.8531
  6.086   2.8737
  6.079   2.8737
  6.072   2.8737
  6.065   2.9561
  6.058   2.9767
  6.051   3.0591
  6.044   3.0694
  6.037   2.9870
  6.030   2.9252
  6.023   2.9355
  6.016   2.9664
  6.009   3.0385
  6.002   2.9973
  5.995   2.9252
  5.988   2.9973
  5.981   3.0900
  5.974   3.0694
  5.967   3.0900
  5.960   3.0900
  5.954   3.0797
  5.947   3.1209
  5.940   3.1415
  5.933   3.2136
  5.926   3.2136
  5.920   3.1518
  5.913   3.1827
  5.906   3.2239
  5.899   3.2754
  5.893   3.3269
  5.886   3.3578
  5.879   3.3990
  5.873   3.3475
  5.866   3.3269
  5.859   3.3784
  5.853   3.3372
  5.846   3.3475
  5.840   3.4093
  5.833   3.4505
  5.827   3.4711
  5.820   3.5638
  5.813   3.5638
  5.807   3.4917
  5.800   3.5020
  5.794   3.5020
  5.788   3.4711
  5.781   3.4917
  5.775   3.5329
  5.768   3.6565
  5.762   3.7801
  5.755   3.7080
  5.749   3.6050
  5.743   3.6050
  5.736   3.5638
  5.730   3.5947
  5.724   3.6462
  5.717   3.6565
  5.711   3.6977
  5.705   3.7183
  5.698   3.6256
  5.692   3.6668
  5.686   3.6977
  5.680   3.7183
  5.674   3.7286
  5.667   3.7183
  5.661   3.6874
  5.655   3.7286
  5.649   3.6668
  5.643   3.6874
  5.637   3.8110
  5.630   3.8419
  5.624   3.7698
  5.618   3.7492
  5.612   3.7183
  5.606   3.7389
  5.600   3.7904
  5.594   3.8419
  5.588   3.8213
  5.582   3.8213
  5.576   3.8419
  5.570   3.8316
  5.564   3.8213
  5.558   3.7801
  5.552   3.7389
  5.546   3.7801
  5.540   3.8110
  5.534   3.8110
  5.528   3.8728
  5.523   3.9449
  5.517   3.9037
  5.511   3.8316
  5.505   3.8110
  5.499   3.8728
  5.493   3.8728
  5.487   3.8831
  5.482   3.9037
  5.476   3.9552
  5.470   3.9449
  5.464   3.9758
  5.459   4.0170
  5.453   4.0170
  5.447   3.9346
  5.441   3.9449
  5.436   3.9655
  5.430   4.0376
  5.424   4.0479
  5.419   4.0273
  5.413   4.0067
  5.407   4.0170
  5.402   4.0067
  5.396   4.0376
  5.390   4.0376
  5.385   4.0582
  5.379   4.0067
  5.374   4.0170
  5.368   4.0376
  5.363   4.0479
  5.357   4.0685
  5.352   4.0891
  5.346   4.0788
  5.341   4.0685
  5.335   4.0788
  5.330   4.0994
  5.324   4.0170
  5.319   3.9964
  5.313   4.0788
  5.308   4.1303
  5.302   4.1200
  5.297   4.1509
  5.291   4.1406
  5.286   4.1097
  5.281   4.0891
  5.275   4.1509
  5.270   4.1097
  5.265   4.0994
  5.259   4.0994
  5.254   4.0994
  5.249   4.0994
  5.243   4.1097
  5.238   4.1303
  5.233   4.1509
  5.227   4.1303
  5.222   4.1303
  5.217   4.1612
  5.212   4.2024
  5.206   4.1921
  5.201   4.1715
  5.196   4.1406
  5.191   4.1509
  5.186   4.1715
  5.180   4.1509
  5.175   4.1406
  5.170   4.2127
  5.165   4.2024
  5.160   4.1612
  5.155   4.2230
  5.150   4.2642
  5.145   4.2127
  5.139   4.1509
  5.134   4.1406
  5.129   4.1406
  5.124   4.1612
  5.119   4.1715
  5.114   4.1509
  5.109   4.1612
  5.104   4.1406
  5.099   4.1509
  5.094   4.1715
  5.089   4.1921
  5.084   4.1509
  5.079   4.1097
  5.074   4.1612
  5.069   4.1921
  5.064   4.1921
  5.059   4.2539
  5.054   4.2333
  5.049   4.2230
  5.044   4.2436
  5.040   4.2436
  5.035   4.2436
  5.030   4.2127
  5.025   4.1921
  5.020   4.2436
  5.015   4.3157
  5.010   4.2848
  5.005   4.2127
  5.001   4.2436
  4.996   4.2951
  4.991   4.2642
  4.986   4.2539
  4.981   4.3466
  4.977   4.3466
  4.972   4.3260
  4.967   4.3157
  4.962   4.2848
  4.958   4.2951
  4.953   4.3672
  4.948   4.3878
  4.943   4.3672
  4.939   4.3466
  4.934   4.3569
  4.929   4.3260
  4.925   4.3260
  4.920   4.3672
  4.915   4.3878
  4.911   4.3878
  4.906   4.4908
  4.901   4.5114
  4.897   4.5011
  4.892   4.4496
  4.888   4.3878
  4.883   4.3878
  4.878   4.4187
  4.874   4.4187
  4.869   4.4290
  4.865   4.3775
  4.860   4.4599
  4.856   4.5011
  4.851   4.4599
  4.846   4.4599
  4.842   4.5320
  4.837   4.5526
  4.833   4.5526
  4.828   4.5526
  4.824   4.5423
  4.819   4.5114
  4.815   4.5835
  4.810   4.6350
  4.806   4.5835
  4.802   4.5526
  4.797   4.6350
  4.793   4.6762
  4.788   4.6247
  4.784   4.5114
  4.779   4.5011
  4.775   4.6041
  4.771   4.6041
  4.766   4.5526
  4.762   4.6247
  4.758   4.6453
  4.753   4.6350
  4.749   4.6350
  4.744   4.6968
  4.740   4.7483
  4.736   4.7277
  4.731   4.6762
  4.727   4.7277
  4.723   4.6968
  4.719   4.6968
  4.714   4.7071
  4.710   4.7586
  4.706   4.7277
  4.701   4.6968
  4.697   4.6865
  4.693   4.7380
  4.689   4.8307
  4.684   4.8719
  4.680   4.8204
  4.676   4.7689
  4.672   4.7174
  4.668   4.7792
  4.663   4.8307
  4.659   4.8307
  4.655   4.7895
  4.651   4.7998
  4.647   4.9131
  4.643   4.9749
  4.638   4.9440
  4.634   4.9646
  4.630   4.9646
  4.626   4.9234
  4.622   4.9440
  4.618   4.9955
  4.614   4.9955
  4.610   4.9234
  4.605   4.8822
  4.601   4.9337
  4.597   4.9749
  4.593   5.0367
  4.589   4.9337
  4.585   4.9440
  4.581   5.0058
  4.577   5.0264
  4.573   5.0161
  4.569   5.0367
  4.565   5.0779
  4.561   5.0573
  4.557   5.0161
  4.553   4.9852
  4.549   4.9749
  4.545   5.0058
  4.541   5.0264
  4.537   5.0676
  4.533   5.0779
  4.529   5.0367
  4.525   5.0882
  4.521   5.1603
  4.517   5.1088
  4.513   5.0985
  4.509   5.0882
  4.505   5.1397
  4.502   5.1809
  4.498   5.2118
  4.494   5.2015
  4.490   5.2118
  4.486   5.2221
  4.482   5.1912
  4.478   5.1397
  4.474   5.1294
  4.470   5.1706
  4.467   5.2221
  4.463   5.2015
  4.459   5.2736
  4.455   5.2736
  4.451   5.2736
  4.447   5.3457
  4.444   5.3045
  4.440   5.2324
  4.436   5.2427
  4.432   5.2427
  4.428   5.2839
  4.425   5.3354
  4.421   5.3148
  4.417   5.2839
  4.413   5.3354
  4.410   5.3045
  4.406   5.2942
  4.402   5.3251
  4.398   5.4075
  4.395   5.4384
  4.391   5.3251
  4.387   5.2736
  4.384   5.3148
  4.380   5.3354
  4.376   5.3560
  4.372   5.3354
  4.369   5.3560
  4.365   5.3251
  4.361   5.3869
  4.358   5.4590
  4.354   5.3972
  4.350   5.3148
  4.347   5.3972
  4.343   5.3766
  4.340   5.3869
  4.336   5.3972
  4.332   5.3560
  4.329   5.3045
  4.325   5.3663
  4.321   5.3251
  4.318   5.3045
  4.314   5.3663
  4.311   5.4178
  4.307   5.3972
  4.304   5.4590
  4.300   5.5208
  4.296   5.5105
  4.293   5.5208
  4.289   5.5311
  4.286   5.4796
  4.282   5.5517
  4.279   5.5723
  4.275   5.5929
  4.272   5.5929
  4.268   5.5105
  4.265   5.5002
  4.261   5.4796
  4.258   5.4178
  4.254   5.4487
  4.251   5.4384
  4.247   5.4487
  4.244   5.5208
  4.240   5.6238
  4.237   5.5208
  4.233   5.4590
  4.230   5.5620
  4.226   5.6547
  4.223   5.5517
  4.219   5.5414
  4.216   5.5620
  4.213   5.4693
  4.209   5.4796
  4.206   5.5620
  4.202   5.5002
  4.199   5.5002
  4.196   5.5929
  4.192   5.5929
  4.189   5.5723
  4.185   5.5517
  4.182   5.4899
  4.179   5.5002
  4.175   5.4899
  4.172   5.4796
  4.169   5.4693
  4.165   5.5517
  4.162   5.5517
  4.159   5.4693
  4.155   5.4281
  4.152   5.5208
  4.149   5.5311
  4.145   5.5208
  4.142   5.4384
  4.139   5.5311
  4.135   5.5929
  4.132   5.5620
  4.129   5.4590
  4.126   5.5002
  4.122   5.6032
  4.119   5.5929
  4.116   5.5723
  4.112   5.5929
  4.109   5.5620
  4.106   5.4899
  4.103   5.5208
  4.099   5.5208
  4.096   5.4384
  4.093   5.4590
  4.090   5.5208
  4.086   5.5517
  4.083   5.5826
  4.080   5.6650
  4.077   5.6444
  4.074   5.5723
  4.070   5.5208
  4.067   5.5620
  4.064   5.6238
  4.061   5.5826
  4.058   5.4899
  4.055   5.6444
  4.051   5.6959
  4.048   5.6650
  4.045   5.6341
  4.042   5.6135
  4.039   5.5826
  4.036   5.5208
  4.032   5.5311
  4.029   5.6135
  4.026   5.6650
  4.023   5.6753
  4.020   5.5105
  4.017   5.3869
  4.014   5.3972
  4.011   5.4590
  4.008   5.5208
  4.004   5.5929
  4.001   5.5517
  3.998   5.4899
  3.995   5.5105
  3.992   5.6753
  3.989   5.6032
  3.986   5.4796
  3.983   5.5311
  3.980   5.5929
  3.977   5.5517
  3.974   5.4178
  3.971   5.4693
  3.968   5.6032
  3.965   5.6650
  3.962   5.6238
  3.959   5.6444
  3.956   5.5929
  3.953   5.5002
  3.950   5.5311
  3.947   5.5723
  3.944   5.6547
  3.941   5.6547
  3.938   5.6341
  3.935   5.5414
  3.932   5.4693
  3.929   5.4487
  3.926   5.5826
  3.923   5.6959
  3.920   5.6547
  3.917   5.6238
  3.914   5.6341
  3.911   5.5723
  3.908   5.6238
  3.905   5.5929
  3.902   5.4796
  3.899   5.4899
  3.896   5.6032
  3.893   5.5002
  3.890   5.4899
  3.887   5.6444
  3.884   5.6753
  3.882   5.5620
  3.879   5.5826
  3.876   5.5517
  3.873   5.5002
  3.870   5.5414
  3.867   5.5517
  3.864   5.5208
  3.861   5.5105
  3.858   5.5311
  3.856   5.5414
  3.853   5.5311
  3.850   5.6135
  3.847   5.6135
  3.844   5.5517
  3.841   5.5002
  3.838   5.5414
  3.836   5.6032
  3.833   5.6238
  3.830   5.5208
  3.827   5.5208
  3.824   5.5929
  3.822   5.5929
  3.819   5.5311
  3.816   5.6032
  3.813   5.6959
  3.810   5.7165
  3.807   5.6341
  3.805   5.5517
  3.802   5.5414
  3.799   5.6238
  3.796   5.5929
  3.794   5.6650
  3.791   5.6444
  3.788   5.6135
  3.785   5.6444
  3.782   5.4899
  3.780   5.4178
  3.777   5.5620
  3.774   5.6444
  3.771   5.5826
  3.769   5.5105
  3.766   5.5723
  3.763   5.5620
  3.761   5.5620
  3.758   5.5517
  3.755   5.5414
  3.752   5.4590
  3.750   5.4693
  3.747   5.5620
  3.744   5.6238
  3.742   5.5723
  3.739   5.4796
  3.736   5.3972
  3.733   5.4075
  3.731   5.4384
  3.728   5.5105
  3.725   5.5826
  3.723   5.5414
  3.720   5.5311
  3.717   5.6341
  3.715   5.6032
  3.712   5.5517
  3.709   5.5414
  3.707   5.5414
  3.704   5.4899
  3.702   5.4693
  3.699   5.4693
  3.696   5.4899
  3.694   5.4384
  3.691   5.4075
  3.688   5.4281
  3.686   5.5414
  3.683   5.6753
  3.680   5.6238
  3.678   5.3869
  3.675   5.2736
  3.673   5.4178
  3.670   5.4487
  3.667   5.3663
  3.665   5.4384
  3.662   5.5723
  3.660   5.5311
  3.657   5.4281
  3.655   5.4693
  3.652   5.5105
  3.649   5.4487
  3.647   5.3663
  3.644   5.4693
  3.642   5.4796
  3.639   5.4178
  3.637   5.5105
  3.634   5.5002
  3.632   5.4281
  3.629   5.4384
  3.626   5.4899
  3.624   5.5517
  3.621   5.6032
  3.619   5.6032
  3.616   5.6135
  3.614   5.5311
  3.611   5.4178
  3.609   5.4796
  3.606   5.4590
  3.604   5.4796
  3.601   5.4899
  3.599   5.5620
  3.596   5.5826
  3.594   5.4075
  3.591   5.2839
  3.589   5.3457
  3.586   5.3560
  3.584   5.3766
  3.581   5.3972
  3.579   5.3869
  3.576   5.2530
  3.574   5.3457
  3.571   5.4281
  3.569   5.4590
  3.567   5.5208
  3.564   5.4693
  3.562   5.4384
  3.559   5.3972
  3.557   5.3869
  3.554   5.2942
  3.552   5.3457
  3.549   5.4590
  3.547   5.3972
  3.545   5.3972
  3.542   5.3560
  3.540   5.3766
  3.537   5.4281
  3.535   5.4899
  3.533   5.4384
  3.530   5.4178
  3.528   5.3766
  3.525   5.2427
  3.523   5.2427
  3.521   5.3251
  3.518   5.3560
  3.516   5.2427
  3.513   5.1809
  3.511   5.2427
  3.509   5.2221
  3.506   5.2942
  3.504   5.2118
  3.502   5.2427
  3.499   5.4178
  3.497   5.4693
  3.494   5.3251
  3.492   5.2015
  3.490   5.1706
  3.487   5.1706
  3.485   5.1912
  3.483   5.2530
  3.480   5.1912
  3.478   5.1500
  3.476   5.0882
  3.473   5.1294
  3.471   5.1809
  3.469   5.3251
  3.466   5.3457
  3.464   5.1397
  3.462   4.9955
  3.460   5.1500
  3.457   5.2015
  3.455   5.1809
  3.453   5.1706
  3.450   5.2015
  3.448   5.2633
  3.446   5.2324
  3.443   5.1294
  3.441   5.1809
  3.439   5.2324
  3.437   5.2633
  3.434   5.2118
  3.432   5.0985
  3.430   5.0985
  3.428   5.2633
  3.425   5.2633
  3.423   5.1809
  3.421   5.0367
  3.418   4.9955
  3.416   5.0367
  3.414   5.0573
  3.412   4.9749
  3.409   5.0470
  3.407   5.0985
  3.405   5.1603
  3.403   5.2324
  3.401   5.1500
  3.398   5.1294
  3.396   5.1603
  3.394   5.0985
  3.392   5.0161
  3.389   4.9543
  3.387   4.9337
  3.385   4.9440
  3.383   5.0779
  3.381   5.0676
  3.378   5.0161
  3.376   4.9234
  3.374   4.9955
  3.372   5.0264
  3.370   4.9749
  3.367   4.9646
  3.365   5.0779
  3.363   5.0573
  3.361   5.0573
  3.359   4.9955
  3.357   4.9852
  3.354   4.9852
  3.352   5.0161
  3.350   4.9955
  3.348   5.0573
  3.346   4.8822
  3.344   4.8101
  3.341   4.9234
  3.339   4.9646
  3.337   4.8616
  3.335   4.9543
  3.333   5.0058
  3.331   4.9234
  3.329   4.9234
  3.326   4.9852
  3.324   4.9543
  3.322   4.8925
  3.320   4.9337
  3.318   4.8925
  3.316   4.8513
  3.314   4.9028
  3.312   4.9440
  3.309   5.0161
  3.307   4.9955
  3.305   4.9646
  3.303   4.9440
  3.301   5.0161
  3.299   4.9955
  3.297   4.9337
  3.295   4.8513
  3.293   4.8410
  3.291   4.7998
  3.288   4.8204
  3.286   4.8719
  3.284   4.9234
  3.282   4.8822
  3.280   4.8925
  3.278   4.9852
  3.276   4.9234
  3.274   4.8719
  3.272   4.9440
  3.270   4.8410
  3.268   4.7895
  3.266   4.7380
  3.264   4.6659
  3.262   4.6762
  3.259   4.6968
  3.257   4.7792
  3.255   4.8719
  3.253   4.7998
  3.251   4.7380
  3.249   4.7998
  3.247   4.8307
  3.245   4.6865
  3.243   4.7689
  3.241   4.8616
  3.239   4.7689
  3.237   4.6350
  3.235   4.6350
  3.233   4.6968
  3.231   4.7895
  3.229   4.7689
  3.227   4.7689
  3.225   4.8513
  3.223   4.8204
  3.221   4.7380
  3.219   4.6865
  3.217   4.5423
  3.215   4.5938
  3.213   4.7277
  3.211   4.6968
  3.209   4.5114
  3.207   4.5217
  3.205   4.6041
  3.203   4.5938
  3.201   4.5526
  3.199   4.5320
  3.197   4.6247
  3.195   4.7689
  3.193   4.7071
  3.191   4.6968
  3.189   4.7483
  3.187   4.6659
  3.185   4.5011
  3.183   4.4702
  3.182   4.5011
  3.180   4.4702
  3.178   4.2848
  3.176   4.2951
  3.174   4.5114
  3.172   4.5938
  3.170   4.5217
  3.168   4.5217
  3.166   4.5011
  3.164   4.5629
  3.162   4.7277
  3.160   4.6762
  3.158   4.5732
  3.156   4.4805
  3.154   4.3672
  3.152   4.4393
  3.151   4.5423
  3.149   4.5526
  3.147   4.5629
  3.145   4.4805
  3.143   4.4805
  3.141   4.5938
  3.139   4.6762
  3.137   4.4805
  3.135   4.3466
  3.133   4.3878
  3.132   4.4805
  3.130   4.5526
  3.128   4.5526
  3.126   4.5938
  3.124   4.5629
  3.122   4.5938
  3.120   4.6659
  3.118   4.4599
  3.117   4.2436
  3.115   4.4084
  3.113   4.4393
  3.111   4.5114
  3.109   4.5938
  3.107   4.4908
  3.105   4.4290
  3.103   4.3260
  3.102   4.2745
  3.100   4.3981
  3.098   4.2745
  3.096   4.2539
  3.094   4.3672
  3.092   4.3363
  3.091   4.2127
  3.089   4.1921
  3.087   4.2539
  3.085   4.2951
  3.083   4.3878
  3.081   4.6144
  3.079   4.4393
  3.078   4.1921
  3.076   4.1715
  3.074   4.3466
  3.072   4.5320
  3.070   4.3157
  3.069   4.0994
  3.067   4.1509
  3.065   4.3260
  3.063   4.3363
  3.061   4.2539
  3.060   4.3260
  3.058   4.2333
  3.056   4.1818
  3.054   4.2951
  3.052   4.3363
  3.051   4.2333
  3.049   4.2951
  3.047   4.3466
  3.045   4.3775
  3.043   4.3672
  3.042   4.2848
  3.040   4.1818
  3.038   4.2951
  3.036   4.4496
  3.034   4.4805
  3.033   4.2642
  3.031   4.3466
  3.029   4.5526
  3.027   4.4290
  3.026   4.2745
  3.024   4.2745
  3.022   4.3260
  3.020   4.3363
  3.019   4.3054
  3.017   4.1200
  3.015   3.9758
  3.013   4.1200
  3.012   4.2333
  3.010   4.3260
  3.008   4.2951
  3.006   4.2127
  3.005   4.1612
  3.003   4.2127
  3.001   4.1715
  2.999   4.0376
  2.998   4.1303
  2.996   4.2333
  2.994   4.2127
  2.992   4.2539
  2.991   4.3466
  2.989   4.3878
  2.987   4.3569
  2.986   4.4187
  2.984   4.4908
  2.982   4.3466
  2.980   4.0479
  2.979   4.0891
  2.977   4.2436
  2.975   4.0376
  2.974   4.0273
  2.972   4.1406
  2.970   4.2024
  2.968   4.2024
  2.967   4.2024
  2.965   4.1200
  2.963   3.8934
  2.962   3.9140
  2.960   4.1097
  2.958   4.2539
  2.957   4.3775
  2.955   4.3363
  2.953   4.1509
  2.952   4.2951
  2.950   4.4599
  2.948   4.3260
  2.947   4.1818
  2.945   4.2951
  2.943   4.4496
  2.942   4.1921
  2.940   3.8728
  2.938   3.6565
  2.937   3.7801
  2.935   4.0994
  2.933   4.3672
  2.932   4.3981
  2.930   4.3878
  2.928   4.1818
  2.927   3.9964
  2.925   4.0067
  2.923   4.0994
  2.922   4.2642
  2.920   4.1303
  2.918   4.1612
  2.917   4.3157
  2.915   4.4187
  2.913   4.2539
  2.912   4.1406
  2.910   4.1818
  2.909   4.1406
  2.907   4.1303
  2.905   4.1200
  2.904   4.2951
  2.902   4.3981
  2.900   4.1715
  2.899   4.2024
  2.897   4.2127
  2.896   4.1097
  2.894   3.9758
  2.892   4.0582
  2.891   4.1303
  2.889   4.0582
  2.887   4.1818
  2.886   4.2333
  2.884   4.0685
  2.883   4.0067
  2.881   4.2745
  2.879   4.4290
  2.878   4.3157
  2.876   4.0788
  2.875   4.1406
  2.873   4.1303
  2.871   3.9037
  2.870   3.9346
  2.868   4.1818
  2.867   4.4702
  2.865   4.3981
  2.864   4.0994
  2.862   3.9655
  2.860   4.1921
  2.859   4.3775
  2.857   4.3878
  2.856   4.0582
  2.854   3.9861
  2.853   4.2848
  2.851   4.1715
  2.849   4.1406
  2.848   4.1406
  2.846   3.9758
  2.845   4.0891
  2.843   4.3363
  2.842   4.4290
  2.840   4.3672
  2.838   4.2436
  2.837   4.1406
  2.835   4.0376
  2.834   4.1818
  2.832   4.1097
  2.831   3.9758
  2.829   4.0685
  2.828   4.2333
  2.826   4.2436
  2.825   4.2127
  2.823   4.1612
  2.821   4.0170
  2.820   3.9552
  2.818   3.9243
  2.817   3.8728
  2.815   4.0067
  2.814   4.2745
  2.812   4.3775
  2.811   4.2745
  2.809   4.0376
  2.808   4.0685
  2.806   4.1818
  2.805   4.1509
  2.803   4.0067
  2.802   4.2642
  2.800   4.4496
  2.799   4.2436
  2.797   3.9346
  2.796   4.0582
  2.794   4.3157
  2.793   4.2539
  2.791   3.9758
  2.790   3.9449
  2.788   3.9346
  2.787   4.1715
  2.785   4.4393
  2.784   4.3260
  2.782   4.2539
  2.781   4.3157
  2.779   4.1509
  2.778   4.0170
  2.776   3.9964
  2.775   4.2539
  2.773   4.5114
  2.772   4.3775
  2.770   4.0685
  2.769   4.0170
  2.767   3.8831
  2.766   3.8316
  2.764   4.1200
  2.763   4.2539
  2.761   4.2436
  2.760   4.1097
  2.758   4.1921
  2.757   4.3466
  2.756   4.4908
  2.754   4.3878
  2.753   4.4084
  2.751   4.4393
  2.750   4.1921
  2.748   4.1509
  2.747   4.3157
  2.745   4.2230
  2.744   4.1818
  2.742   4.4908
  2.741   4.9131
  2.740   5.1088
  2.738   4.9440
  2.737   4.6350
  2.735   4.3157
  2.734   4.2127
  2.732   4.5938
  2.731   4.7586
  2.729   4.5320
  2.728   4.7792
  2.727   4.9234
  2.725   5.1397
  2.724   5.3251
  2.722   5.2324
  2.721   5.2427
  2.719   5.3148
  2.718   5.0882
  2.717   4.8307
  2.715   4.9955
  2.714   5.1191
  2.712   5.3663
  2.711   5.7268
  2.709   5.4075
  2.708   5.4075
  2.707   5.7680
  2.705   5.9534
  2.704   5.9019
  2.702   5.8813
  2.701   5.9946
  2.700   6.0255
  2.698   5.7474
  2.697   5.7165
  2.695   5.9225
  2.694   6.0667
  2.693   6.0667
  2.691   5.9740
  2.690   6.0255
  2.688   6.2830
  2.687   6.6023
  2.686   6.4787
  2.684   6.3139
  2.683   6.4787
  2.681   6.6126
  2.680   6.4787
  2.679   6.4787
  2.677   6.7568
  2.676   6.7156
  2.675   6.5920
  2.673   6.5302
  2.672   6.4684
  2.670   6.6847
  2.669   6.8804
  2.668   7.0967
  2.666   6.9937
  2.665   6.6641
  2.664   6.6435
  2.662   6.6744
  2.661   6.5096
  2.659   6.3448
  2.658   6.3036
  2.657   6.3448
  2.655   6.4375
  2.654   6.7774
  2.653   6.8907
  2.651   6.4375
  2.650   6.3654
  2.649   6.5508
  2.647   6.5714
  2.646   6.7774
  2.645   6.6641
  2.643   6.3860
  2.642   6.5199
  2.640   6.8598
  2.639   7.0658
  2.638   6.7465
  2.636   6.5920
  2.635   6.5405
  2.634   6.7774
  2.632   7.0143
  2.631   6.9731
  2.630   6.7465
  2.628   6.5714
  2.627   6.6744
  2.626   6.8083
  2.624   6.5405
  2.623   6.6126
  2.622   6.8186
  2.620   6.7774
  2.619   6.5817
  2.618   6.2624
  2.617   6.5199
  2.615   6.7362
  2.614   6.7980
  2.613   6.8804
  2.611   6.9216
  2.610   6.7877
  2.609   6.7156
  2.607   6.8907
  2.606   6.8392
  2.605   6.8495
  2.603   6.8392
  2.602   6.8289
  2.601   6.7877
  2.599   6.6229
  2.598   6.7259
  2.597   6.7877
  2.596   7.2615
  2.594   7.3130
  2.593   6.8907
  2.592   6.8392
  2.590   6.8907
  2.589   7.1585
  2.588   7.3130
  2.586   6.6950
  2.585   6.5096
  2.584   6.6950
  2.583   6.7671
  2.581   6.7362
  2.580   6.7671
  2.579   6.6847
  2.577   6.7362
  2.576   6.9216
  2.575   6.7877
  2.574   6.6950
  2.572   7.0349
  2.571   6.7980
  2.570   6.4890
  2.569   6.8289
  2.567   6.8392
  2.566   6.6332
  2.565   6.7362
  2.563   6.6744
  2.562   6.7568
  2.561   6.9216
  2.560   6.8083
  2.558   6.6847
  2.557   6.9010
  2.556   6.7877
  2.555   6.5611
  2.553   6.3242
  2.552   6.2006
  2.551   6.7259
  2.550   6.8701
  2.548   6.7671
  2.547   6.7362
  2.546   6.7259
  2.545   6.9010
  2.543   6.7259
  2.542   6.5817
  2.541   6.3551
  2.540   6.3448
  2.538   6.5508
  2.537   6.8598
  2.536   6.8289
  2.535   6.5920
  2.533   6.7362
  2.532   6.6538
  2.531   6.3757
  2.530   6.7877
  2.528   6.9216
  2.527   7.0864
  2.526   7.1173
  2.525   6.8701
  2.524   6.9216
  2.522   6.6744
  2.521   6.6023
  2.520   6.4684
  2.519   6.4169
  2.517   6.3139
  2.516   6.3654
  2.515   6.8392
  2.514   6.8186
  2.513   6.7362
  2.511   6.8804
  2.510   6.5508
  2.509   6.1800
  2.508   6.7259
  2.506   6.9525
  2.505   6.5508
  2.504   6.3757
  2.503   6.4684
  2.502   6.9216
  2.500   7.3439
  2.496   7.1831
  2.492   7.5153
  2.488   7.1371
  2.484   7.8457
  2.480   7.3925
  2.476   7.2894
  2.472   8.0823
  2.468   7.8652
  2.464   7.5426
  2.460   7.4196
  2.456   7.3733
  2.452   8.1017
  2.448   7.3397
  2.444   8.1303
  2.440   7.8632
  2.436   7.7948
  2.432   7.1813
  2.428   7.7657
  2.424   7.7828
  2.420   8.1665
  2.416   8.1244
  2.412   7.5726
  2.408   7.6492
  2.404   7.6138
  2.400   7.9042
  2.396   8.3533
  2.392   8.1217
  2.388   7.7190
  2.384   7.9961
  2.380   8.0496
  2.376   7.9736
  2.372   7.7452
  2.368   7.7605
  2.364   8.0283
  2.360   8.0311
  2.356   8.0547
  2.352   7.9738
  2.348   8.0239
  2.344   8.0026
  2.340   8.2187
  2.336   7.9695
  2.332   8.0183
  2.328   7.8888
  2.324   7.9945
  2.320   8.0721
  2.316   7.8152
  2.312   8.0764
  2.308   7.9669
  2.304   7.8984
  2.300   8.0461
  2.296   7.9463
  2.292   8.0608
  2.288   8.0869
  2.284   8.1349
  2.280   8.2719
  2.276   8.1121
  2.272   8.1732
  2.268   7.9246
  2.264   7.9260
  2.260   8.1301
  2.256   8.1862
  2.252   8.1179
  2.248   7.9987
  2.244   7.9826
  2.240   8.1257
  2.236   8.1658
  2.232   8.2331
  2.228   8.0861
  2.224   8.1487
  2.220   8.3368
  2.216   8.2570
  2.212   8.2290
  2.208   8.1515
  2.204   8.2063
  2.200   8.3064
  2.196   8.2474
  2.192   8.3408
  2.188   8.4410
  2.184   8.4317
  2.180   8.3894
  2.176   8.4455
  2.172   8.3905
  2.168   8.4078
  2.164   8.5028
  2.160   8.5380
  2.156   8.5310
  2.152   8.5033
  2.148   8.5541
  2.144   8.6135
  2.140   8.5238
  2.136   8.4960
  2.132   8.5511
  2.128   8.5626
  2.124   8.4475
  2.120   8.3582
  2.116   8.4112
  2.112   8.4087
  2.108   8.3712
  2.104   8.3954
  2.100   8.4038
  2.096   8.4376
  2.092   8.3802
  2.088   8.3557
  2.084   8.3516
  2.080   8.3423
  2.076   8.4159
  2.072   8.4784
  2.068   8.4089
  2.064   8.4404
  2.060   8.4960
  2.056   8.4682
  2.052   8.4735
  2.048   8.5317
  2.044   8.5032
  2.040   8.4827
  2.036   8.4740
  2.032   8.5451
  2.028   8.5057
  2.024   8.5387
  2.020   8.5679
  2.016   8.5497
  2.012   8.5399
  2.008   8.5493
  2.004   8.5862
  2.000   8.6010
  1.996   8.5604
  1.992   8.5682
  1.988   8.5638
  1.984   8.5909
  1.980   8.5931
  1.976   8.5991
  1.972   8.6188
  1.968   8.6278
  1.964   8.6524
  1.960   8.6535
  1.956   8.6374
  1.952   8.5448
  1.948   8.5247
  1.944   8.5535
  1.940   8.5823
  1.936   8.5527
  1.932   8.4914
  1.928   8.4557
  1.924   8.3928
  1.920   8.2602
  1.916   8.2379
  1.912   8.2831
  1.908   8.3036
  1.904   8.2703
  1.900   8.2734
  1.896   8.2622
  1.892   8.3035
  1.888   8.4236
  1.884   8.4926
  1.880   8.5633
  1.876   8.5806
  1.872   8.5971
  1.868   8.5894
  1.864   8.5968
  1.860   8.5902
  1.856   8.5620
  1.852   8.5841
  1.848   8.6116
  1.844   8.6293
  1.840   8.6341
  1.836   8.6479
  1.832   8.6590
  1.828   8.6326
  1.824   8.5933
  1.820   8.6008
  1.816   8.6086
  1.812   8.6152
  1.808   8.6300
  1.804   8.6268
  1.800   8.6726
  1.796   8.7001
  1.792   8.6882
  1.788   8.6854
  1.784   8.7262
  1.780   8.7381
  1.776   8.7622
  1.772   8.7532
  1.768   8.7168
  1.764   8.7272
  1.760   8.7341
  1.756   8.7037
  1.752   8.6697
  1.748   8.6863
  1.744   8.7011
  1.740   8.6904
  1.736   8.7072
  1.732   8.7031
  1.728   8.7024
  1.724   8.7248
  1.720   8.7475
  1.716   8.7394
  1.712   8.7010
  1.708   8.6924
  1.704   8.6974
  1.700   8.6888
  1.696   8.6971
  1.692   8.6911
  1.688   8.7326
  1.684   8.7735
  1.680   8.7721
  1.676   8.7791
  1.672   8.7878
  1.668   8.7131
  1.664   8.7378
  1.660   8.7175
  1.656   8.6623
  1.652   8.6283
  1.648   8.6665
  1.644   8.7021
  1.640   8.7068
  1.636   8.6704
  1.632   8.6374
  1.628   8.6391
  1.624   8.6676
  1.620   8.6912
  1.616   8.6404
  1.612   8.6150
  1.608   8.5953
  1.604   8.6221
  1.600   8.6391
  1.596   8.6505
  1.592   8.5877
  1.588   8.5487
  1.584   8.5908
  1.580   8.5909
  1.576   8.5759
  1.572   8.5992
  1.568   8.5715
  1.564   8.5453
  1.560   8.5037
  1.556   8.5102
  1.552   8.5535
  1.548   8.5098
  1.544   8.4837
  1.540   8.4491
  1.536   8.5149
  1.532   8.5074
  1.528   8.4386
  1.524   8.4589
  1.520   8.4261
  1.516   8.4239
  1.512   8.4422
  1.508   8.4054
  1.504   8.3792
  1.500   8.4359
  1.496   8.4195
  1.492   8.3927
  1.488   8.3961
  1.484   8.3218
  1.480   8.3056
  1.476   8.3510
  1.472   8.3685
  1.468   8.2995
  1.464   8.3091
  1.460   8.2659
  1.456   8.2976
  1.452   8.2728
  1.448   8.2257
  1.444   8.2656
  1.440   8.2492
  1.436   8.2319
  1.432   8.1657
  1.428   8.1336
  1.424   8.1591
  1.420   8.1492
  1.416   8.1603
  1.412   8.1090
  1.408   8.0999
  1.404   8.1239
  1.400   8.1528
  1.396   8.0791
  1.392   8.0793
  1.388   8.0650
  1.384   8.1058
  1.380   8.0615
  1.376   8.0419
  1.372   8.0146
  1.368   8.0808
  1.364   8.0883
  1.360   8.0342
  1.356   7.9378
  1.352   7.9176
  1.348   7.9024
  1.344   7.9315
  1.340   7.9824
  1.336   8.0107
  1.332   7.9382
  1.328   7.8912
  1.324   7.8698
  1.320   7.8784
  1.316   7.8064
  1.312   7.8198
  1.308   7.8538
  1.304   7.7772
  1.300   7.7868
  1.296   7.8336
  1.292   7.8276
  1.288   7.8058
  1.284   7.7998
  1.280   7.7344
  1.276   7.7232
  1.272   7.7966
  1.268   7.7970
  1.264   7.6990
  1.260   7.7377
  1.256   7.7233
  1.252   7.7180
  1.248   7.6663
  1.244   7.6930
  1.240   7.7228
  1.236   7.6233
  1.232   7.6113
  1.228   7.6388
  1.224   7.6743
  1.220   7.6207
  1.216   7.6158
  1.212   7.6171
  1.208   7.5727
  1.204   7.6000
  1.200   7.6220
  1.196   7.5595
  1.192   7.5285
  1.188   7.5627
  1.184   7.5232
  1.180   7.5127
  1.176   7.5276
  1.172   7.5246
  1.168   7.5411
  1.164   7.5177
  1.160   7.5293
  1.156   7.5764
  1.152   7.5642
  1.148   7.4963
  1.144   7.4785
  1.140   7.5295
  1.136   7.4749
  1.132   7.4868
  1.128   7.4117
  1.124   7.4187
  1.120   7.4787
  1.116   7.4580
  1.112   7.4636
  1.108   7.3879
  1.104   7.3900
  1.100   7.4070
  1.096   7.4483
  1.092   7.4454
  1.088   7.3693
  1.084   7.3226
  1.080   7.3564
  1.076   7.3919
  1.072   7.4120
  1.068   7.3443
  1.064   7.3584
  1.060   7.3482
  1.056   7.3751
  1.052   7.3885
  1.048   7.4177
  1.044   7.4161
  1.040   7.3675
  1.036   7.3669
  1.032   7.3833
  1.028   7.4220
  1.024   7.4123
  1.020   7.4674
  1.016   7.4414
  1.012   7.4242
  1.008   7.4635
  1.004   7.4903
  1.000   7.4988
  0.996   7.5101
  0.992   7.5075
  0.988   7.5207
  0.984   7.5387
  0.980   7.6119
  0.976   7.6251
  0.972   7.6210
  0.968   7.6636
  0.964   7.6553
  0.960   7.6829
  0.956   7.7440
  0.952   7.7614
  0.948   7.7529
  0.944   7.7832
  0.940   7.7850
  0.936   7.8244
  0.932   7.8354
  0.928   7.8941
  0.924   7.9955
  0.920   8.0765
  0.916   8.1385
  0.912   8.2102
  0.908   8.2061
  0.904   8.1910
  0.900   8.2176
  0.896   8.2745
  0.892   8.2760
  0.888   8.2929
  0.884   8.3264
  0.880   8.2319
  0.876   8.2341
  0.872   8.3301
  0.868   8.1948
  0.864   8.1270
  0.860   8.1786
  0.856   9.2143
  0.852   8.9351
  0.848   5.2425
  0.844   5.8676
  0.840   6.6279
  0.836   7.0094
  0.832   7.1702
  0.828   7.4173
  0.824   7.7105
  0.820   7.8876
  0.816   7.9526
  0.812   8.0381
  0.808   8.0752
  0.804   8.1639
  0.800   8.0871
  0.796   8.0391
  0.792   8.0512
  0.788   8.0845
  0.784   8.0933
  0.780   8.0691
  0.776   8.1094
  0.772   8.0731
  0.768   8.0960
  0.764   8.1325
  0.760   8.0960
  0.756   8.0654
  0.752   8.0961
  0.748   8.1010
  0.744   8.0853
  0.740   8.0675
  0.736   8.0829
  0.732   8.1037
  0.728   8.1348
  0.724   8.0926
  0.720   8.0740
  0.716   8.1022
  0.712   8.1190
  0.708   8.1377
  0.704   8.1170
  0.700   8.0801
  0.696   8.0838
  0.692   8.1015
  0.688   8.1137
  0.684   8.0870
  0.680   8.0540
  0.676   8.0487
  0.672   8.0463
  0.668   8.0587
  0.664   8.0627
  0.660   8.0627
  0.656   8.0745
  0.652   8.0681
  0.648   8.0588
  0.644   8.0738
  0.640   8.0548
  0.636   8.0630
  0.632   8.0698
  0.628   8.0692
  0.624   8.0673
  0.620   8.0805
  0.616   8.0991
  0.612   8.0843
  0.608   8.0916
  0.604   8.1005
  0.600   8.0943
  0.596   8.1190
  0.592   8.1161
  0.588   8.1180
  0.584   8.1215
  0.580   8.1209
  0.576   8.1333
  0.572   8.1160
  0.568   8.1296
  0.564   8.1409
  0.560   8.1426
  0.556   8.1170
  0.552   8.1155
  0.548   8.1231
  0.544   8.1165
  0.540   8.1072
  0.536   8.1122
  0.532   8.1131
  0.528   8.1077
  0.524   8.1072
  0.520   8.1075
  0.516   8.1100
  0.512   8.1122
  0.508   8.1164
  0.504   8.1168
  0.500   8.1219
  0.496   8.1369
  0.492   8.1309
  0.488   8.0939
  0.484   8.0706
  0.480   8.0250
  0.476   7.9874
  0.472   8.0262
  0.468   8.0561
  0.464   8.0776
  0.460   8.1053
  0.456   8.1212
  0.452   8.1367
  0.448   8.1649
  0.444   8.1583
  0.440   8.1550
  0.436   8.1688
  0.432   8.1607
  0.428   8.1588
  0.424   8.1661
  0.420   8.1310
  0.416   8.1474
  0.412   8.1650
  0.408   8.1538
  0.404   8.1630
  0.400   8.1561
