Name: Dacite
Type: Rock
Class: Intermediate
Subclass: Felsic
Particle Size: Whole Rock Chips
Sample No.: AP-939-213
Owner: United States Geological Survey, L. C. Rowan
Wavelength range: 0.405 - 14.05 um
Origin: Iberian Pyrite Belt, Spain

Description: Dacite, green, altered





Measurement: Directional Hemispherical Reflectance
First Column: X
Second Column: Y
X Units: Wavelength (micrometers)
Y Units: Reflectance (percent)
First X Value: 14.05105
Last X Value: 0.40500
Number of X Values: 2530
Additional Information: dac213a.txt

 14.051   2.8016
 14.013   2.6986
 13.975   2.8531
 13.938   2.8016
 13.900   2.9149
 13.863   2.9458
 13.826   2.9870
 13.790   2.9046
 13.753   2.9355
 13.717   2.8119
 13.680   2.8119
 13.644   2.8222
 13.609   2.9973
 13.573   2.8428
 13.538   2.6780
 13.502   2.5750
 13.467   2.7089
 13.432   2.7707
 13.398   2.9046
 13.363   2.8325
 13.329   2.8634
 13.295   2.8531
 13.261   2.8943
 13.227   2.8634
 13.193   2.9561
 13.160   2.9252
 13.126   2.9458
 13.093   3.0282
 13.060   3.0900
 13.027   3.0076
 12.995   3.2239
 12.962   3.4093
 12.930   3.5020
 12.898   3.5020
 12.866   3.6874
 12.834   3.6977
 12.802   3.7801
 12.771   3.7595
 12.739   3.7595
 12.708   3.6462
 12.677   3.4505
 12.646   3.1930
 12.616   3.2445
 12.585   3.3063
 12.554   3.4093
 12.524   3.5123
 12.494   3.6874
 12.464   3.6874
 12.434   3.6359
 12.404   3.4196
 12.375   3.2651
 12.345   2.9664
 12.316   2.7810
 12.287   2.5956
 12.258   2.6059
 12.229   2.5853
 12.200   2.6986
 12.171   2.7604
 12.143   2.8737
 12.115   2.9252
 12.086   2.9561
 12.058   2.8840
 12.030   2.9149
 12.002   2.8840
 11.975   2.9767
 11.947   3.0179
 11.920   3.0591
 11.892   3.0900
 11.865   3.1415
 11.838   3.0591
 11.811   3.1415
 11.784   3.2960
 11.757   3.3681
 11.731   3.3166
 11.704   3.4299
 11.678   3.4093
 11.652   3.4299
 11.626   3.4608
 11.600   3.5844
 11.574   3.6256
 11.548   3.6565
 11.522   3.7286
 11.497   3.8522
 11.471   3.8419
 11.446   3.9243
 11.421   3.8831
 11.396   3.8625
 11.371   3.9552
 11.346   4.0170
 11.321   3.9552
 11.297   4.1097
 11.272   4.1715
 11.248   4.1612
 11.223   4.0685
 11.199   4.1921
 11.175   4.2848
 11.151   4.4187
 11.127   4.5423
 11.103   4.6247
 11.079   4.5526
 11.056   4.5629
 11.032   4.5526
 11.009   4.6144
 10.985   4.6350
 10.962   4.6453
 10.939   4.6350
 10.916   4.7071
 10.893   4.6144
 10.870   4.5526
 10.848   4.5835
 10.825   4.6968
 10.802   4.7071
 10.780   4.7277
 10.758   4.6659
 10.735   4.6762
 10.713   4.7071
 10.691   4.8513
 10.669   4.9028
 10.647   4.9852
 10.625   5.0779
 10.604   5.2530
 10.582   5.3560
 10.560   5.3972
 10.539   5.4178
 10.518   5.5208
 10.496   5.6444
 10.475   5.7989
 10.454   5.9019
 10.433   6.0667
 10.412   6.1800
 10.391   6.3963
 10.370   6.6023
 10.350   6.8598
 10.329   6.9628
 10.309   7.0967
 10.288   7.2512
 10.268   7.5396
 10.247   7.6735
 10.227   7.7868
 10.207   7.9413
 10.187   8.1576
 10.167   8.2812
 10.147   8.4872
 10.127   8.6726
 10.108   8.8889
 10.088   9.0846
 10.068   9.3936
 10.049   9.5893
 10.029   9.7747
 10.010   9.9292
  9.991  10.1867
  9.972  10.3824
  9.952  10.6605
  9.933  10.8974
  9.914  11.0828
  9.895  11.1961
  9.877  11.3712
  9.858  11.4742
  9.839  11.5875
  9.821  11.5875
  9.802  11.7111
  9.783  11.8862
  9.765  12.1025
  9.747  12.2055
  9.728  12.3806
  9.710  12.6381
  9.692  13.0398
  9.674  13.3385
  9.656  13.6887
  9.638  13.9977
  9.620  14.3479
  9.602  14.5333
  9.585  14.7187
  9.567  14.9144
  9.549  15.1822
  9.532  15.4088
  9.514  15.5633
  9.497  15.6045
  9.479  15.7178
  9.462  15.6560
  9.445  15.5427
  9.428  15.4294
  9.411  15.2440
  9.394  14.8835
  9.377  14.6157
  9.360  14.3994
  9.343  14.3170
  9.326  14.1522
  9.309  13.9977
  9.293  13.9050
  9.276  13.8844
  9.259  13.8741
  9.243  13.9874
  9.226  14.1110
  9.210  14.2243
  9.194  14.3376
  9.178  14.5333
  9.161  14.5951
  9.145  14.5848
  9.129  14.5333
  9.113  14.5848
  9.097  14.5230
  9.081  14.4612
  9.065  14.2140
  9.049  14.0492
  9.034  13.8535
  9.018  13.5960
  9.002  13.3282
  8.987  13.2561
  8.971  13.0707
  8.956  12.8235
  8.940  12.5969
  8.925  12.4836
  8.909  12.3909
  8.894  12.3497
  8.879  12.2570
  8.864  12.2364
  8.849  12.1746
  8.834  12.1334
  8.819  12.0613
  8.804  12.1025
  8.789  12.0819
  8.774  12.0819
  8.759  12.0613
  8.744  11.9789
  8.730  11.7626
  8.715  11.6905
  8.700  11.5463
  8.686  11.2785
  8.671  11.0519
  8.657  10.7635
  8.642  10.3824
  8.628  10.0219
  8.614   9.7541
  8.599   9.8468
  8.585  10.1867
  8.571  10.5575
  8.557  10.7120
  8.543  10.7738
  8.529  10.7635
  8.515  10.8150
  8.501  10.7326
  8.487  10.6090
  8.473  10.4030
  8.459  10.3206
  8.445  10.2485
  8.431  10.1558
  8.418   9.9189
  8.404   9.6923
  8.391   9.5687
  8.377   9.4760
  8.363   9.2185
  8.350   9.0434
  8.337   8.9095
  8.323   8.7447
  8.310   8.5284
  8.297   8.4254
  8.283   8.3224
  8.270   8.2091
  8.257   8.0752
  8.244   8.0237
  8.231   7.9722
  8.218   7.9516
  8.205   7.8177
  8.192   7.6632
  8.179   7.5293
  8.166   7.3542
  8.153   7.0246
  8.140   6.6641
  8.128   6.2624
  8.115   5.8298
  8.102   5.3560
  8.090   5.0367
  8.077   4.7998
  8.064   4.5320
  8.052   4.1818
  8.039   3.9552
  8.027   3.7183
  8.015   3.4196
  8.002   3.1724
  7.990   3.0488
  7.978   2.8222
  7.965   2.6883
  7.953   2.5544
  7.941   2.4102
  7.929   2.2660
  7.917   2.1321
  7.905   1.9364
  7.893   1.8128
  7.881   1.7304
  7.869   1.6686
  7.857   1.5553
  7.845   1.5141
  7.833   1.4523
  7.821   1.4214
  7.809   1.3596
  7.798   1.3390
  7.786   1.3493
  7.774   1.3287
  7.763   1.2566
  7.751   1.2566
  7.739   1.2154
  7.728   1.1433
  7.716   1.1227
  7.705   1.1330
  7.694   1.1124
  7.682   1.1330
  7.671   1.0712
  7.659   1.0712
  7.648   1.0815
  7.637   1.1227
  7.626   1.0506
  7.614   0.9682
  7.603   0.9064
  7.592   0.8755
  7.581   0.8961
  7.570   0.9476
  7.559   0.9476
  7.548   0.9991
  7.537   1.0300
  7.526   1.0197
  7.515   0.9785
  7.504   0.9682
  7.493   0.9373
  7.483   0.9167
  7.472   0.8240
  7.461   0.8755
  7.450   0.9373
  7.440   0.9476
  7.429   0.9064
  7.418   0.9167
  7.408   0.9476
  7.397   1.0609
  7.387   1.0712
  7.376   1.0609
  7.366   1.0403
  7.355   0.9991
  7.345   0.9167
  7.334   0.9373
  7.324   0.9888
  7.314   1.0403
  7.303   0.9991
  7.293   1.0403
  7.283   1.0712
  7.273   1.0300
  7.263   0.9682
  7.252   0.9991
  7.242   1.0094
  7.232   1.0094
  7.222   1.0094
  7.212   1.0197
  7.202   1.0197
  7.192   1.0609
  7.182   1.0506
  7.172   1.0712
  7.162   1.0918
  7.152   1.1330
  7.143   1.1124
  7.133   1.1433
  7.123   1.0918
  7.113   1.0506
  7.103   1.0506
  7.094   1.1124
  7.084   1.1536
  7.074   1.1948
  7.065   1.1536
  7.055   1.1433
  7.046   1.1124
  7.036   1.1227
  7.026   1.1227
  7.017   1.1948
  7.007   1.2360
  6.998   1.2154
  6.989   1.1742
  6.979   1.1536
  6.970   1.1330
  6.960   1.1227
  6.951   1.1433
  6.942   1.2463
  6.932   1.2566
  6.923   1.2669
  6.914   1.2875
  6.905   1.2875
  6.896   1.2566
  6.886   1.2772
  6.877   1.2669
  6.868   1.2463
  6.859   1.1639
  6.850   1.2566
  6.841   1.2875
  6.832   1.3184
  6.823   1.3081
  6.814   1.2978
  6.805   1.2566
  6.796   1.2360
  6.787   1.2566
  6.778   1.3390
  6.770   1.3390
  6.761   1.3287
  6.752   1.3287
  6.743   1.3596
  6.734   1.3905
  6.726   1.4111
  6.717   1.3802
  6.708   1.4214
  6.700   1.3905
  6.691   1.4214
  6.682   1.4214
  6.674   1.3802
  6.665   1.4111
  6.657   1.4832
  6.648   1.4626
  6.640   1.4420
  6.631   1.4626
  6.623   1.5038
  6.614   1.4832
  6.606   1.4317
  6.597   1.3905
  6.589   1.4523
  6.581   1.4626
  6.572   1.4729
  6.564   1.4729
  6.556   1.5038
  6.547   1.4523
  6.539   1.4935
  6.531   1.5038
  6.523   1.5141
  6.514   1.5347
  6.506   1.5347
  6.498   1.4832
  6.490   1.4626
  6.482   1.4523
  6.474   1.4729
  6.466   1.5244
  6.458   1.5656
  6.450   1.5141
  6.442   1.4832
  6.434   1.5141
  6.426   1.5244
  6.418   1.4420
  6.410   1.4626
  6.402   1.5553
  6.394   1.6583
  6.386   1.6171
  6.378   1.5244
  6.370   1.4523
  6.363   1.4626
  6.355   1.4729
  6.347   1.4935
  6.339   1.5038
  6.332   1.5347
  6.324   1.5450
  6.316   1.5038
  6.308   1.4626
  6.301   1.4729
  6.293   1.4523
  6.286   1.5244
  6.278   1.5244
  6.270   1.5347
  6.263   1.5347
  6.255   1.5656
  6.248   1.5656
  6.240   1.5141
  6.233   1.5244
  6.225   1.5141
  6.218   1.4729
  6.210   1.5141
  6.203   1.5347
  6.195   1.5244
  6.188   1.5244
  6.181   1.5347
  6.173   1.5553
  6.166   1.5656
  6.159   1.5553
  6.151   1.5347
  6.144   1.5347
  6.137   1.5965
  6.130   1.5862
  6.122   1.5862
  6.115   1.5553
  6.108   1.5244
  6.101   1.5038
  6.094   1.5141
  6.086   1.5244
  6.079   1.5656
  6.072   1.5862
  6.065   1.5656
  6.058   1.5244
  6.051   1.4935
  6.044   1.4832
  6.037   1.5553
  6.030   1.5656
  6.023   1.5656
  6.016   1.5965
  6.009   1.6068
  6.002   1.5862
  5.995   1.5862
  5.988   1.6377
  5.981   1.6480
  5.974   1.5656
  5.967   1.5759
  5.960   1.5553
  5.954   1.5759
  5.947   1.5450
  5.940   1.5347
  5.933   1.5347
  5.926   1.5553
  5.920   1.5656
  5.913   1.6480
  5.906   1.6377
  5.899   1.6171
  5.893   1.6686
  5.886   1.6686
  5.879   1.6377
  5.873   1.6789
  5.866   1.6995
  5.859   1.6892
  5.853   1.6789
  5.846   1.6892
  5.840   1.7201
  5.833   1.7716
  5.827   1.8025
  5.820   1.8025
  5.813   1.7201
  5.807   1.7201
  5.800   1.7922
  5.794   1.7819
  5.788   1.7510
  5.781   1.8025
  5.775   1.8437
  5.768   1.8128
  5.762   1.8128
  5.755   1.8334
  5.749   1.7922
  5.743   1.7922
  5.736   1.8231
  5.730   1.8437
  5.724   1.8849
  5.717   1.8849
  5.711   1.8231
  5.705   1.8334
  5.698   1.9055
  5.692   1.9261
  5.686   1.8952
  5.680   1.8952
  5.674   1.8437
  5.667   1.8643
  5.661   1.8849
  5.655   1.8643
  5.649   1.8437
  5.643   1.8643
  5.637   1.8231
  5.630   1.8437
  5.624   1.8952
  5.618   1.8952
  5.612   1.8952
  5.606   1.9467
  5.600   1.9055
  5.594   1.8849
  5.588   1.8849
  5.582   1.9261
  5.576   1.9467
  5.570   1.9467
  5.564   1.9261
  5.558   1.9158
  5.552   1.9364
  5.546   1.9570
  5.540   1.9570
  5.534   1.9673
  5.528   1.9570
  5.523   1.9467
  5.517   1.9467
  5.511   1.9982
  5.505   2.0291
  5.499   2.0291
  5.493   2.0291
  5.487   2.0703
  5.482   2.0909
  5.476   2.1115
  5.470   2.0909
  5.464   2.0806
  5.459   2.1012
  5.453   2.1218
  5.447   2.1218
  5.441   2.1630
  5.436   2.1836
  5.430   2.1836
  5.424   2.1836
  5.419   2.1836
  5.413   2.1733
  5.407   2.1836
  5.402   2.1630
  5.396   2.1630
  5.390   2.1836
  5.385   2.1630
  5.379   2.1424
  5.374   2.1733
  5.368   2.1630
  5.363   2.0909
  5.357   2.0806
  5.352   2.1527
  5.346   2.2145
  5.341   2.1939
  5.335   2.1527
  5.330   2.1836
  5.324   2.1939
  5.319   2.1836
  5.313   2.2351
  5.308   2.2660
  5.302   2.2248
  5.297   2.2042
  5.291   2.2248
  5.286   2.2866
  5.281   2.3072
  5.275   2.2866
  5.270   2.2763
  5.265   2.2866
  5.259   2.3278
  5.254   2.3587
  5.249   2.3278
  5.243   2.3278
  5.238   2.3484
  5.233   2.4411
  5.227   2.5235
  5.222   2.5235
  5.217   2.5235
  5.212   2.5338
  5.206   2.5647
  5.201   2.5853
  5.196   2.5544
  5.191   2.5647
  5.186   2.6574
  5.180   2.6780
  5.175   2.6677
  5.170   2.7192
  5.165   2.7501
  5.160   2.7707
  5.155   2.7707
  5.150   2.8119
  5.145   2.8222
  5.139   2.7913
  5.134   2.8016
  5.129   2.8428
  5.124   2.8943
  5.119   2.9252
  5.114   2.9149
  5.109   2.9355
  5.104   2.9767
  5.099   3.0179
  5.094   2.9767
  5.089   2.9973
  5.084   3.0179
  5.079   2.9767
  5.074   2.9561
  5.069   2.9973
  5.064   3.0385
  5.059   3.0591
  5.054   3.0591
  5.049   3.0797
  5.044   3.1209
  5.040   3.1209
  5.035   3.0694
  5.030   3.0694
  5.025   3.0694
  5.020   3.0591
  5.015   3.1106
  5.010   3.1827
  5.005   3.1621
  5.001   3.1415
  4.996   3.1724
  4.991   3.1724
  4.986   3.1312
  4.981   3.1415
  4.977   3.2342
  4.972   3.2754
  4.967   3.3372
  4.962   3.3578
  4.958   3.3681
  4.953   3.3990
  4.948   3.3990
  4.943   3.3578
  4.939   3.3681
  4.934   3.3784
  4.929   3.3887
  4.925   3.4196
  4.920   3.4608
  4.915   3.5020
  4.911   3.5741
  4.906   3.6153
  4.901   3.6050
  4.897   3.6153
  4.892   3.6565
  4.888   3.6874
  4.883   3.7595
  4.878   3.8316
  4.874   3.8110
  4.869   3.8419
  4.865   3.9346
  4.860   3.9861
  4.856   3.9861
  4.851   3.9964
  4.846   4.0479
  4.842   4.1097
  4.837   4.0788
  4.833   4.0685
  4.828   4.1303
  4.824   4.1509
  4.819   4.1612
  4.815   4.1818
  4.810   4.1509
  4.806   4.1509
  4.802   4.1921
  4.797   4.1921
  4.793   4.2333
  4.788   4.2436
  4.784   4.2230
  4.779   4.2436
  4.775   4.2848
  4.771   4.3466
  4.766   4.3878
  4.762   4.3363
  4.758   4.3157
  4.753   4.3569
  4.749   4.3775
  4.744   4.4290
  4.740   4.4908
  4.736   4.4599
  4.731   4.4805
  4.727   4.5217
  4.723   4.5629
  4.719   4.5423
  4.714   4.4908
  4.710   4.5423
  4.706   4.5835
  4.701   4.6247
  4.697   4.6350
  4.693   4.5938
  4.689   4.5629
  4.684   4.5114
  4.680   4.5114
  4.676   4.5320
  4.672   4.5732
  4.668   4.6041
  4.663   4.6350
  4.659   4.7483
  4.655   4.8616
  4.651   4.8410
  4.647   4.8307
  4.643   4.8410
  4.638   4.8719
  4.634   4.9646
  4.630   5.0367
  4.626   5.0882
  4.622   5.1397
  4.618   5.1809
  4.614   5.2221
  4.610   5.2839
  4.605   5.2942
  4.601   5.2942
  4.597   5.3354
  4.593   5.4281
  4.589   5.5311
  4.585   5.4899
  4.581   5.4796
  4.577   5.5620
  4.573   5.6547
  4.569   5.6959
  4.565   5.6856
  4.561   5.6856
  4.557   5.7577
  4.553   5.8195
  4.549   5.8813
  4.545   5.9740
  4.541   6.0461
  4.537   6.0667
  4.533   6.0358
  4.529   6.0564
  4.525   6.1182
  4.521   6.1491
  4.517   6.1491
  4.513   6.1491
  4.509   6.1697
  4.505   6.1800
  4.502   6.2109
  4.498   6.2521
  4.494   6.2521
  4.490   6.2727
  4.486   6.3139
  4.482   6.3654
  4.478   6.4375
  4.474   6.5096
  4.470   6.5508
  4.467   6.5611
  4.463   6.6126
  4.459   6.6847
  4.455   6.7156
  4.451   6.8083
  4.447   6.9113
  4.444   7.0246
  4.440   7.1173
  4.436   7.1791
  4.432   7.2718
  4.428   7.3645
  4.425   7.3954
  4.421   7.4263
  4.417   7.5808
  4.413   7.7147
  4.410   7.7868
  4.406   7.8589
  4.402   7.9310
  4.398   8.0031
  4.395   8.1267
  4.391   8.2503
  4.387   8.3739
  4.384   8.4563
  4.380   8.5593
  4.376   8.6623
  4.372   8.7859
  4.369   8.8889
  4.365   8.9919
  4.361   9.0331
  4.358   9.1361
  4.354   9.3318
  4.350   9.4348
  4.347   9.5275
  4.343   9.6614
  4.340   9.7232
  4.336   9.7747
  4.332   9.8468
  4.329   9.8983
  4.325   9.9704
  4.321  10.0837
  4.318  10.1764
  4.314  10.2691
  4.311  10.3103
  4.307  10.3309
  4.304  10.3515
  4.300  10.3824
  4.296  10.4236
  4.293  10.5472
  4.289  10.7017
  4.286  10.7738
  4.282  10.7738
  4.279  10.8150
  4.275  10.8562
  4.272  10.8665
  4.268  10.8253
  4.265  10.9283
  4.261  11.1034
  4.258  11.2373
  4.254  11.3197
  4.251  11.3300
  4.247  11.4021
  4.244  11.5154
  4.240  11.5566
  4.237  11.5978
  4.233  11.6390
  4.230  11.7214
  4.226  11.8038
  4.223  11.8141
  4.219  11.8038
  4.216  11.7626
  4.213  11.8038
  4.209  11.9274
  4.206  11.9583
  4.202  12.0407
  4.199  12.1025
  4.196  12.1334
  4.192  12.1437
  4.189  12.1746
  4.185  12.1849
  4.182  12.2261
  4.179  12.2673
  4.175  12.2879
  4.172  12.3394
  4.169  12.3600
  4.165  12.4115
  4.162  12.4939
  4.159  12.5763
  4.155  12.6484
  4.152  12.6072
  4.149  12.6587
  4.145  12.7411
  4.142  12.7823
  4.139  12.8956
  4.135  12.9677
  4.132  12.9471
  4.129  12.8956
  4.126  12.9059
  4.122  13.0192
  4.119  13.1016
  4.116  13.0810
  4.112  13.1325
  4.109  13.2252
  4.106  13.2870
  4.103  13.2973
  4.099  13.2046
  4.096  13.2355
  4.093  13.3385
  4.090  13.3900
  4.086  13.4518
  4.083  13.5033
  4.080  13.4827
  4.077  13.4930
  4.074  13.5033
  4.070  13.5857
  4.067  13.6578
  4.064  13.7299
  4.061  13.7402
  4.058  13.7093
  4.055  13.7093
  4.051  13.7196
  4.048  13.7093
  4.045  13.6990
  4.042  13.7196
  4.039  13.7711
  4.036  13.8020
  4.032  13.8020
  4.029  13.7608
  4.026  13.7711
  4.023  13.7917
  4.020  13.8329
  4.017  13.8535
  4.014  13.8844
  4.011  13.8329
  4.008  13.8226
  4.004  13.8638
  4.001  13.9565
  3.998  13.9771
  3.995  13.8844
  3.992  13.8123
  3.989  13.9050
  3.986  14.0183
  3.983  14.1007
  3.980  14.1213
  3.977  14.1316
  3.974  14.0904
  3.971  14.0698
  3.968  14.0698
  3.965  14.1522
  3.962  14.2552
  3.959  14.3067
  3.956  14.2861
  3.953  14.2964
  3.950  14.4200
  3.947  14.5024
  3.944  14.5436
  3.941  14.5436
  3.938  14.5230
  3.935  14.5024
  3.932  14.5436
  3.929  14.6054
  3.926  14.6569
  3.923  14.6466
  3.920  14.6157
  3.917  14.6054
  3.914  14.6672
  3.911  14.7084
  3.908  14.7084
  3.905  14.7393
  3.902  14.7393
  3.899  14.7187
  3.896  14.6878
  3.893  14.7187
  3.890  14.7496
  3.887  14.8114
  3.884  14.7599
  3.882  14.7393
  3.879  14.6775
  3.876  14.6672
  3.873  14.6466
  3.870  14.6363
  3.867  14.7084
  3.864  14.7496
  3.861  14.6672
  3.858  14.6466
  3.856  14.6775
  3.853  14.7393
  3.850  14.7908
  3.847  14.8526
  3.844  14.8526
  3.841  14.8423
  3.838  14.7702
  3.836  14.7084
  3.833  14.7702
  3.830  14.8526
  3.827  14.8423
  3.824  14.8320
  3.822  14.9144
  3.819  14.9144
  3.816  14.9041
  3.813  14.9144
  3.810  14.8011
  3.807  14.7496
  3.805  14.6981
  3.802  14.6981
  3.799  14.7702
  3.796  14.8114
  3.794  14.7599
  3.791  14.6878
  3.788  14.6569
  3.785  14.6775
  3.782  14.6981
  3.780  14.6672
  3.777  14.5333
  3.774  14.5230
  3.771  14.4406
  3.769  14.4200
  3.766  14.3685
  3.763  14.2758
  3.761  14.1213
  3.758  14.0698
  3.755  14.0698
  3.752  14.0286
  3.750  14.0080
  3.747  13.9668
  3.744  13.9050
  3.742  13.8947
  3.739  13.8226
  3.736  13.7196
  3.733  13.6578
  3.731  13.6990
  3.728  13.7299
  3.725  13.7402
  3.723  13.6372
  3.720  13.6372
  3.717  13.6681
  3.715  13.6990
  3.712  13.7196
  3.709  13.5651
  3.707  13.4724
  3.704  13.5548
  3.702  13.5754
  3.699  13.5342
  3.696  13.5033
  3.694  13.4518
  3.691  13.3591
  3.688  13.3385
  3.686  13.4415
  3.683  13.5239
  3.680  13.4106
  3.678  13.4003
  3.675  13.4415
  3.673  13.4518
  3.670  13.3591
  3.667  13.3179
  3.665  13.3591
  3.662  13.4106
  3.660  13.3488
  3.657  13.4106
  3.655  13.4209
  3.652  13.3900
  3.649  13.3385
  3.647  13.2973
  3.644  13.2870
  3.642  13.2973
  3.639  13.2355
  3.637  13.2252
  3.634  13.2149
  3.632  13.1428
  3.629  13.0089
  3.626  12.9780
  3.624  12.9265
  3.621  12.8338
  3.619  12.7823
  3.616  12.8029
  3.614  12.7514
  3.611  12.7308
  3.609  12.7411
  3.606  12.6381
  3.604  12.4836
  3.601  12.4733
  3.599  12.5660
  3.596  12.5969
  3.594  12.5660
  3.591  12.4527
  3.589  12.2055
  3.586  12.0201
  3.584  11.9686
  3.581  11.9892
  3.579  11.9068
  3.576  11.8965
  3.574  11.8862
  3.571  11.8141
  3.569  11.8347
  3.567  11.8141
  3.564  11.6596
  3.562  11.5772
  3.559  11.4227
  3.557  11.3403
  3.554  11.3403
  3.552  11.3197
  3.549  11.2064
  3.547  11.1755
  3.545  11.1137
  3.542  11.1240
  3.540  11.0416
  3.537  10.9180
  3.535  10.8253
  3.533  10.8562
  3.530  10.7635
  3.528  10.6708
  3.525  10.7017
  3.523  10.6605
  3.521  10.5472
  3.518  10.4957
  3.516  10.3824
  3.513  10.3515
  3.511  10.2897
  3.509  10.2588
  3.506  10.1558
  3.504   9.9910
  3.502   9.9910
  3.499  10.0940
  3.497  10.1146
  3.494  10.0631
  3.492   9.9601
  3.490   9.9086
  3.487   9.8777
  3.485   9.9292
  3.483   9.9601
  3.480   9.9292
  3.478   9.9086
  3.476   9.8777
  3.473   9.8674
  3.471   9.7953
  3.469   9.7232
  3.466   9.8159
  3.464   9.7541
  3.462   9.7335
  3.460   9.7335
  3.457   9.6820
  3.455   9.5172
  3.453   9.4554
  3.450   9.4966
  3.448   9.5481
  3.446   9.5069
  3.443   9.3318
  3.441   9.0846
  3.439   9.1258
  3.437   9.1567
  3.434   9.1155
  3.432   9.0228
  3.430   9.0331
  3.428   9.0228
  3.425   8.8992
  3.423   8.7653
  3.421   8.7653
  3.418   8.7447
  3.416   8.6005
  3.414   8.4769
  3.412   8.4460
  3.409   8.4666
  3.407   8.4769
  3.405   8.4666
  3.403   8.5181
  3.401   8.4872
  3.398   8.5284
  3.396   8.4151
  3.394   8.3327
  3.392   8.2297
  3.389   8.2091
  3.387   8.2297
  3.385   8.2194
  3.383   8.1267
  3.381   8.0855
  3.378   8.1473
  3.376   8.1885
  3.374   8.0855
  3.372   7.9722
  3.370   7.8795
  3.367   7.9310
  3.365   7.9001
  3.363   7.9104
  3.361   7.9310
  3.359   7.8795
  3.357   7.6941
  3.354   7.6632
  3.352   7.7353
  3.350   7.8074
  3.348   7.7971
  3.346   7.7971
  3.344   7.7353
  3.341   7.7662
  3.339   7.7353
  3.337   7.7147
  3.335   7.7662
  3.333   7.7250
  3.331   7.5190
  3.329   7.4160
  3.326   7.4469
  3.324   7.4984
  3.322   7.4263
  3.320   7.4160
  3.318   7.3233
  3.316   7.3130
  3.314   7.2409
  3.312   7.1688
  3.309   7.1791
  3.307   7.2821
  3.305   7.1791
  3.303   7.0761
  3.301   6.9937
  3.299   6.9731
  3.297   6.8495
  3.295   6.9422
  3.293   6.9937
  3.291   6.9834
  3.288   6.9422
  3.286   6.8804
  3.284   6.7980
  3.282   6.7259
  3.280   6.6126
  3.278   6.6435
  3.276   6.6435
  3.274   6.6332
  3.272   6.5508
  3.270   6.6023
  3.268   6.6847
  3.266   6.6538
  3.264   6.5508
  3.262   6.6229
  3.259   6.6332
  3.257   6.5508
  3.255   6.4272
  3.253   6.4375
  3.251   6.5199
  3.249   6.5405
  3.247   6.4787
  3.245   6.3963
  3.243   6.2727
  3.241   6.3860
  3.239   6.4375
  3.237   6.2830
  3.235   6.2727
  3.233   6.3345
  3.231   6.2521
  3.229   6.3139
  3.227   6.3448
  3.225   6.2521
  3.223   6.2109
  3.221   6.2212
  3.219   6.1182
  3.217   6.0049
  3.215   6.0358
  3.213   6.1182
  3.211   6.1800
  3.209   6.3139
  3.207   6.2624
  3.205   6.1491
  3.203   6.0255
  3.201   5.9328
  3.199   5.9019
  3.197   6.0564
  3.195   6.0358
  3.193   5.9740
  3.191   5.9534
  3.189   5.9019
  3.187   5.7886
  3.185   5.7989
  3.183   5.7371
  3.182   5.6444
  3.180   5.6753
  3.178   5.8092
  3.176   5.8916
  3.174   5.8092
  3.172   5.6238
  3.170   5.5723
  3.168   5.5929
  3.166   5.6032
  3.164   5.5620
  3.162   5.5929
  3.160   5.6135
  3.158   5.6444
  3.156   5.6135
  3.154   5.5826
  3.152   5.5311
  3.151   5.4899
  3.149   5.4590
  3.147   5.4384
  3.145   5.4487
  3.143   5.4075
  3.141   5.2633
  3.139   5.3148
  3.137   5.3560
  3.135   5.3766
  3.133   5.3663
  3.132   5.3560
  3.130   5.3354
  3.128   5.3560
  3.126   5.2633
  3.124   5.2530
  3.122   5.0985
  3.120   5.0985
  3.118   5.2015
  3.117   5.3354
  3.115   5.2118
  3.113   5.0882
  3.111   4.9852
  3.109   5.0367
  3.107   5.1088
  3.105   5.1706
  3.103   5.0161
  3.102   4.9646
  3.100   4.9852
  3.098   4.9955
  3.096   4.9440
  3.094   4.9749
  3.092   5.1088
  3.091   5.0779
  3.089   5.0264
  3.087   4.9440
  3.085   4.8513
  3.083   4.9131
  3.081   4.9234
  3.079   4.8513
  3.078   4.8719
  3.076   4.9852
  3.074   4.9131
  3.072   4.8822
  3.070   4.7483
  3.069   4.7071
  3.067   4.7792
  3.065   4.8719
  3.063   4.8101
  3.061   4.8719
  3.060   5.0161
  3.058   4.9337
  3.056   4.7277
  3.054   4.7895
  3.052   4.7586
  3.051   4.8101
  3.049   4.7998
  3.047   4.8204
  3.045   4.8410
  3.043   4.8410
  3.042   4.7071
  3.040   4.7483
  3.038   4.7174
  3.036   4.7277
  3.034   4.7689
  3.033   4.8719
  3.031   4.7689
  3.029   4.6144
  3.027   4.5835
  3.026   4.6144
  3.024   4.5732
  3.022   4.7483
  3.020   4.7380
  3.019   4.7586
  3.017   4.7998
  3.015   4.8307
  3.013   4.8616
  3.012   4.7792
  3.010   4.6453
  3.008   4.6865
  3.006   4.6865
  3.005   4.7380
  3.003   4.7380
  3.001   4.8719
  2.999   4.9234
  2.998   4.9028
  2.996   4.7380
  2.994   4.7380
  2.992   4.6556
  2.991   4.5217
  2.989   4.6659
  2.987   4.8307
  2.986   4.7792
  2.984   4.7380
  2.982   4.7483
  2.980   4.7895
  2.979   4.7586
  2.977   4.8101
  2.975   4.8307
  2.974   4.8410
  2.972   4.8410
  2.970   4.8410
  2.968   4.7895
  2.967   4.9028
  2.965   4.8925
  2.963   4.7483
  2.962   4.6968
  2.960   4.7792
  2.958   4.7483
  2.957   4.6144
  2.955   4.6865
  2.953   4.7483
  2.952   4.6144
  2.950   4.7071
  2.948   4.7998
  2.947   4.8513
  2.945   4.7998
  2.943   4.8616
  2.942   4.7071
  2.940   4.6968
  2.938   4.6865
  2.937   4.7071
  2.935   4.7380
  2.933   4.7071
  2.932   4.6453
  2.930   4.6144
  2.928   4.6659
  2.927   4.7792
  2.925   4.6247
  2.923   4.7277
  2.922   4.8616
  2.920   4.8822
  2.918   4.8822
  2.917   4.9337
  2.915   5.0058
  2.913   5.0161
  2.912   4.9337
  2.910   4.9749
  2.909   5.0058
  2.907   5.1500
  2.905   4.9852
  2.904   4.8719
  2.902   4.9337
  2.900   4.9955
  2.899   4.9646
  2.897   5.0882
  2.896   5.0573
  2.894   5.0161
  2.892   4.9543
  2.891   5.0573
  2.889   5.2015
  2.887   5.1500
  2.886   5.0779
  2.884   5.2015
  2.883   5.1294
  2.881   5.0882
  2.879   5.0985
  2.878   5.0058
  2.876   4.9543
  2.875   5.1500
  2.873   5.1706
  2.871   5.1191
  2.870   5.2118
  2.868   5.3251
  2.867   5.2015
  2.865   5.1603
  2.864   5.0779
  2.862   5.1294
  2.860   5.0573
  2.859   5.1500
  2.857   5.2427
  2.856   5.1809
  2.854   5.1912
  2.853   5.4075
  2.851   5.3148
  2.849   5.1603
  2.848   5.3457
  2.846   5.5826
  2.845   5.4590
  2.843   5.4796
  2.842   5.3869
  2.840   5.3045
  2.838   5.3766
  2.837   5.5620
  2.835   5.4075
  2.834   5.0985
  2.832   5.0264
  2.831   5.0882
  2.829   4.9543
  2.828   4.8101
  2.826   4.9440
  2.825   5.1191
  2.823   4.9028
  2.821   4.7895
  2.820   4.8101
  2.818   4.8101
  2.817   4.6865
  2.815   4.5114
  2.814   4.5320
  2.812   4.8616
  2.811   4.6041
  2.809   4.1818
  2.808   4.2230
  2.806   4.4702
  2.805   4.3775
  2.803   4.3466
  2.802   4.1612
  2.800   4.0788
  2.799   4.1921
  2.797   4.2230
  2.796   4.0067
  2.794   4.1097
  2.793   4.0479
  2.791   3.8110
  2.790   3.4608
  2.788   3.5638
  2.787   3.8419
  2.785   3.9655
  2.784   3.8110
  2.782   3.7595
  2.781   3.3681
  2.779   3.2960
  2.778   3.4917
  2.776   3.3887
  2.775   3.4402
  2.773   3.5638
  2.772   3.2342
  2.770   3.0488
  2.769   3.2548
  2.767   3.5329
  2.766   3.4505
  2.764   3.4814
  2.763   3.2239
  2.761   3.1106
  2.760   3.2857
  2.758   3.3784
  2.757   3.3681
  2.756   3.4814
  2.754   3.4711
  2.753   3.4608
  2.751   3.5123
  2.750   3.7904
  2.748   3.8110
  2.747   3.6359
  2.745   3.5123
  2.744   3.6565
  2.742   3.8007
  2.741   3.7286
  2.740   3.6359
  2.738   3.9449
  2.737   4.0685
  2.735   3.9346
  2.734   4.1200
  2.732   4.2642
  2.731   4.3157
  2.729   4.5011
  2.728   4.5629
  2.727   4.5835
  2.725   4.6041
  2.724   4.8616
  2.722   4.8719
  2.721   4.8925
  2.719   5.1397
  2.718   5.3457
  2.717   5.4384
  2.715   5.5620
  2.714   5.5723
  2.712   5.7165
  2.711   5.7783
  2.709   5.7989
  2.708   5.7165
  2.707   5.7371
  2.705   5.6341
  2.704   5.3972
  2.702   5.1706
  2.701   5.0573
  2.700   5.2118
  2.698   5.5620
  2.697   5.8298
  2.695   6.0667
  2.694   6.0255
  2.693   6.6023
  2.691   7.0452
  2.690   7.5499
  2.688   8.0443
  2.687   8.5284
  2.686   9.0331
  2.684   9.5790
  2.683   9.8571
  2.681  10.2073
  2.680  10.7429
  2.679  11.2888
  2.677  11.6802
  2.676  12.0098
  2.675  12.1849
  2.673  12.4527
  2.672  12.6999
  2.670  13.1016
  2.669  13.6063
  2.668  13.5445
  2.666  13.7196
  2.665  14.4097
  2.664  14.5333
  2.662  14.5848
  2.661  14.7599
  2.659  14.8732
  2.658  15.2543
  2.657  15.3985
  2.655  15.3367
  2.654  15.5633
  2.653  15.7796
  2.651  15.8723
  2.650  15.9238
  2.649  16.1916
  2.647  16.2740
  2.646  16.2740
  2.645  16.2431
  2.643  16.4388
  2.642  16.5933
  2.640  16.7066
  2.639  16.7684
  2.638  16.7375
  2.636  16.5006
  2.635  16.3667
  2.634  16.3976
  2.632  16.5933
  2.631  16.6448
  2.630  16.4903
  2.628  16.6654
  2.627  17.0053
  2.626  16.8817
  2.624  16.7787
  2.623  16.7169
  2.622  16.8714
  2.620  16.9435
  2.619  16.9950
  2.618  16.9126
  2.617  16.9641
  2.615  16.9023
  2.614  16.9126
  2.613  16.8920
  2.611  16.8302
  2.610  16.7581
  2.609  16.7787
  2.607  16.9229
  2.606  17.1598
  2.605  17.1701
  2.603  17.3967
  2.602  17.4585
  2.601  17.3555
  2.599  17.4173
  2.598  17.4997
  2.597  17.7675
  2.596  17.9941
  2.594  17.6233
  2.593  17.5512
  2.592  17.6542
  2.590  17.6130
  2.589  17.6645
  2.588  17.9117
  2.586  17.8087
  2.585  18.1486
  2.584  18.2619
  2.583  18.1177
  2.581  18.0868
  2.580  18.4370
  2.579  18.4782
  2.577  18.4782
  2.576  18.3546
  2.575  18.5709
  2.574  18.8284
  2.572  18.7666
  2.571  18.5400
  2.570  18.6636
  2.569  18.9726
  2.567  19.0756
  2.566  19.0344
  2.565  19.1477
  2.563  19.1683
  2.562  19.5906
  2.561  19.7966
  2.560  19.7039
  2.558  19.5391
  2.557  19.4052
  2.556  19.3743
  2.555  19.3537
  2.553  19.4670
  2.552  19.6524
  2.551  19.6936
  2.550  19.7966
  2.548  19.8790
  2.547  19.9511
  2.546  19.8275
  2.545  19.9717
  2.543  19.7760
  2.542  19.8378
  2.541  19.9511
  2.540  19.8172
  2.538  19.5906
  2.537  19.7760
  2.536  19.9511
  2.535  19.9408
  2.533  19.7039
  2.532  19.9408
  2.531  19.9408
  2.530  19.5803
  2.528  19.7245
  2.527  20.1468
  2.526  20.0335
  2.525  20.0232
  2.524  19.9614
  2.522  19.6833
  2.521  19.4876
  2.520  19.5906
  2.519  19.5597
  2.517  19.7863
  2.516  19.8172
  2.515  19.7657
  2.514  19.7039
  2.513  19.7142
  2.511  19.8069
  2.510  19.8481
  2.509  19.9202
  2.508  19.7657
  2.506  19.7966
  2.505  19.8069
  2.504  19.4361
  2.503  19.4567
  2.502  19.4258
  2.500  19.4567
  2.497  19.4567
  2.493  19.0567
  2.489  18.8567
  2.485  18.5567
  2.481  18.3567
  2.477  17.9567
  2.473  17.8567
  2.469  17.7567
  2.465  17.4567
  2.461  17.1567
  2.457  16.8567
  2.453  16.9567
  2.449  16.6567
  2.445  16.7567
  2.441  16.8567
  2.437  16.8567
  2.433  17.1567
  2.429  17.3567
  2.425  17.7567
  2.421  18.0567
  2.417  18.1567
  2.413  18.3567
  2.409  18.5567
  2.405  19.0567
  2.401  19.2567
  2.397  19.5567
  2.393  19.5567
  2.389  19.4567
  2.385  19.2567
  2.381  19.0567
  2.377  18.6567
  2.373  18.3567
  2.369  17.9567
  2.365  17.4567
  2.361  17.3567
  2.357  17.1567
  2.353  16.8567
  2.349  16.8567
  2.345  16.9567
  2.341  17.2567
  2.337  17.4567
  2.333  17.8567
  2.329  18.5567
  2.325  19.2567
  2.321  20.1567
  2.317  20.8567
  2.313  21.9567
  2.309  23.2567
  2.305  24.5567
  2.301  27.6567
  2.297  27.6567
  2.293  27.8567
  2.289  28.5567
  2.285  29.3567
  2.281  30.0567
  2.277  30.2567
  2.273  29.6567
  2.269  28.9567
  2.265  27.8567
  2.261  26.8567
  2.257  25.5567
  2.253  24.4567
  2.249  23.0567
  2.245  22.1567
  2.241  20.8567
  2.237  19.9567
  2.233  18.9567
  2.229  18.1567
  2.225  17.4567
  2.221  16.9567
  2.217  16.7567
  2.213  17.1567
  2.209  18.0567
  2.205  19.4567
  2.201  21.0567
  2.197  23.0567
  2.193  25.1567
  2.189  27.1567
  2.185  29.1567
  2.181  30.8567
  2.177  32.4567
  2.173  33.9567
  2.169  35.0567
  2.165  36.0567
  2.161  37.0567
  2.157  37.6567
  2.153  38.4567
  2.149  38.5567
  2.145  38.9567
  2.141  39.2567
  2.137  39.5567
  2.133  39.5567
  2.129  39.5567
  2.125  39.4567
  2.121  39.6567
  2.117  40.5567
  2.113  41.1567
  2.109  41.8567
  2.105  42.2567
  2.101  42.8567
  2.097  43.8567
  2.093  44.5567
  2.089  45.0567
  2.085  45.6567
  2.081  46.2567
  2.077  46.6567
  2.073  46.7567
  2.069  47.1567
  2.065  47.0567
  2.061  47.2567
  2.057  47.2567
  2.053  47.2567
  2.049  47.6567
  2.045  47.5567
  2.041  47.3567
  2.037  47.3567
  2.033  47.2567
  2.029  46.8567
  2.025  46.6567
  2.021  46.5567
  2.017  46.1567
  2.013  46.0567
  2.009  45.5567
  2.005  45.1567
  2.001  45.1567
  1.997  45.1567
  1.993  45.0567
  1.989  45.0567
  1.985  44.2567
  1.981  43.9567
  1.977  43.8567
  1.973  43.4567
  1.969  43.1567
  1.965  42.9567
  1.961  42.6567
  1.957  42.2567
  1.953  41.8567
  1.949  41.5567
  1.945  41.1567
  1.941  40.9567
  1.937  40.4567
  1.933  40.0567
  1.929  39.9567
  1.925  39.0567
  1.921  38.3567
  1.917  37.7567
  1.913  37.7567
  1.909  38.2567
  1.905  38.8567
  1.901  39.4567
  1.897  40.9567
  1.893  42.7567
  1.889  44.4567
  1.885  46.5567
  1.881  48.8567
  1.877  50.9567
  1.873  52.0567
  1.869  52.5567
  1.865  52.7567
  1.861  53.6567
  1.857  54.7567
  1.853  54.9567
  1.849  55.3567
  1.845  55.8567
  1.841  56.1567
  1.837  56.5567
  1.833  56.2567
  1.829  56.4567
  1.825  56.7567
  1.821  57.1567
  1.817  57.3567
  1.813  57.2567
  1.809  57.0567
  1.805  57.0567
  1.801  57.0567
  1.797  56.9567
  1.793  57.1567
  1.789  57.2567
  1.785  57.5567
  1.781  57.5567
  1.777  57.5567
  1.773  57.5567
  1.769  57.5567
  1.765  57.6567
  1.761  57.7567
  1.757  57.5567
  1.753  57.3567
  1.749  57.2567
  1.745  57.1567
  1.741  57.1567
  1.737  57.2567
  1.733  57.5567
  1.729  57.5567
  1.725  57.6567
  1.721  57.1567
  1.717  56.9567
  1.713  56.9567
  1.709  56.6567
  1.705  56.7567
  1.701  56.9567
  1.697  57.0567
  1.693  56.7567
  1.689  56.6567
  1.685  56.9567
  1.681  56.9567
  1.677  56.7567
  1.673  56.6567
  1.669  56.4567
  1.665  56.2567
  1.661  56.5567
  1.657  56.4567
  1.653  56.0567
  1.649  56.1567
  1.645  55.6567
  1.641  55.6567
  1.637  55.5567
  1.633  55.3567
  1.629  55.5567
  1.625  55.8567
  1.621  55.8567
  1.617  55.3567
  1.613  55.0567
  1.609  54.8567
  1.605  54.8567
  1.601  54.8567
  1.597  54.9567
  1.593  54.8567
  1.589  53.8567
  1.585  53.6567
  1.581  53.3567
  1.577  53.3567
  1.573  53.4567
  1.569  53.6567
  1.565  52.8567
  1.561  52.6567
  1.557  52.5567
  1.553  52.1567
  1.549  52.1567
  1.545  51.8567
  1.541  51.7567
  1.537  51.4567
  1.533  51.5567
  1.529  51.5567
  1.525  51.6567
  1.521  51.5567
  1.517  51.0567
  1.513  50.6567
  1.509  50.4567
  1.505  50.0567
  1.501  49.7567
  1.497  49.7567
  1.493  49.5567
  1.489  49.3567
  1.485  49.3567
  1.481  49.0567
  1.477  48.7567
  1.473  48.4567
  1.469  48.3567
  1.465  47.8567
  1.461  47.5567
  1.457  47.1567
  1.453  46.4567
  1.449  46.0567
  1.445  45.3567
  1.441  43.9567
  1.437  42.4567
  1.433  40.5567
  1.429  38.1567
  1.425  35.2567
  1.421  32.7567
  1.417  30.5567
  1.413  29.0567
  1.409  29.7567
  1.405  31.5567
  1.401  33.5567
  1.397  36.0567
  1.393  38.2567
  1.389  39.4567
  1.385  41.8567
  1.381  42.8567
  1.377  42.7567
  1.373  43.8567
  1.369  44.8567
  1.365  44.9567
  1.361  44.2567
  1.357  44.2567
  1.353  44.8567
  1.349  44.6567
  1.345  44.6567
  1.341  44.8567
  1.337  44.9567
  1.333  44.8567
  1.329  44.6567
  1.325  44.5567
  1.321  44.3567
  1.317  44.2567
  1.313  44.0567
  1.309  43.8567
  1.305  43.4567
  1.301  43.2567
  1.297  42.8567
  1.293  42.6567
  1.289  42.3567
  1.285  42.2567
  1.281  41.8567
  1.277  41.8567
  1.273  41.6567
  1.269  41.3567
  1.265  41.1567
  1.261  40.9567
  1.257  40.6567
  1.253  40.4567
  1.249  40.0567
  1.245  39.9567
  1.241  40.0567
  1.237  39.6567
  1.233  39.3567
  1.229  39.0567
  1.225  39.0567
  1.221  38.7567
  1.217  38.2567
  1.213  37.9567
  1.209  37.7567
  1.205  37.6567
  1.201  37.2567
  1.197  37.0567
  1.193  36.7567
  1.189  36.6567
  1.185  36.5567
  1.181  36.5567
  1.177  36.3567
  1.173  36.2567
  1.169  36.0567
  1.165  35.9567
  1.161  35.7567
  1.157  35.5567
  1.153  35.4567
  1.149  35.7567
  1.145  35.6567
  1.141  35.4567
  1.137  35.5567
  1.133  35.4567
  1.129  34.9567
  1.125  35.0567
  1.121  35.2567
  1.117  34.9567
  1.113  34.5567
  1.109  34.6567
  1.105  35.4567
  1.101  35.2567
  1.097  34.9567
  1.093  34.4567
  1.089  34.6567
  1.085  34.6567
  1.081  35.1567
  1.077  35.0567
  1.073  35.1567
  1.069  34.9567
  1.065  34.9567
  1.061  35.1567
  1.057  35.0567
  1.053  35.0567
  1.049  34.9567
  1.045  34.5567
  1.041  34.8567
  1.037  35.0567
  1.033  34.9567
  1.029  34.8567
  1.025  34.8567
  1.021  35.1567
  1.017  35.0567
  1.013  35.1567
  1.009  35.2567
  1.005  35.2567
  1.001  35.2567
  0.997  35.1567
  0.993  35.0567
  0.989  35.0567
  0.985  35.0567
  0.981  35.0567
  0.977  34.9567
  0.973  34.6567
  0.969  34.6567
  0.965  34.8567
  0.961  34.8567
  0.957  34.4567
  0.953  34.4567
  0.949  34.4567
  0.945  34.4567
  0.941  34.1567
  0.937  34.0567
  0.933  34.3567
  0.929  34.0567
  0.925  34.1567
  0.921  33.9567
  0.917  33.9567
  0.913  33.8567
  0.909  33.9567
  0.905  33.8567
  0.901  33.9567
  0.897  33.7567
  0.893  33.7567
  0.889  33.7567
  0.885  33.7567
  0.881  33.7567
  0.877  33.9567
  0.873  34.0567
  0.869  34.0567
  0.865  34.1567
  0.861  34.1567
  0.857  34.1567
  0.853  34.4567
  0.849  34.3567
  0.845  34.4567
  0.841  34.6567
  0.837  34.6567
  0.833  34.8567
  0.829  34.6567
  0.825  34.9567
  0.821  34.8567
  0.817  35.0567
  0.813  35.0567
  0.809  35.1567
  0.805  34.9567
  0.804  35.1567
  0.803  35.1567
  0.802  34.9567
  0.801  34.9567
  0.800  34.8567
  0.799  34.5567
  0.798  34.4567
  0.797  34.4567
  0.796  34.5567
  0.795  34.4567
  0.794  34.3567
  0.793  34.1567
  0.792  34.4567
  0.791  34.5567
  0.790  34.6567
  0.789  34.4567
  0.788  34.4567
  0.787  34.4567
  0.786  34.6567
  0.785  34.6567
  0.784  34.1567
  0.783  34.3567
  0.782  34.4567
  0.781  34.3567
  0.780  34.0567
  0.779  34.3567
  0.778  34.0567
  0.777  34.4567
  0.776  34.5567
  0.775  34.5567
  0.774  34.0567
  0.773  34.1567
  0.772  34.3567
  0.771  34.3567
  0.770  34.4567
  0.769  34.1567
  0.768  34.0567
  0.767  34.0567
  0.766  34.3567
  0.765  34.4567
  0.764  34.5567
  0.763  34.4567
  0.762  34.1567
  0.761  34.3567
  0.760  34.1567
  0.759  34.4567
  0.758  34.4567
  0.757  34.5567
  0.756  34.4567
  0.755  34.4567
  0.754  34.4567
  0.753  34.8567
  0.752  34.6567
  0.751  34.3567
  0.750  34.3567
  0.749  34.5567
  0.748  34.3567
  0.747  34.1567
  0.746  34.3567
  0.745  34.3567
  0.744  34.5567
  0.743  34.8567
  0.742  34.6567
  0.741  34.4567
  0.740  34.4567
  0.739  34.8567
  0.738  34.6567
  0.737  35.0567
  0.736  34.9567
  0.735  34.9567
  0.734  34.6567
  0.733  34.6567
  0.732  34.6567
  0.731  34.6567
  0.730  34.6567
  0.729  34.5567
  0.728  34.8567
  0.727  34.9567
  0.726  34.8567
  0.725  35.0567
  0.724  34.6567
  0.723  34.5567
  0.722  34.8567
  0.721  35.1567
  0.720  35.1567
  0.719  35.0567
  0.718  34.9567
  0.717  34.8567
  0.716  35.0567
  0.715  35.0567
  0.714  35.1567
  0.713  35.2567
  0.712  35.2567
  0.711  35.1567
  0.710  35.0567
  0.709  34.8567
  0.708  34.8567
  0.707  35.0567
  0.706  35.0567
  0.705  35.0567
  0.704  35.1567
  0.703  34.5567
  0.702  34.5567
  0.701  34.9567
  0.700  35.1567
  0.699  35.4567
  0.698  35.1567
  0.697  35.0567
  0.696  34.8567
  0.695  35.0567
  0.694  35.0567
  0.693  35.0567
  0.692  35.0567
  0.691  35.0567
  0.690  34.9567
  0.689  34.8567
  0.688  34.9567
  0.687  35.1567
  0.686  35.0567
  0.685  35.0567
  0.684  35.2567
  0.683  35.4567
  0.682  35.0567
  0.681  34.9567
  0.680  35.1567
  0.679  35.1567
  0.678  35.2567
  0.677  35.7567
  0.676  35.4567
  0.675  35.5567
  0.674  35.6567
  0.673  35.7567
  0.672  35.5567
  0.671  35.5567
  0.670  35.4567
  0.669  35.2567
  0.668  35.6567
  0.667  35.6567
  0.666  35.4567
  0.665  35.6567
  0.664  35.5567
  0.663  35.4567
  0.662  35.4567
  0.661  35.4567
  0.660  35.4567
  0.659  35.7567
  0.658  35.9567
  0.657  35.7567
  0.656  35.5567
  0.655  35.6567
  0.654  35.5567
  0.653  35.5567
  0.652  35.6567
  0.651  35.7567
  0.650  35.7567
  0.649  35.7567
  0.648  35.6567
  0.647  35.7567
  0.646  35.9567
  0.645  36.1567
  0.644  36.1567
  0.643  36.0567
  0.642  36.0567
  0.641  36.0567
  0.640  35.7567
  0.639  35.7567
  0.638  35.6567
  0.637  36.0567
  0.636  35.9567
  0.635  36.0567
  0.634  36.0567
  0.633  36.0567
  0.632  35.7567
  0.631  35.9567
  0.630  36.0567
  0.629  35.6567
  0.628  35.6567
  0.627  36.0567
  0.626  36.0567
  0.625  36.0567
  0.624  36.0567
  0.623  35.9567
  0.622  35.9567
  0.621  36.1567
  0.620  36.0567
  0.619  36.2567
  0.618  36.2567
  0.617  36.3567
  0.616  36.2567
  0.615  36.0567
  0.614  36.0567
  0.613  36.1567
  0.612  36.0567
  0.611  36.3567
  0.610  36.3567
  0.609  36.3567
  0.608  36.2567
  0.607  36.1567
  0.606  36.0567
  0.605  36.5567
  0.604  36.6567
  0.603  36.7567
  0.602  36.2567
  0.601  36.3567
  0.600  36.2567
  0.599  36.3567
  0.598  36.6567
  0.597  36.3567
  0.596  36.3567
  0.595  36.2567
  0.594  36.5567
  0.593  36.7567
  0.592  36.6567
  0.591  36.3567
  0.590  36.3567
  0.589  36.3567
  0.588  36.5567
  0.587  36.6567
  0.586  36.6567
  0.585  36.5567
  0.584  36.3567
  0.583  36.5567
  0.582  36.6567
  0.581  36.3567
  0.580  36.6567
  0.579  36.6567
  0.578  36.5567
  0.577  36.3567
  0.576  36.6567
  0.575  36.7567
  0.574  36.7567
  0.573  37.1567
  0.572  37.0567
  0.571  36.8567
  0.570  37.0567
  0.569  37.0567
  0.568  37.0567
  0.567  37.0567
  0.566  36.8567
  0.565  36.8567
  0.564  36.7567
  0.563  37.4567
  0.562  37.6567
  0.561  37.7567
  0.560  37.6567
  0.559  37.6567
  0.558  37.8567
  0.557  37.6567
  0.556  37.4567
  0.555  37.4567
  0.554  37.2567
  0.553  37.1567
  0.552  37.1567
  0.551  37.3567
  0.550  37.1567
  0.549  37.2567
  0.548  37.1567
  0.547  36.8567
  0.546  37.1567
  0.545  37.0567
  0.544  36.7567
  0.543  36.8567
  0.542  36.7567
  0.541  36.6567
  0.540  36.7567
  0.539  36.7567
  0.538  36.7567
  0.537  36.7567
  0.536  37.1567
  0.535  36.6567
  0.534  36.7567
  0.533  36.8567
  0.532  36.8567
  0.531  36.6567
  0.530  36.6567
  0.529  36.6567
  0.528  36.5567
  0.527  36.3567
  0.526  36.0567
  0.525  36.2567
  0.524  36.7567
  0.523  36.8567
  0.522  36.6567
  0.521  36.5567
  0.520  36.0567
  0.519  36.0567
  0.518  36.2567
  0.517  36.0567
  0.516  35.5567
  0.515  36.0567
  0.514  35.7567
  0.513  35.9567
  0.512  36.1567
  0.511  35.9567
  0.510  36.0567
  0.509  36.0567
  0.508  35.7567
  0.507  35.6567
  0.506  35.9567
  0.505  35.6567
  0.504  35.5567
  0.503  35.4567
  0.502  35.0567
  0.501  35.2567
  0.500  35.0567
  0.499  34.5567
  0.498  34.6567
  0.497  34.9567
  0.496  34.9567
  0.495  34.9567
  0.494  34.5567
  0.493  35.0567
  0.492  35.0567
  0.491  34.6567
  0.490  34.5567
  0.489  34.3567
  0.488  34.4567
  0.487  34.6567
  0.486  34.5567
  0.485  34.5567
  0.484  34.1567
  0.483  34.0567
  0.482  33.9567
  0.481  33.9567
  0.480  34.1567
  0.479  33.5567
  0.478  33.7567
  0.477  33.7567
  0.476  33.5567
  0.475  33.5567
  0.474  33.4567
  0.473  33.2567
  0.472  33.3567
  0.471  33.3567
  0.470  33.3567
  0.469  33.2567
  0.468  32.9567
  0.467  32.9567
  0.466  33.2567
  0.465  33.0567
  0.464  33.0567
  0.463  32.9567
  0.462  32.8567
  0.461  32.6567
  0.460  32.4567
  0.459  32.6567
  0.458  32.7567
  0.457  31.9567
  0.456  31.6567
  0.455  31.8567
  0.454  31.8567
  0.453  32.1567
  0.452  31.8567
  0.451  31.9567
  0.450  31.8567
  0.449  31.8567
  0.448  31.6567
  0.447  31.3567
  0.446  31.0567
  0.445  30.8567
  0.444  30.8567
  0.443  31.3567
  0.442  30.8567
  0.441  31.0567
  0.440  30.8567
  0.439  30.8567
  0.438  30.6567
  0.437  30.6567
  0.436  30.2567
  0.435  30.2567
  0.434  30.0567
  0.433  30.2567
  0.432  30.1567
  0.431  30.1567
  0.430  30.2567
  0.429  30.2567
  0.428  29.9567
  0.427  29.7567
  0.426  29.7567
  0.425  29.4567
  0.424  29.6567
  0.423  29.4567
  0.422  29.0567
  0.421  29.1567
  0.420  29.1567
  0.419  28.9567
  0.418  28.9567
  0.417  28.6567
  0.416  28.4567
  0.415  28.3567
  0.414  28.4567
  0.413  28.6567
  0.412  28.4567
  0.411  28.3567
  0.410  28.3567
  0.409  28.0567
  0.408  28.0567
  0.407  28.2567
  0.406  27.9567
  0.405  27.8567
