Name: Rhyolite
Type: Rock
Class: Igneous
Subclass: Felsic
Particle Size: Whole Rock Chips
Sample No.: AP-939-212b
Owner: United States Geological Survey, L. C. Rowan
Wavelength range: 0.405 - 14.05 um
Origin: Iberian Pyrite Belt, Spain

Description: Rhyolite, white, fine, altered





Measurement: Directional Hemispherical Reflectance
First Column: X
Second Column: Y
X Units: Wavelength (micrometers)
Y Units: Reflectance (percent)
First X Value: 14.05105
Last X Value: 0.40500
Number of X Values: 2530
Additional Information: rhy212ba.txt

 14.051   1.6789
 14.013   1.7819
 13.975   1.8437
 13.938   1.6171
 13.900   1.7716
 13.863   1.8643
 13.826   1.9158
 13.790   1.8540
 13.753   2.0085
 13.717   2.0085
 13.680   2.1115
 13.644   1.9879
 13.609   2.0600
 13.573   2.1012
 13.538   2.0806
 13.502   2.1012
 13.467   2.1836
 13.432   2.1012
 13.398   2.2866
 13.363   2.2969
 13.329   2.3175
 13.295   2.1630
 13.261   2.1527
 13.227   2.2042
 13.193   2.2557
 13.160   2.2145
 13.126   2.2866
 13.093   2.3999
 13.060   2.4823
 13.027   2.4411
 12.995   2.5338
 12.962   2.6162
 12.930   2.7295
 12.898   2.7707
 12.866   2.9149
 12.834   2.9458
 12.802   3.0282
 12.771   2.9458
 12.739   2.8634
 12.708   2.8119
 12.677   2.8119
 12.646   2.7810
 12.616   2.7604
 12.585   2.6471
 12.554   2.8119
 12.524   2.8531
 12.494   2.9252
 12.464   2.8531
 12.434   2.8222
 12.404   2.7707
 12.375   2.7707
 12.345   2.6471
 12.316   2.5647
 12.287   2.5544
 12.258   2.5956
 12.229   2.6059
 12.200   2.7501
 12.171   2.7810
 12.143   2.8531
 12.115   2.8840
 12.086   2.9561
 12.058   2.9355
 12.030   3.0076
 12.002   2.9767
 11.975   3.1312
 11.947   3.1724
 11.920   3.1518
 11.892   3.1518
 11.865   3.2445
 11.838   3.2342
 11.811   3.3166
 11.784   3.3269
 11.757   3.3681
 11.731   3.3990
 11.704   3.4608
 11.678   3.4505
 11.652   3.5741
 11.626   3.6256
 11.600   3.7389
 11.574   3.7904
 11.548   3.8625
 11.522   3.8419
 11.497   3.8625
 11.471   3.9037
 11.446   4.0170
 11.421   3.9861
 11.396   3.9552
 11.371   3.9655
 11.346   4.1303
 11.321   4.1612
 11.297   4.2333
 11.272   4.2539
 11.248   4.3157
 11.223   4.2951
 11.199   4.3878
 11.175   4.4805
 11.151   4.6865
 11.127   4.7792
 11.103   4.8719
 11.079   4.9028
 11.056   5.0367
 11.032   5.0470
 11.009   5.0985
 10.985   5.1191
 10.962   5.1397
 10.939   5.0161
 10.916   4.8925
 10.893   4.5938
 10.870   4.3363
 10.848   4.1200
 10.825   3.9655
 10.802   3.7698
 10.780   3.6874
 10.758   3.5844
 10.735   3.5844
 10.713   3.6256
 10.691   3.6668
 10.669   3.6668
 10.647   3.6977
 10.625   3.6771
 10.604   3.7595
 10.582   3.7904
 10.560   3.8934
 10.539   3.9861
 10.518   4.1097
 10.496   4.1509
 10.475   4.2745
 10.454   4.3981
 10.433   4.5629
 10.412   4.7071
 10.391   4.9646
 10.370   5.1294
 10.350   5.2324
 10.329   5.3457
 10.309   5.6238
 10.288   5.8092
 10.268   6.0358
 10.247   6.1491
 10.227   6.2418
 10.207   6.3654
 10.187   6.5714
 10.167   6.7774
 10.147   6.9525
 10.127   7.0555
 10.108   7.2924
 10.088   7.5087
 10.068   7.7765
 10.049   8.0031
 10.029   8.4048
 10.010   8.6726
  9.991   8.9816
  9.972   9.2700
  9.952   9.5378
  9.933   9.8159
  9.914  10.1558
  9.895  10.2691
  9.877  10.2691
  9.858  10.1764
  9.839  10.1867
  9.821  10.0631
  9.802   9.9807
  9.783  10.0013
  9.765  10.1867
  9.747  10.5369
  9.728  11.0004
  9.710  11.4124
  9.692  11.8141
  9.674  12.2570
  9.656  12.7926
  9.638  13.1222
  9.620  13.5445
  9.602  13.9462
  9.585  14.2964
  9.567  14.5848
  9.549  14.9247
  9.532  15.2028
  9.514  15.4088
  9.497  15.6354
  9.479  15.8311
  9.462  15.8620
  9.445  15.9135
  9.428  15.8517
  9.411  15.7487
  9.394  15.5633
  9.377  15.4500
  9.360  15.2337
  9.343  14.9968
  9.326  14.6981
  9.309  14.3376
  9.293  13.9153
  9.276  13.6063
  9.259  13.1943
  9.243  12.9368
  9.226  12.8441
  9.210  12.6690
  9.194  12.2776
  9.178  12.0304
  9.161  11.8038
  9.145  11.5154
  9.129  11.1343
  9.113  10.8253
  9.097  10.4957
  9.081  10.0322
  9.065   9.4348
  9.049   8.9713
  9.034   8.4563
  9.018   7.8898
  9.002   7.3130
  8.987   7.0658
  8.971   7.0967
  8.956   7.2924
  8.940   7.5602
  8.925   7.9619
  8.909   8.3636
  8.894   8.7447
  8.879   9.0537
  8.864   9.2597
  8.849   9.3112
  8.834   9.4348
  8.819   9.4760
  8.804   9.4142
  8.789   9.2391
  8.774   8.9919
  8.759   8.6932
  8.744   8.5284
  8.730   8.2503
  8.715   7.9207
  8.700   7.5911
  8.686   7.2924
  8.671   7.0143
  8.657   6.6847
  8.642   6.2624
  8.628   5.9637
  8.614   5.7268
  8.599   5.7989
  8.585   6.0255
  8.571   6.1903
  8.557   6.1800
  8.543   6.1800
  8.529   6.2830
  8.515   6.4066
  8.501   6.3963
  8.487   6.3654
  8.473   6.3036
  8.459   6.3345
  8.445   6.4272
  8.431   6.5508
  8.418   6.5611
  8.404   6.6023
  8.391   6.6744
  8.377   6.7259
  8.363   6.7568
  8.350   6.8392
  8.337   6.8804
  8.323   6.9937
  8.310   6.9731
  8.297   7.0555
  8.283   7.1276
  8.270   7.2100
  8.257   7.3130
  8.244   7.4160
  8.231   7.4366
  8.218   7.6014
  8.205   7.7868
  8.192   7.9207
  8.179   7.9207
  8.166   7.9104
  8.153   7.8692
  8.140   7.7250
  8.128   7.4469
  8.115   7.0967
  8.102   6.8083
  8.090   6.5714
  8.077   6.2109
  8.064   5.9019
  8.052   5.6444
  8.039   5.4487
  8.027   5.1912
  8.015   5.0058
  8.002   4.7792
  7.990   4.6144
  7.978   4.5011
  7.965   4.3569
  7.953   4.1200
  7.941   3.9655
  7.929   3.7595
  7.917   3.6359
  7.905   3.4608
  7.893   3.2754
  7.881   3.1621
  7.869   3.1106
  7.857   3.0076
  7.845   2.9252
  7.833   2.7707
  7.821   2.7501
  7.809   2.7398
  7.798   2.6883
  7.786   2.6265
  7.774   2.6368
  7.763   2.5338
  7.751   2.5235
  7.739   2.5750
  7.728   2.6059
  7.716   2.5029
  7.705   2.4823
  7.694   2.4411
  7.682   2.3999
  7.671   2.3587
  7.659   2.3278
  7.648   2.3072
  7.637   2.2969
  7.626   2.2351
  7.614   2.2454
  7.603   2.2145
  7.592   2.1836
  7.581   2.1321
  7.570   2.1321
  7.559   2.0806
  7.548   2.1012
  7.537   2.0909
  7.526   2.1218
  7.515   2.1218
  7.504   2.0291
  7.493   1.9467
  7.483   2.0497
  7.472   2.0497
  7.461   2.0497
  7.450   1.9982
  7.440   1.9055
  7.429   1.9261
  7.418   2.0291
  7.408   1.9982
  7.397   1.9158
  7.387   1.8849
  7.376   1.9261
  7.366   1.8746
  7.355   1.9158
  7.345   1.9055
  7.334   1.8540
  7.324   1.8849
  7.314   1.9673
  7.303   1.9158
  7.293   1.8849
  7.283   1.8437
  7.273   1.8540
  7.263   1.9055
  7.252   1.9879
  7.242   1.9570
  7.232   1.8952
  7.222   1.8437
  7.212   1.8849
  7.202   1.9570
  7.192   1.9261
  7.182   1.8952
  7.172   1.8952
  7.162   1.9055
  7.152   1.9570
  7.143   1.9364
  7.133   1.9158
  7.123   1.9364
  7.113   1.9673
  7.103   1.9673
  7.094   1.9982
  7.084   1.9776
  7.074   1.9673
  7.065   1.9158
  7.055   1.9055
  7.046   1.9158
  7.036   1.9570
  7.026   1.9158
  7.017   1.9055
  7.007   1.8849
  6.998   1.9261
  6.989   1.9467
  6.979   1.9570
  6.970   1.9776
  6.960   2.0188
  6.951   2.0188
  6.942   2.0291
  6.932   2.0085
  6.923   2.0291
  6.914   2.0600
  6.905   2.0497
  6.896   2.0188
  6.886   2.0188
  6.877   2.0085
  6.868   2.0497
  6.859   1.9982
  6.850   2.0291
  6.841   2.0600
  6.832   2.1218
  6.823   2.1939
  6.814   2.1939
  6.805   2.1115
  6.796   2.1012
  6.787   2.1218
  6.778   2.1527
  6.770   2.0806
  6.761   2.0806
  6.752   2.1424
  6.743   2.2248
  6.734   2.2351
  6.726   2.2351
  6.717   2.2660
  6.708   2.2866
  6.700   2.2351
  6.691   2.2866
  6.682   2.3484
  6.674   2.3793
  6.665   2.3690
  6.657   2.3793
  6.648   2.3690
  6.640   2.3587
  6.631   2.3999
  6.623   2.4411
  6.614   2.3999
  6.606   2.4205
  6.597   2.4308
  6.589   2.4411
  6.581   2.4617
  6.572   2.4514
  6.564   2.4205
  6.556   2.3999
  6.547   2.3690
  6.539   2.4308
  6.531   2.4308
  6.523   2.4205
  6.514   2.3999
  6.506   2.4411
  6.498   2.5029
  6.490   2.5647
  6.482   2.5441
  6.474   2.5750
  6.466   2.5956
  6.458   2.6059
  6.450   2.6059
  6.442   2.5853
  6.434   2.5750
  6.426   2.6368
  6.418   2.6368
  6.410   2.6368
  6.402   2.5956
  6.394   2.5956
  6.386   2.6162
  6.378   2.6574
  6.370   2.6368
  6.363   2.5853
  6.355   2.5544
  6.347   2.6059
  6.339   2.6059
  6.332   2.5441
  6.324   2.4926
  6.316   2.5441
  6.308   2.5750
  6.301   2.5441
  6.293   2.4823
  6.286   2.4308
  6.278   2.4102
  6.270   2.4308
  6.263   2.4308
  6.255   2.4205
  6.248   2.3896
  6.240   2.3999
  6.233   2.3587
  6.225   2.3278
  6.218   2.2763
  6.210   2.2660
  6.203   2.2454
  6.195   2.1836
  6.188   2.1218
  6.181   2.1424
  6.173   2.1012
  6.166   2.0909
  6.159   2.1012
  6.151   2.1012
  6.144   2.1012
  6.137   2.1012
  6.130   2.1115
  6.122   2.1115
  6.115   2.0806
  6.108   2.0909
  6.101   2.1115
  6.094   2.0806
  6.086   2.0085
  6.079   2.0394
  6.072   2.0497
  6.065   2.0291
  6.058   2.0085
  6.051   2.0394
  6.044   2.0600
  6.037   2.0909
  6.030   2.0806
  6.023   2.0806
  6.016   2.1115
  6.009   2.1630
  6.002   2.1630
  5.995   2.1836
  5.988   2.2145
  5.981   2.2557
  5.974   2.2351
  5.967   2.2248
  5.960   2.2557
  5.954   2.3072
  5.947   2.3484
  5.940   2.3793
  5.933   2.3999
  5.926   2.4205
  5.920   2.4102
  5.913   2.4720
  5.906   2.5029
  5.899   2.5029
  5.893   2.5029
  5.886   2.5132
  5.879   2.5441
  5.873   2.6471
  5.866   2.6883
  5.859   2.6883
  5.853   2.6780
  5.846   2.6986
  5.840   2.7192
  5.833   2.7810
  5.827   2.8222
  5.820   2.8531
  5.813   2.9252
  5.807   2.9458
  5.800   2.9252
  5.794   2.9664
  5.788   2.9561
  5.781   2.9767
  5.775   3.0282
  5.768   3.1003
  5.762   3.1209
  5.755   3.0900
  5.749   3.0900
  5.743   3.1209
  5.736   3.1724
  5.730   3.2136
  5.724   3.2136
  5.717   3.2239
  5.711   3.2857
  5.705   3.3166
  5.698   3.2857
  5.692   3.3166
  5.686   3.3372
  5.680   3.3269
  5.674   3.3475
  5.667   3.3681
  5.661   3.3887
  5.655   3.3887
  5.649   3.3784
  5.643   3.3784
  5.637   3.3269
  5.630   3.3269
  5.624   3.3681
  5.618   3.4402
  5.612   3.4299
  5.606   3.3578
  5.600   3.3578
  5.594   3.3784
  5.588   3.4093
  5.582   3.4299
  5.576   3.4299
  5.570   3.3784
  5.564   3.3681
  5.558   3.4505
  5.552   3.4093
  5.546   3.3681
  5.540   3.3990
  5.534   3.4402
  5.528   3.4608
  5.523   3.4711
  5.517   3.4711
  5.511   3.4608
  5.505   3.4505
  5.499   3.4711
  5.493   3.4711
  5.487   3.5020
  5.482   3.5226
  5.476   3.5226
  5.470   3.5535
  5.464   3.5947
  5.459   3.5535
  5.453   3.5844
  5.447   3.6050
  5.441   3.6359
  5.436   3.6359
  5.430   3.5638
  5.424   3.5844
  5.419   3.6153
  5.413   3.6153
  5.407   3.6359
  5.402   3.6256
  5.396   3.5947
  5.390   3.5741
  5.385   3.5638
  5.379   3.5844
  5.374   3.6153
  5.368   3.5947
  5.363   3.5638
  5.357   3.5432
  5.352   3.5432
  5.346   3.5432
  5.341   3.6050
  5.335   3.6668
  5.330   3.6874
  5.324   3.6462
  5.319   3.6668
  5.313   3.6874
  5.308   3.6977
  5.302   3.7183
  5.297   3.7492
  5.291   3.7389
  5.286   3.7286
  5.281   3.8007
  5.275   3.8213
  5.270   3.8213
  5.265   3.8728
  5.259   3.9243
  5.254   3.9449
  5.249   3.9655
  5.243   4.0067
  5.238   4.0273
  5.233   4.0788
  5.227   4.1200
  5.222   4.1303
  5.217   4.1818
  5.212   4.2642
  5.206   4.2848
  5.201   4.2642
  5.196   4.2848
  5.191   4.2951
  5.186   4.3260
  5.180   4.3054
  5.175   4.2848
  5.170   4.3157
  5.165   4.3363
  5.160   4.3569
  5.155   4.3878
  5.150   4.4290
  5.145   4.4702
  5.139   4.4599
  5.134   4.4187
  5.129   4.4599
  5.124   4.4908
  5.119   4.5011
  5.114   4.5629
  5.109   4.6144
  5.104   4.5629
  5.099   4.5320
  5.094   4.5629
  5.089   4.5938
  5.084   4.6144
  5.079   4.6144
  5.074   4.6350
  5.069   4.6453
  5.064   4.6865
  5.059   4.6865
  5.054   4.6659
  5.049   4.6659
  5.044   4.6968
  5.040   4.7586
  5.035   4.7483
  5.030   4.7277
  5.025   4.7586
  5.020   4.7895
  5.015   4.7895
  5.010   4.8101
  5.005   4.7895
  5.001   4.8410
  4.996   4.8925
  4.991   4.8822
  4.986   4.8719
  4.981   4.9337
  4.977   4.9955
  4.972   5.0367
  4.967   5.1088
  4.962   5.1706
  4.958   5.2324
  4.953   5.3045
  4.948   5.3457
  4.943   5.3766
  4.939   5.4075
  4.934   5.4281
  4.929   5.4590
  4.925   5.4899
  4.920   5.5620
  4.915   5.6238
  4.911   5.7062
  4.906   5.8195
  4.901   5.9225
  4.897   5.9843
  4.892   6.0564
  4.888   6.1285
  4.883   6.2418
  4.878   6.3654
  4.874   6.4272
  4.869   6.4581
  4.865   6.5611
  4.860   6.7156
  4.856   6.7671
  4.851   6.7774
  4.846   6.8598
  4.842   6.9525
  4.837   7.0864
  4.833   7.1379
  4.828   7.1276
  4.824   7.1379
  4.819   7.1688
  4.815   7.1894
  4.810   7.2409
  4.806   7.3027
  4.802   7.3748
  4.797   7.4057
  4.793   7.4263
  4.788   7.4469
  4.784   7.4469
  4.779   7.4778
  4.775   7.5499
  4.771   7.5602
  4.766   7.6117
  4.762   7.6426
  4.758   7.6529
  4.753   7.6735
  4.749   7.7147
  4.744   7.7662
  4.740   7.8280
  4.736   7.8898
  4.731   7.9413
  4.727   7.9722
  4.723   7.9619
  4.719   7.9928
  4.714   8.0340
  4.710   8.0546
  4.706   8.0855
  4.701   8.0649
  4.697   8.0752
  4.693   8.0443
  4.689   7.9722
  4.684   8.0031
  4.680   8.1061
  4.676   8.1267
  4.672   8.1473
  4.668   8.1782
  4.663   8.2091
  4.659   8.2812
  4.655   8.4151
  4.651   8.5284
  4.647   8.5387
  4.643   8.5799
  4.638   8.7241
  4.634   8.8168
  4.630   8.8580
  4.626   8.9610
  4.622   9.0846
  4.618   9.1567
  4.614   9.2185
  4.610   9.3215
  4.605   9.4142
  4.601   9.4245
  4.597   9.4863
  4.593   9.5790
  4.589   9.5996
  4.585   9.5893
  4.581   9.6511
  4.577   9.7335
  4.573   9.7953
  4.569   9.8056
  4.565   9.8365
  4.561   9.8468
  4.557   9.7850
  4.553   9.8777
  4.549   9.9498
  4.545   9.8777
  4.541   9.8674
  4.537   9.8880
  4.533   9.8159
  4.529   9.7953
  4.525   9.7850
  4.521   9.8159
  4.517   9.8056
  4.513   9.6511
  4.509   9.5996
  4.505   9.5584
  4.502   9.4760
  4.498   9.3936
  4.494   9.4039
  4.490   9.4142
  4.486   9.3833
  4.482   9.3833
  4.478   9.4348
  4.474   9.4554
  4.470   9.4142
  4.467   9.3318
  4.463   9.4142
  4.459   9.5378
  4.455   9.5790
  4.451   9.6820
  4.447   9.8056
  4.444   9.7644
  4.440   9.7747
  4.436   9.9189
  4.432  10.0734
  4.428  10.1455
  4.425  10.1764
  4.421  10.1867
  4.417  10.2279
  4.413  10.2279
  4.410  10.3206
  4.406  10.4339
  4.402  10.4751
  4.398  10.5575
  4.395  10.7017
  4.391  10.7944
  4.387  10.8871
  4.384  10.9489
  4.380  11.0622
  4.376  11.2476
  4.372  11.3815
  4.369  11.4433
  4.365  11.5051
  4.361  11.5463
  4.358  11.6081
  4.354  11.7214
  4.350  11.8759
  4.347  11.9686
  4.343  11.9995
  4.340  12.0922
  4.336  12.2364
  4.332  12.2673
  4.329  12.3085
  4.325  12.2467
  4.321  12.2467
  4.318  12.3394
  4.314  12.4218
  4.311  12.3909
  4.307  12.3291
  4.304  12.3497
  4.300  12.4527
  4.296  12.4527
  4.293  12.4527
  4.289  12.5145
  4.286  12.5660
  4.282  12.6793
  4.279  12.6999
  4.275  12.6896
  4.272  12.7205
  4.268  12.8338
  4.265  12.9059
  4.261  12.8647
  4.258  12.8647
  4.254  12.8853
  4.251  12.9574
  4.247  13.0501
  4.244  13.0707
  4.240  13.0810
  4.237  13.1119
  4.233  13.1119
  4.230  13.1428
  4.226  13.1943
  4.223  13.2561
  4.219  13.2664
  4.216  13.2355
  4.213  13.2149
  4.209  13.2664
  4.206  13.3179
  4.202  13.3282
  4.199  13.2973
  4.196  13.3179
  4.192  13.3179
  4.189  13.3900
  4.185  13.4415
  4.182  13.4415
  4.179  13.4312
  4.175  13.4724
  4.172  13.5857
  4.169  13.6578
  4.165  13.6681
  4.162  13.7711
  4.159  13.8020
  4.155  13.7505
  4.152  13.7608
  4.149  13.8123
  4.145  13.8226
  4.142  13.8947
  4.139  14.0080
  4.135  14.1007
  4.132  14.0595
  4.129  14.0801
  4.126  14.1728
  4.122  14.1522
  4.119  14.1419
  4.116  14.2037
  4.112  14.2552
  4.109  14.2655
  4.106  14.3067
  4.103  14.3479
  4.099  14.3273
  4.096  14.4097
  4.093  14.5024
  4.090  14.5024
  4.086  14.4818
  4.083  14.4612
  4.080  14.4818
  4.077  14.5848
  4.074  14.6363
  4.070  14.7290
  4.067  14.7496
  4.064  14.6981
  4.061  14.7290
  4.058  14.8526
  4.055  14.8320
  4.051  14.8011
  4.048  14.8217
  4.045  14.8011
  4.042  14.7393
  4.039  14.7084
  4.036  14.8011
  4.032  14.8217
  4.029  14.8217
  4.026  14.8320
  4.023  14.7496
  4.020  14.7084
  4.017  14.8423
  4.014  14.9247
  4.011  14.8629
  4.008  14.8526
  4.004  14.8732
  4.001  14.8629
  3.998  14.8732
  3.995  15.0071
  3.992  15.0586
  3.989  15.0380
  3.986  14.9762
  3.983  14.9659
  3.980  14.9968
  3.977  15.0895
  3.974  15.1616
  3.971  15.1410
  3.968  15.1307
  3.965  15.1513
  3.962  15.1204
  3.959  15.1101
  3.956  15.2131
  3.953  15.3264
  3.950  15.3676
  3.947  15.3470
  3.944  15.3367
  3.941  15.4191
  3.938  15.5221
  3.935  15.4912
  3.932  15.4294
  3.929  15.5221
  3.926  15.5942
  3.923  15.5427
  3.920  15.5324
  3.917  15.5942
  3.914  15.6148
  3.911  15.6148
  3.908  15.5221
  3.905  15.5839
  3.902  15.6457
  3.899  15.5942
  3.896  15.6251
  3.893  15.5633
  3.890  15.4500
  3.887  15.5118
  3.884  15.5324
  3.882  15.5427
  3.879  15.4706
  3.876  15.5221
  3.873  15.5530
  3.870  15.5530
  3.867  15.5736
  3.864  15.5839
  3.861  15.4912
  3.858  15.4706
  3.856  15.4191
  3.853  15.4191
  3.850  15.4500
  3.847  15.4912
  3.844  15.5118
  3.841  15.5324
  3.838  15.4809
  3.836  15.4294
  3.833  15.3882
  3.830  15.5015
  3.827  15.5633
  3.824  15.5942
  3.822  15.5633
  3.819  15.4912
  3.816  15.4912
  3.813  15.5530
  3.810  15.5633
  3.807  15.5324
  3.805  15.5015
  3.802  15.4500
  3.799  15.3470
  3.796  15.3573
  3.794  15.4088
  3.791  15.4706
  3.788  15.3882
  3.785  15.3676
  3.782  15.3676
  3.780  15.3161
  3.777  15.2852
  3.774  15.2337
  3.771  15.2234
  3.769  15.1513
  3.766  15.0689
  3.763  14.9865
  3.761  14.9556
  3.758  15.0380
  3.755  15.0071
  3.752  14.9762
  3.750  14.9556
  3.747  14.9453
  3.744  14.9556
  3.742  14.9968
  3.739  14.8320
  3.736  14.6878
  3.733  14.6878
  3.731  14.7084
  3.728  14.6466
  3.725  14.6260
  3.723  14.7084
  3.720  14.7290
  3.717  14.6878
  3.715  14.6981
  3.712  14.6363
  3.709  14.6260
  3.707  14.6054
  3.704  14.5024
  3.702  14.4303
  3.699  14.4612
  3.696  14.4818
  3.694  14.4921
  3.691  14.3891
  3.688  14.3479
  3.686  14.3479
  3.683  14.2964
  3.680  14.2552
  3.678  14.2964
  3.675  14.3685
  3.673  14.4200
  3.670  14.3788
  3.667  14.3170
  3.665  14.2449
  3.662  14.2552
  3.660  14.3170
  3.657  14.3479
  3.655  14.2037
  3.652  14.2140
  3.649  14.1728
  3.647  14.0492
  3.644  13.9256
  3.642  13.9256
  3.639  13.9256
  3.637  13.9359
  3.634  13.9256
  3.632  13.8947
  3.629  13.8844
  3.626  13.8432
  3.624  13.6887
  3.621  13.6681
  3.619  13.7711
  3.616  13.7402
  3.614  13.5857
  3.611  13.5239
  3.609  13.4518
  3.606  13.3488
  3.604  13.3076
  3.601  13.2973
  3.599  13.2870
  3.596  13.2973
  3.594  13.2046
  3.591  13.1943
  3.589  13.1222
  3.586  13.0398
  3.584  13.0192
  3.581  12.9368
  3.579  12.8338
  3.576  12.8544
  3.574  12.8647
  3.571  12.8132
  3.569  12.7102
  3.567  12.6999
  3.564  12.6484
  3.562  12.6072
  3.559  12.4836
  3.557  12.4115
  3.554  12.3703
  3.552  12.3600
  3.549  12.2982
  3.547  12.2467
  3.545  12.2467
  3.542  12.2467
  3.540  12.1334
  3.537  12.0716
  3.535  12.0304
  3.533  12.0304
  3.530  11.9686
  3.528  11.8347
  3.525  11.6596
  3.523  11.5566
  3.521  11.4948
  3.518  11.4845
  3.516  11.4639
  3.513  11.4742
  3.511  11.3712
  3.509  11.2476
  3.506  11.1549
  3.504  11.0828
  3.502  10.9901
  3.499  11.0210
  3.497  10.9798
  3.494  10.9180
  3.492  10.8253
  3.490  10.8974
  3.487  10.9489
  3.485  10.8871
  3.483  10.8665
  3.480  10.9695
  3.478  10.9386
  3.476  10.8047
  3.473  10.7017
  3.471  10.7738
  3.469  10.8150
  3.466  10.6811
  3.464  10.5472
  3.462  10.5060
  3.460  10.5163
  3.457  10.5163
  3.455  10.5369
  3.453  10.5369
  3.450  10.3927
  3.448  10.4545
  3.446  10.3824
  3.443  10.3000
  3.441  10.1352
  3.439  10.0837
  3.437  10.1043
  3.434  10.0734
  3.432   9.9807
  3.430   9.9395
  3.428   9.7953
  3.425   9.7129
  3.423   9.5996
  3.421   9.4863
  3.418   9.4348
  3.416   9.3936
  3.414   9.3524
  3.412   9.3318
  3.409   9.2700
  3.407   9.2906
  3.405   9.2700
  3.403   9.2906
  3.401   9.3112
  3.398   9.2700
  3.396   9.2185
  3.394   9.2391
  3.392   9.1361
  3.389   9.1464
  3.387   9.1258
  3.385   9.2082
  3.383   9.1052
  3.381   9.0125
  3.378   8.9919
  3.376   8.9713
  3.374   9.0434
  3.372   9.0949
  3.370   9.0125
  3.367   8.9095
  3.365   8.8683
  3.363   8.8683
  3.361   8.8580
  3.359   8.8683
  3.357   8.8477
  3.354   8.8683
  3.352   8.8786
  3.350   8.8374
  3.348   8.7241
  3.346   8.6211
  3.344   8.6108
  3.341   8.6932
  3.339   8.6932
  3.337   8.7241
  3.335   8.7756
  3.333   8.7138
  3.331   8.4769
  3.329   8.4563
  3.326   8.4975
  3.324   8.5078
  3.322   8.3945
  3.320   8.3636
  3.318   8.3842
  3.316   8.3224
  3.314   8.3533
  3.312   8.3636
  3.309   8.1988
  3.307   8.1061
  3.305   8.0752
  3.303   8.1370
  3.301   8.1370
  3.299   8.1370
  3.297   8.0031
  3.295   7.9516
  3.293   7.8692
  3.291   7.8383
  3.288   7.7662
  3.286   7.7662
  3.284   7.7868
  3.282   7.8074
  3.280   7.7662
  3.278   7.7353
  3.276   7.6941
  3.274   7.6838
  3.272   7.6220
  3.270   7.5705
  3.268   7.5808
  3.266   7.5087
  3.264   7.3954
  3.262   7.3851
  3.259   7.2718
  3.257   7.2306
  3.255   7.2821
  3.253   7.3542
  3.251   7.3542
  3.249   7.3233
  3.247   7.1997
  3.245   7.1379
  3.243   7.1997
  3.241   7.1688
  3.239   7.0864
  3.237   6.9937
  3.235   6.9422
  3.233   7.0246
  3.231   7.0040
  3.229   6.9010
  3.227   6.9010
  3.225   6.9113
  3.223   6.9525
  3.221   7.0040
  3.219   6.8907
  3.217   6.6847
  3.215   6.5611
  3.213   6.5920
  3.211   6.6126
  3.209   6.6229
  3.207   6.6641
  3.205   6.6744
  3.203   6.6023
  3.201   6.5199
  3.199   6.4066
  3.197   6.4066
  3.195   6.5096
  3.193   6.6023
  3.191   6.5096
  3.189   6.2933
  3.187   6.1697
  3.185   6.3139
  3.183   6.2521
  3.182   6.2109
  3.180   6.2212
  3.178   6.1903
  3.176   6.1182
  3.174   6.0152
  3.172   6.0358
  3.170   6.0358
  3.168   5.9534
  3.166   5.9740
  3.164   5.9431
  3.162   5.8710
  3.160   5.8298
  3.158   5.8298
  3.156   5.8401
  3.154   5.9225
  3.152   5.8195
  3.151   5.6341
  3.149   5.6032
  3.147   5.6650
  3.145   5.7062
  3.143   5.6753
  3.141   5.5929
  3.139   5.6341
  3.137   5.4796
  3.135   5.4590
  3.133   5.4899
  3.132   5.4693
  3.130   5.3766
  3.128   5.2530
  3.126   5.1088
  3.124   5.2221
  3.122   5.2942
  3.120   5.2530
  3.118   5.1706
  3.117   5.1706
  3.115   5.2736
  3.113   5.3045
  3.111   5.1191
  3.109   5.0367
  3.107   5.1294
  3.105   5.0882
  3.103   4.9749
  3.102   5.0573
  3.100   5.0676
  3.098   4.9646
  3.096   4.8616
  3.094   4.9955
  3.092   5.1088
  3.091   5.0676
  3.089   4.8307
  3.087   4.7792
  3.085   4.9646
  3.083   4.9852
  3.081   4.8719
  3.079   4.7689
  3.078   4.7689
  3.076   4.8101
  3.074   4.6865
  3.072   4.6453
  3.070   4.6556
  3.069   4.7277
  3.067   4.7792
  3.065   4.8513
  3.063   4.7792
  3.061   4.6968
  3.060   4.7998
  3.058   4.8616
  3.056   4.6762
  3.054   4.6247
  3.052   4.7174
  3.051   4.7689
  3.049   4.7071
  3.047   4.8101
  3.045   4.7689
  3.043   4.7689
  3.042   4.6350
  3.040   4.5114
  3.038   4.5217
  3.036   4.6041
  3.034   4.5423
  3.033   4.5526
  3.031   4.5938
  3.029   4.7792
  3.027   4.8204
  3.026   4.8513
  3.024   4.7277
  3.022   4.6041
  3.020   4.4805
  3.019   4.5011
  3.017   4.6556
  3.015   4.7792
  3.013   4.7071
  3.012   4.4908
  3.010   4.4702
  3.008   4.4908
  3.006   4.4702
  3.005   4.6144
  3.003   4.5629
  3.001   4.5320
  2.999   4.5835
  2.998   4.5835
  2.996   4.5732
  2.994   4.6556
  2.992   4.6453
  2.991   4.5732
  2.989   4.4187
  2.987   4.2951
  2.986   4.3775
  2.984   4.6865
  2.982   4.6762
  2.980   4.4805
  2.979   4.3672
  2.977   4.4393
  2.975   4.3878
  2.974   4.4290
  2.972   4.4496
  2.970   4.4393
  2.968   4.3878
  2.967   4.3260
  2.965   4.2539
  2.963   4.2951
  2.962   4.2127
  2.960   4.2024
  2.958   4.2436
  2.957   4.3466
  2.955   4.3363
  2.953   4.3878
  2.952   4.3775
  2.950   4.2642
  2.948   4.1200
  2.947   4.1303
  2.945   4.2745
  2.943   4.2848
  2.942   4.2951
  2.940   4.1921
  2.938   4.1715
  2.937   4.2642
  2.935   4.1097
  2.933   4.0170
  2.932   4.1097
  2.930   4.1612
  2.928   4.1200
  2.927   4.2848
  2.925   4.3054
  2.923   4.2333
  2.922   4.1612
  2.920   4.2333
  2.918   4.1818
  2.917   4.2745
  2.915   4.3878
  2.913   4.4290
  2.912   4.4805
  2.910   4.5114
  2.909   4.2642
  2.907   4.1097
  2.905   4.0376
  2.904   4.3157
  2.902   4.5217
  2.900   4.4908
  2.899   4.3981
  2.897   4.2848
  2.896   4.2539
  2.894   4.3054
  2.892   4.1509
  2.891   4.1200
  2.889   4.2127
  2.887   4.3157
  2.886   4.3260
  2.884   4.4084
  2.883   4.4393
  2.881   4.4084
  2.879   4.3466
  2.878   4.3054
  2.876   4.1097
  2.875   4.1921
  2.873   4.2848
  2.871   4.2642
  2.870   4.1921
  2.868   4.2745
  2.867   4.3775
  2.865   4.5217
  2.864   4.3981
  2.862   4.3981
  2.860   4.3054
  2.859   4.2230
  2.857   4.2127
  2.856   4.3054
  2.854   4.4496
  2.853   4.4084
  2.851   4.3260
  2.849   4.2333
  2.848   4.2127
  2.846   4.1921
  2.845   4.3260
  2.843   4.4187
  2.842   4.2127
  2.840   4.2230
  2.838   4.3363
  2.837   4.4084
  2.835   4.2333
  2.834   4.1921
  2.832   4.1200
  2.831   4.3466
  2.829   4.3775
  2.828   4.2642
  2.826   4.0685
  2.825   3.9449
  2.823   3.8213
  2.821   3.8934
  2.820   3.9140
  2.818   3.8728
  2.817   3.7492
  2.815   3.8522
  2.814   3.9552
  2.812   3.9964
  2.811   3.9346
  2.809   3.8110
  2.808   3.6977
  2.806   3.7183
  2.805   3.6874
  2.803   3.7801
  2.802   3.7183
  2.800   3.6771
  2.799   3.7286
  2.797   3.6153
  2.796   3.5020
  2.794   3.4608
  2.793   3.2033
  2.791   3.2033
  2.790   3.4711
  2.788   3.5947
  2.787   3.4299
  2.785   3.4917
  2.784   3.3269
  2.782   2.9458
  2.781   2.8222
  2.779   3.0488
  2.778   3.1209
  2.776   3.0282
  2.775   3.0591
  2.773   3.2445
  2.772   3.1312
  2.770   2.9664
  2.769   2.8840
  2.767   2.9046
  2.766   3.0179
  2.764   2.8840
  2.763   2.5338
  2.761   2.3999
  2.760   2.2866
  2.758   2.3793
  2.757   2.4514
  2.756   2.4926
  2.754   2.4411
  2.753   2.3999
  2.751   2.4926
  2.750   2.6677
  2.748   2.5338
  2.747   2.5956
  2.745   2.7398
  2.744   2.8325
  2.742   2.8634
  2.741   2.8840
  2.740   2.7501
  2.738   2.7398
  2.737   2.5853
  2.735   2.5132
  2.734   2.4205
  2.732   2.3793
  2.731   2.7192
  2.729   3.1003
  2.728   3.1003
  2.727   2.9870
  2.725   2.8531
  2.724   2.9458
  2.722   2.9664
  2.721   3.0900
  2.719   2.9458
  2.718   2.9355
  2.717   3.0282
  2.715   3.2960
  2.714   3.3269
  2.712   3.1209
  2.711   3.0385
  2.709   3.2548
  2.708   3.2445
  2.707   3.2754
  2.705   3.3063
  2.704   3.1003
  2.702   2.9767
  2.701   3.1415
  2.700   3.1724
  2.698   3.1518
  2.697   3.1312
  2.695   3.5947
  2.694   3.9964
  2.693   4.2024
  2.691   4.5011
  2.690   4.9440
  2.688   5.2839
  2.687   5.9328
  2.686   6.6023
  2.684   7.2203
  2.683   7.7353
  2.681   8.3945
  2.680   8.9095
  2.679   9.4039
  2.677   9.9086
  2.676  10.2588
  2.675  10.9180
  2.673  11.4536
  2.672  11.7317
  2.670  12.3394
  2.669  12.6381
  2.668  12.7617
  2.666  13.1428
  2.665  13.6063
  2.664  13.8123
  2.662  14.1934
  2.661  14.6157
  2.659  14.8114
  2.658  15.0277
  2.657  15.3985
  2.655  15.4809
  2.654  15.8723
  2.653  16.0062
  2.651  16.0577
  2.650  16.3358
  2.649  16.6036
  2.647  16.9538
  2.646  17.1083
  2.645  16.9538
  2.643  17.1392
  2.642  17.6336
  2.640  17.9323
  2.639  17.9632
  2.638  18.0147
  2.636  18.2207
  2.635  18.2619
  2.634  18.2310
  2.632  18.4370
  2.631  18.5297
  2.630  18.6533
  2.628  18.8181
  2.627  19.0344
  2.626  18.9726
  2.624  18.9726
  2.623  19.3331
  2.622  19.3846
  2.620  19.3022
  2.619  19.3537
  2.618  19.5803
  2.617  19.7760
  2.615  19.8172
  2.614  19.8893
  2.613  19.7863
  2.611  19.8893
  2.610  20.2189
  2.609  20.2086
  2.607  19.8584
  2.606  19.8481
  2.605  20.1365
  2.603  20.4043
  2.602  20.3528
  2.601  20.1983
  2.599  20.2189
  2.598  20.6309
  2.597  20.9914
  2.596  20.8163
  2.594  20.7030
  2.593  21.0532
  2.592  21.0841
  2.590  21.2077
  2.589  21.0944
  2.588  20.8266
  2.586  20.7442
  2.585  20.9296
  2.584  21.2180
  2.583  21.2283
  2.581  21.2695
  2.580  21.6094
  2.579  21.6197
  2.577  21.6918
  2.576  21.6197
  2.575  21.5579
  2.574  21.4858
  2.572  21.6094
  2.571  21.7948
  2.570  21.6815
  2.569  21.6197
  2.567  22.0420
  2.566  22.4025
  2.565  22.4643
  2.563  22.3613
  2.562  22.2377
  2.561  22.2274
  2.560  22.3819
  2.558  22.4231
  2.557  22.6703
  2.556  22.6085
  2.555  22.6909
  2.553  22.5467
  2.552  22.4437
  2.551  22.6909
  2.550  22.9587
  2.548  22.9278
  2.547  22.8763
  2.546  22.7836
  2.545  22.7321
  2.543  22.8454
  2.542  23.0823
  2.541  23.2059
  2.540  23.3089
  2.538  23.2677
  2.537  23.2162
  2.536  23.2883
  2.535  23.3604
  2.533  23.1338
  2.532  23.2780
  2.531  23.4531
  2.530  23.5561
  2.528  23.6694
  2.527  23.5355
  2.526  23.4634
  2.525  23.6591
  2.524  23.5458
  2.522  23.5767
  2.521  23.8960
  2.520  23.7827
  2.519  23.3398
  2.517  23.7518
  2.516  24.1020
  2.515  23.8445
  2.514  23.8445
  2.513  24.1638
  2.511  24.1535
  2.510  23.7930
  2.509  23.7106
  2.508  24.0093
  2.506  23.9578
  2.505  23.9887
  2.504  24.1329
  2.503  24.4625
  2.502  24.4934
  2.500  24.2256
  2.497  24.2256
  2.493  24.1256
  2.489  24.2256
  2.485  24.4256
  2.481  24.4256
  2.477  24.4256
  2.473  24.5256
  2.469  24.6256
  2.465  24.7256
  2.461  24.7256
  2.457  25.0256
  2.453  25.2256
  2.449  25.2256
  2.445  25.6256
  2.441  25.8256
  2.437  26.2256
  2.433  26.4256
  2.429  26.8256
  2.425  27.2256
  2.421  27.5256
  2.417  27.9256
  2.413  28.2256
  2.409  28.5256
  2.405  28.9256
  2.401  29.3256
  2.397  29.7256
  2.393  29.9256
  2.389  29.9256
  2.385  29.7256
  2.381  29.6256
  2.377  29.6256
  2.373  29.6256
  2.369  29.7256
  2.365  29.6256
  2.361  29.7256
  2.357  29.7256
  2.353  29.9256
  2.349  29.9256
  2.345  30.1256
  2.341  30.2256
  2.337  30.5256
  2.333  31.0256
  2.329  31.5256
  2.325  31.9256
  2.321  32.5256
  2.317  33.0256
  2.313  33.5256
  2.309  34.4256
  2.305  35.2256
  2.301  36.7256
  2.297  36.6256
  2.293  36.6256
  2.289  37.2256
  2.285  38.0256
  2.281  38.8256
  2.277  39.6256
  2.273  39.9256
  2.269  39.8256
  2.265  39.4256
  2.261  39.3256
  2.257  38.7256
  2.253  38.2256
  2.249  37.6256
  2.245  36.8256
  2.241  36.1256
  2.237  35.4256
  2.233  34.6256
  2.229  34.0256
  2.225  33.0256
  2.221  32.2256
  2.217  31.6256
  2.213  31.3256
  2.209  31.5256
  2.205  31.7256
  2.201  32.2256
  2.197  33.0256
  2.193  34.1256
  2.189  35.6256
  2.185  36.9256
  2.181  38.4256
  2.177  39.5256
  2.173  40.4256
  2.169  40.9256
  2.165  41.3256
  2.161  42.1256
  2.157  42.6256
  2.153  43.2256
  2.149  43.8256
  2.145  44.4256
  2.141  45.5256
  2.137  46.5256
  2.133  47.0256
  2.129  47.2256
  2.125  47.3256
  2.121  47.8256
  2.117  48.5256
  2.113  49.0256
  2.109  49.4256
  2.105  49.9256
  2.101  50.3256
  2.097  50.9256
  2.093  50.9256
  2.089  51.4256
  2.085  51.5256
  2.081  51.5256
  2.077  51.5256
  2.073  51.6256
  2.069  51.7256
  2.065  51.8256
  2.061  52.0256
  2.057  51.8256
  2.053  51.6256
  2.049  52.0256
  2.045  51.6256
  2.041  51.5256
  2.037  51.5256
  2.033  51.2256
  2.029  50.9256
  2.025  50.3256
  2.021  50.0256
  2.017  49.8256
  2.013  49.4256
  2.009  49.0256
  2.005  48.4256
  2.001  48.3256
  1.997  47.9256
  1.993  47.3256
  1.989  47.0256
  1.985  46.3256
  1.981  46.1256
  1.977  45.7256
  1.973  45.4256
  1.969  45.1256
  1.965  44.9256
  1.961  44.4256
  1.957  43.7256
  1.953  43.2256
  1.949  42.7256
  1.945  42.3256
  1.941  42.0256
  1.937  41.8256
  1.933  41.5256
  1.929  40.9256
  1.925  40.1256
  1.921  39.1256
  1.917  38.3256
  1.913  37.9256
  1.909  38.0256
  1.905  38.7256
  1.901  39.6256
  1.897  41.5256
  1.893  43.9256
  1.889  46.6256
  1.885  49.5256
  1.881  52.5256
  1.877  55.1256
  1.873  56.7256
  1.869  58.1256
  1.865  59.0256
  1.861  60.3256
  1.857  61.5256
  1.853  62.5256
  1.849  62.6256
  1.845  62.8256
  1.841  63.2256
  1.837  63.3256
  1.833  63.1256
  1.829  63.2256
  1.825  63.4256
  1.821  63.8256
  1.817  64.2256
  1.813  63.9256
  1.809  63.8256
  1.805  63.9256
  1.801  64.1256
  1.797  63.9256
  1.793  64.1256
  1.789  64.4256
  1.785  64.7256
  1.781  64.7256
  1.777  64.9256
  1.773  65.0256
  1.769  65.2256
  1.765  65.3256
  1.761  65.4256
  1.757  65.3256
  1.753  65.0256
  1.749  65.2256
  1.745  65.3256
  1.741  65.3256
  1.737  65.4256
  1.733  65.6256
  1.729  65.9256
  1.725  66.0256
  1.721  65.5256
  1.717  65.6256
  1.713  65.5256
  1.709  65.5256
  1.705  65.5256
  1.701  65.8256
  1.697  65.8256
  1.693  65.9256
  1.689  65.9256
  1.685  65.9256
  1.681  66.0256
  1.677  66.0256
  1.673  66.1256
  1.669  65.9256
  1.665  66.0256
  1.661  65.9256
  1.657  65.8256
  1.653  65.4256
  1.649  65.5256
  1.645  65.2256
  1.641  65.2256
  1.637  65.2256
  1.633  65.2256
  1.629  65.4256
  1.625  65.5256
  1.621  65.4256
  1.617  65.4256
  1.613  65.3256
  1.609  65.4256
  1.605  65.0256
  1.601  65.2256
  1.597  65.2256
  1.593  64.9256
  1.589  64.7256
  1.585  64.9256
  1.581  64.2256
  1.577  63.9256
  1.573  63.8256
  1.569  63.8256
  1.565  63.8256
  1.561  63.2256
  1.557  62.5256
  1.553  62.3256
  1.549  62.1256
  1.545  62.1256
  1.541  62.2256
  1.537  61.9256
  1.533  62.2256
  1.529  62.3256
  1.525  62.2256
  1.521  62.3256
  1.517  62.0256
  1.513  61.6256
  1.509  61.2256
  1.505  61.0256
  1.501  60.5256
  1.497  60.0256
  1.493  59.8256
  1.489  59.5256
  1.485  59.5256
  1.481  59.3256
  1.477  58.9256
  1.473  58.4256
  1.469  58.3256
  1.465  57.8256
  1.461  57.7256
  1.457  57.2256
  1.453  57.1256
  1.449  56.8256
  1.445  56.4256
  1.441  55.6256
  1.437  54.4256
  1.433  53.3256
  1.429  51.7256
  1.425  49.8256
  1.421  47.9256
  1.417  45.7256
  1.413  43.5256
  1.409  43.1256
  1.405  43.8256
  1.401  45.0256
  1.397  47.1256
  1.393  49.0256
  1.389  49.5256
  1.385  51.0256
  1.381  52.3256
  1.377  53.4256
  1.373  55.4256
  1.369  57.3256
  1.365  57.9256
  1.361  57.9256
  1.357  58.2256
  1.353  58.8256
  1.349  58.9256
  1.345  59.3256
  1.341  59.5256
  1.337  59.9256
  1.333  60.0256
  1.329  60.1256
  1.325  59.9256
  1.321  59.9256
  1.317  60.0256
  1.313  60.0256
  1.309  59.9256
  1.305  59.9256
  1.301  59.9256
  1.297  59.8256
  1.293  59.7256
  1.289  59.7256
  1.285  59.5256
  1.281  59.3256
  1.277  58.8256
  1.273  58.7256
  1.269  58.4256
  1.265  58.2256
  1.261  58.1256
  1.257  57.7256
  1.253  57.5256
  1.249  57.2256
  1.245  57.0256
  1.241  57.0256
  1.237  56.8256
  1.233  56.7256
  1.229  56.4256
  1.225  56.2256
  1.221  56.0256
  1.217  55.6256
  1.213  55.5256
  1.209  55.3256
  1.205  55.0256
  1.201  54.8256
  1.197  54.5256
  1.193  54.4256
  1.189  54.3256
  1.185  54.3256
  1.181  54.0256
  1.177  53.9256
  1.173  54.0256
  1.169  53.8256
  1.165  53.8256
  1.161  53.7256
  1.157  53.4256
  1.153  53.2256
  1.149  53.8256
  1.145  53.6256
  1.141  53.6256
  1.137  53.6256
  1.133  53.2256
  1.129  53.2256
  1.125  52.9256
  1.121  53.4256
  1.117  52.9256
  1.113  52.5256
  1.109  52.9256
  1.105  53.2256
  1.101  53.2256
  1.097  52.8256
  1.093  52.8256
  1.089  52.5256
  1.085  52.0256
  1.081  52.8256
  1.077  53.1256
  1.073  53.2256
  1.069  53.1256
  1.065  52.7256
  1.061  52.7256
  1.057  52.6256
  1.053  52.3256
  1.049  51.8256
  1.045  52.1256
  1.041  52.6256
  1.037  52.6256
  1.033  52.6256
  1.029  52.2256
  1.025  52.0256
  1.021  52.5256
  1.017  52.6256
  1.013  52.1256
  1.009  52.7256
  1.005  52.3256
  1.001  52.2256
  0.997  52.2256
  0.993  52.7256
  0.989  52.3256
  0.985  52.1256
  0.981  52.0256
  0.977  52.1256
  0.973  51.7256
  0.969  51.7256
  0.965  51.7256
  0.961  51.7256
  0.957  51.2256
  0.953  51.2256
  0.949  51.4256
  0.945  51.4256
  0.941  51.2256
  0.937  51.0256
  0.933  51.0256
  0.929  51.0256
  0.925  51.0256
  0.921  50.7256
  0.917  50.6256
  0.913  50.6256
  0.909  50.5256
  0.905  50.4256
  0.901  50.5256
  0.897  50.6256
  0.893  50.1256
  0.889  50.1256
  0.885  50.1256
  0.881  50.0256
  0.877  50.4256
  0.873  50.0256
  0.869  50.3256
  0.865  50.4256
  0.861  50.4256
  0.857  50.1256
  0.853  50.3256
  0.849  50.5256
  0.845  50.4256
  0.841  50.5256
  0.837  50.6256
  0.833  50.7256
  0.829  50.6256
  0.825  50.7256
  0.821  50.4256
  0.817  50.5256
  0.813  50.5256
  0.809  50.4256
  0.805  50.3256
  0.804  50.6256
  0.803  50.6256
  0.802  50.3256
  0.801  50.5256
  0.800  50.3256
  0.799  50.4256
  0.798  50.5256
  0.797  50.3256
  0.796  50.3256
  0.795  50.3256
  0.794  50.4256
  0.793  50.0256
  0.792  50.0256
  0.791  50.5256
  0.790  50.5256
  0.789  50.7256
  0.788  50.6256
  0.787  50.5256
  0.786  50.5256
  0.785  50.4256
  0.784  50.4256
  0.783  50.1256
  0.782  50.3256
  0.781  49.9256
  0.780  49.9256
  0.779  49.9256
  0.778  50.0256
  0.777  50.3256
  0.776  50.1256
  0.775  49.9256
  0.774  49.9256
  0.773  50.1256
  0.772  50.0256
  0.771  50.1256
  0.770  50.0256
  0.769  49.8256
  0.768  49.8256
  0.767  49.9256
  0.766  49.6256
  0.765  49.6256
  0.764  49.6256
  0.763  49.8256
  0.762  49.3256
  0.761  49.2256
  0.760  49.4256
  0.759  49.4256
  0.758  49.5256
  0.757  49.8256
  0.756  49.9256
  0.755  49.9256
  0.754  49.9256
  0.753  50.1256
  0.752  50.1256
  0.751  50.0256
  0.750  49.5256
  0.749  49.6256
  0.748  49.2256
  0.747  48.9256
  0.746  49.2256
  0.745  48.9256
  0.744  49.4256
  0.743  49.5256
  0.742  49.5256
  0.741  49.0256
  0.740  48.9256
  0.739  49.3256
  0.738  49.2256
  0.737  49.3256
  0.736  49.2256
  0.735  49.3256
  0.734  48.9256
  0.733  48.8256
  0.732  49.0256
  0.731  49.2256
  0.730  48.9256
  0.729  49.0256
  0.728  48.9256
  0.727  48.9256
  0.726  48.5256
  0.725  48.8256
  0.724  48.7256
  0.723  48.5256
  0.722  48.5256
  0.721  48.7256
  0.720  48.5256
  0.719  48.7256
  0.718  48.7256
  0.717  48.7256
  0.716  48.9256
  0.715  49.0256
  0.714  48.9256
  0.713  48.8256
  0.712  49.3256
  0.711  48.7256
  0.710  48.1256
  0.709  47.8256
  0.708  47.7256
  0.707  47.7256
  0.706  47.6256
  0.705  47.7256
  0.704  47.8256
  0.703  47.3256
  0.702  47.3256
  0.701  47.4256
  0.700  47.4256
  0.699  47.4256
  0.698  47.4256
  0.697  47.4256
  0.696  47.4256
  0.695  47.3256
  0.694  47.2256
  0.693  47.4256
  0.692  47.2256
  0.691  47.3256
  0.690  47.1256
  0.689  46.7256
  0.688  46.7256
  0.687  46.8256
  0.686  46.8256
  0.685  46.6256
  0.684  46.6256
  0.683  46.6256
  0.682  46.5256
  0.681  46.6256
  0.680  46.6256
  0.679  46.6256
  0.678  46.7256
  0.677  46.7256
  0.676  46.3256
  0.675  46.2256
  0.674  46.5256
  0.673  46.5256
  0.672  46.5256
  0.671  46.2256
  0.670  46.1256
  0.669  46.0256
  0.668  46.1256
  0.667  46.1256
  0.666  46.0256
  0.665  45.9256
  0.664  46.0256
  0.663  45.7256
  0.662  45.7256
  0.661  45.9256
  0.660  45.7256
  0.659  45.7256
  0.658  45.5256
  0.657  45.4256
  0.656  45.0256
  0.655  45.2256
  0.654  45.1256
  0.653  45.0256
  0.652  45.1256
  0.651  45.2256
  0.650  45.1256
  0.649  45.1256
  0.648  45.0256
  0.647  44.9256
  0.646  44.8256
  0.645  44.8256
  0.644  44.4256
  0.643  44.4256
  0.642  44.5256
  0.641  44.6256
  0.640  44.1256
  0.639  44.4256
  0.638  44.1256
  0.637  44.3256
  0.636  44.0256
  0.635  43.9256
  0.634  44.0256
  0.633  44.0256
  0.632  44.1256
  0.631  43.8256
  0.630  43.8256
  0.629  43.5256
  0.628  43.2256
  0.627  43.4256
  0.626  43.4256
  0.625  43.4256
  0.624  43.3256
  0.623  43.2256
  0.622  42.9256
  0.621  43.1256
  0.620  42.8256
  0.619  43.1256
  0.618  43.2256
  0.617  43.1256
  0.616  43.1256
  0.615  42.9256
  0.614  42.4256
  0.613  42.6256
  0.612  42.4256
  0.611  42.2256
  0.610  42.1256
  0.609  42.1256
  0.608  42.0256
  0.607  42.0256
  0.606  41.7256
  0.605  41.5256
  0.604  41.7256
  0.603  41.6256
  0.602  41.2256
  0.601  41.5256
  0.600  41.2256
  0.599  41.1256
  0.598  40.9256
  0.597  41.0256
  0.596  40.9256
  0.595  40.7256
  0.594  41.0256
  0.593  40.7256
  0.592  40.7256
  0.591  40.5256
  0.590  40.5256
  0.589  40.2256
  0.588  40.4256
  0.587  40.0256
  0.586  40.1256
  0.585  40.1256
  0.584  40.0256
  0.583  39.8256
  0.582  39.8256
  0.581  39.4256
  0.580  39.4256
  0.579  39.4256
  0.578  39.1256
  0.577  39.3256
  0.576  39.1256
  0.575  39.3256
  0.574  39.3256
  0.573  39.4256
  0.572  39.4256
  0.571  39.3256
  0.570  39.3256
  0.569  39.1256
  0.568  38.9256
  0.567  38.8256
  0.566  38.4256
  0.565  38.3256
  0.564  38.3256
  0.563  37.8256
  0.562  37.7256
  0.561  37.8256
  0.560  37.7256
  0.559  37.7256
  0.558  37.7256
  0.557  37.6256
  0.556  37.4256
  0.555  37.1256
  0.554  36.7256
  0.553  36.7256
  0.552  36.5256
  0.551  36.6256
  0.550  36.3256
  0.549  36.6256
  0.548  36.1256
  0.547  36.0256
  0.546  36.1256
  0.545  35.7256
  0.544  35.6256
  0.543  35.7256
  0.542  35.7256
  0.541  35.4256
  0.540  35.4256
  0.539  35.2256
  0.538  35.0256
  0.537  34.9256
  0.536  34.9256
  0.535  34.6256
  0.534  34.5256
  0.533  34.3256
  0.532  34.1256
  0.531  34.0256
  0.530  34.0256
  0.529  34.0256
  0.528  33.8256
  0.527  33.8256
  0.526  33.4256
  0.525  33.3256
  0.524  33.0256
  0.523  33.3256
  0.522  33.0256
  0.521  32.5256
  0.520  32.9256
  0.519  32.7256
  0.518  32.4256
  0.517  31.7256
  0.516  31.7256
  0.515  31.8256
  0.514  31.3256
  0.513  31.0256
  0.512  31.1256
  0.511  31.1256
  0.510  30.6256
  0.509  30.8256
  0.508  31.1256
  0.507  30.7256
  0.506  30.7256
  0.505  30.2256
  0.504  30.1256
  0.503  30.0256
  0.502  29.9256
  0.501  29.7256
  0.500  29.6256
  0.499  29.1256
  0.498  29.3256
  0.497  28.9256
  0.496  28.9256
  0.495  28.9256
  0.494  29.0256
  0.493  29.1256
  0.492  29.3256
  0.491  28.5256
  0.490  28.6256
  0.489  28.2256
  0.488  28.3256
  0.487  28.5256
  0.486  28.3256
  0.485  28.3256
  0.484  27.9256
  0.483  27.8256
  0.482  27.8256
  0.481  27.8256
  0.480  27.5256
  0.479  27.7256
  0.478  27.4256
  0.477  27.5256
  0.476  27.7256
  0.475  27.5256
  0.474  27.4256
  0.473  27.2256
  0.472  27.3256
  0.471  27.3256
  0.470  27.2256
  0.469  26.9256
  0.468  26.7256
  0.467  26.9256
  0.466  26.9256
  0.465  26.7256
  0.464  26.3256
  0.463  26.8256
  0.462  26.7256
  0.461  26.4256
  0.460  26.3256
  0.459  26.3256
  0.458  26.2256
  0.457  25.8256
  0.456  25.7256
  0.455  25.8256
  0.454  25.5256
  0.453  25.6256
  0.452  25.5256
  0.451  25.3256
  0.450  25.1256
  0.449  25.1256
  0.448  25.2256
  0.447  25.0256
  0.446  24.6256
  0.445  24.6256
  0.444  24.5256
  0.443  24.6256
  0.442  24.4256
  0.441  24.6256
  0.440  24.5256
  0.439  24.4256
  0.438  24.4256
  0.437  24.4256
  0.436  24.0256
  0.435  23.9256
  0.434  23.9256
  0.433  23.6256
  0.432  23.8256
  0.431  23.8256
  0.430  23.6256
  0.429  23.6256
  0.428  23.6256
  0.427  23.4256
  0.426  23.5256
  0.425  23.0256
  0.424  23.4256
  0.423  23.0256
  0.422  23.0256
  0.421  22.9256
  0.420  22.9256
  0.419  22.7256
  0.418  22.4256
  0.417  22.4256
  0.416  22.2256
  0.415  21.9256
  0.414  22.4256
  0.413  22.3256
  0.412  22.0256
  0.411  22.0256
  0.410  21.8256
  0.409  21.6256
  0.408  21.7256
  0.407  21.6256
  0.406  21.3256
  0.405  21.2256
