Name: Basalt
Type: Rock
Class: Igneous
Subclass: Mafic
Particle Size: Whole rock chips
Sample No.: ME10B
Owner: Lawrence Rowan, USGS Reston
Wavelength range: 0.40 - 14.05 um
Origin: Wadi Hasa, South Jordan

Description: Basalt, fresh surface





Measurement: Directional Hemispherical Reflectance
First Column: X
Second Column: Y
X Units: Wavelength (micrometers)
Y Units: Reflectance (percent)
First X Value: 14.05105
Last X Value: 0.40000
Number of X Values: 2231
Additional Information: me10Ba.txt

 14.051   3.6256
 14.013   3.2136
 13.975   3.3990
 13.938   3.6050
 13.900   3.5123
 13.863   3.2136
 13.826   3.0488
 13.790   2.9870
 13.753   3.0076
 13.717   2.9561
 13.680   3.1003
 13.644   3.0694
 13.609   3.0797
 13.573   2.9767
 13.538   2.8634
 13.502   2.7707
 13.467   2.9561
 13.432   3.0385
 13.398   3.0797
 13.363   3.0488
 13.329   3.1415
 13.295   3.0179
 13.261   3.0282
 13.227   3.1209
 13.193   3.1621
 13.160   3.0797
 13.126   3.1209
 13.093   3.1827
 13.060   3.2754
 13.027   3.1621
 12.995   3.1827
 12.962   3.1518
 12.930   3.0694
 12.898   3.0694
 12.866   3.2342
 12.834   3.2342
 12.802   3.2754
 12.771   3.2857
 12.739   3.3269
 12.708   3.3990
 12.677   3.4814
 12.646   3.5123
 12.616   3.5638
 12.585   3.5226
 12.554   3.6153
 12.524   3.7801
 12.494   3.9140
 12.464   3.8419
 12.434   3.8728
 12.404   3.9449
 12.375   3.9861
 12.345   3.9243
 12.316   3.9655
 12.287   3.9964
 12.258   4.1818
 12.229   4.3260
 12.200   4.4599
 12.171   4.4599
 12.143   4.5320
 12.115   4.4702
 12.086   4.4908
 12.058   4.6041
 12.030   4.6659
 12.002   4.7277
 11.975   4.9440
 11.947   4.9543
 11.920   4.9749
 11.892   5.0470
 11.865   5.2221
 11.838   5.2633
 11.811   5.4384
 11.784   5.5929
 11.757   5.6650
 11.731   5.6650
 11.704   5.8401
 11.678   5.9328
 11.652   5.9843
 11.626   6.0667
 11.600   6.3036
 11.574   6.4581
 11.548   6.5611
 11.522   6.5508
 11.497   6.6332
 11.471   6.6641
 11.446   6.7568
 11.421   6.8804
 11.396   7.0246
 11.371   7.0246
 11.346   7.0452
 11.321   6.9731
 11.297   7.0349
 11.272   7.1482
 11.248   7.3851
 11.223   7.4057
 11.199   7.3748
 11.175   7.3645
 11.151   7.3851
 11.127   7.4366
 11.103   7.6323
 11.079   7.6323
 11.056   7.6632
 11.032   7.6735
 11.009   7.7147
 10.985   7.7868
 10.962   7.9207
 10.939   7.9825
 10.916   8.0752
 10.893   8.2091
 10.870   8.3224
 10.848   8.2091
 10.825   8.2915
 10.802   8.3224
 10.780   8.2606
 10.758   8.1885
 10.735   8.2400
 10.713   8.3636
 10.691   8.5490
 10.669   8.6211
 10.647   8.7344
 10.625   8.8065
 10.604   9.0331
 10.582   9.1361
 10.560   9.3318
 10.539   9.4657
 10.518   9.6408
 10.496   9.9292
 10.475  10.1043
 10.454  10.2691
 10.433  10.6193
 10.412  10.7738
 10.391  10.9592
 10.370  11.2064
 10.350  11.5051
 10.329  11.6184
 10.309  11.6802
 10.288  11.7317
 10.268  11.8656
 10.247  11.9171
 10.227  12.0304
 10.207  12.1540
 10.187  12.2570
 10.167  12.2673
 10.147  12.2776
 10.127  12.4115
 10.108  12.5351
 10.088  12.5866
 10.068  12.7205
 10.049  12.8853
 10.029  13.1325
 10.010  13.3076
  9.991  13.5239
  9.972  13.7093
  9.952  13.8329
  9.933  13.9359
  9.914  14.1625
  9.895  14.3273
  9.877  14.4818
  9.858  14.4715
  9.839  14.5436
  9.821  14.6569
  9.802  14.7290
  9.783  14.7702
  9.765  14.8526
  9.747  14.8320
  9.728  14.7702
  9.710  14.8217
  9.692  15.0174
  9.674  15.0586
  9.656  15.1204
  9.638  15.2440
  9.620  15.3779
  9.602  15.3676
  9.585  15.4294
  9.567  15.3676
  9.549  15.2646
  9.532  15.1513
  9.514  15.0380
  9.497  14.8423
  9.479  14.6569
  9.462  14.3273
  9.445  14.0183
  9.428  13.6475
  9.411  13.3385
  9.394  13.0707
  9.377  12.8750
  9.360  12.5866
  9.343  12.3188
  9.326  12.0098
  9.309  11.8141
  9.293  11.6699
  9.276  11.6802
  9.259  11.6184
  9.243  11.6081
  9.226  11.5669
  9.210  11.5360
  9.194  11.4845
  9.178  11.4742
  9.161  11.4639
  9.145  11.6081
  9.129  11.6802
  9.113  11.7111
  9.097  11.7008
  9.081  11.6596
  9.065  11.5669
  9.049  11.4330
  9.034  11.2167
  9.018  11.0931
  9.002  10.8459
  8.987  10.5884
  8.971  10.2485
  8.956   9.9807
  8.940   9.7541
  8.925   9.5172
  8.909   9.1773
  8.894   8.8580
  8.879   8.4151
  8.864   7.9928
  8.849   7.6632
  8.834   7.4366
  8.819   7.1894
  8.804   6.8289
  8.789   6.4169
  8.774   6.1697
  8.759   5.9431
  8.744   5.8195
  8.730   5.6341
  8.715   5.3766
  8.700   5.1294
  8.686   4.9543
  8.671   4.7380
  8.657   4.6041
  8.642   4.5114
  8.628   4.4908
  8.614   4.3363
  8.599   4.1715
  8.585   4.0994
  8.571   4.1097
  8.557   4.0067
  8.543   3.9346
  8.529   3.8728
  8.515   3.8110
  8.501   3.6874
  8.487   3.6256
  8.473   3.5329
  8.459   3.4814
  8.445   3.3784
  8.431   3.3578
  8.418   3.3681
  8.404   3.4608
  8.391   3.4196
  8.377   3.3063
  8.363   3.2651
  8.350   3.2651
  8.337   3.1209
  8.323   3.1209
  8.310   3.1312
  8.297   3.1724
  8.283   3.0694
  8.270   3.0179
  8.257   2.9561
  8.244   2.9561
  8.231   2.8840
  8.218   2.8634
  8.205   2.8325
  8.192   2.8016
  8.179   2.7810
  8.166   2.7295
  8.153   2.6986
  8.140   2.7089
  8.128   2.6265
  8.115   2.6471
  8.102   2.6574
  8.090   2.6265
  8.077   2.5544
  8.064   2.4823
  8.052   2.4514
  8.039   2.6162
  8.027   2.6162
  8.015   2.5647
  8.002   2.5029
  7.990   2.5647
  7.978   2.5956
  7.965   2.5647
  7.953   2.5029
  7.941   2.5750
  7.929   2.5441
  7.917   2.6059
  7.905   2.5750
  7.893   2.5544
  7.881   2.5647
  7.869   2.6162
  7.857   2.5647
  7.845   2.4823
  7.833   2.4823
  7.821   2.6265
  7.809   2.6780
  7.798   2.6471
  7.786   2.5647
  7.774   2.6059
  7.763   2.6162
  7.751   2.6368
  7.739   2.5956
  7.728   2.6059
  7.716   2.6883
  7.705   2.7192
  7.694   2.7089
  7.682   2.7501
  7.671   2.7089
  7.659   2.6471
  7.648   2.6780
  7.637   2.7810
  7.626   2.7604
  7.614   2.7810
  7.603   2.7604
  7.592   2.7501
  7.581   2.7913
  7.570   2.8531
  7.559   2.8325
  7.548   2.8737
  7.537   2.8943
  7.526   2.9046
  7.515   2.8325
  7.504   2.7913
  7.493   2.8531
  7.483   2.8840
  7.472   2.8222
  7.461   2.8943
  7.450   2.9252
  7.440   2.8737
  7.429   2.8531
  7.418   2.8840
  7.408   2.8531
  7.397   2.8840
  7.387   2.8943
  7.376   2.9149
  7.366   2.9252
  7.355   2.9252
  7.345   2.9252
  7.334   2.9458
  7.324   2.9458
  7.314   2.9870
  7.303   2.9664
  7.293   2.9355
  7.283   2.9870
  7.273   2.9870
  7.263   2.9458
  7.252   2.9561
  7.242   2.9458
  7.232   3.0282
  7.222   3.0385
  7.212   3.0694
  7.202   3.0385
  7.192   2.9973
  7.182   3.0385
  7.172   3.0797
  7.162   3.0385
  7.152   3.1003
  7.143   3.0797
  7.133   3.0797
  7.123   3.0591
  7.113   3.0694
  7.103   3.0694
  7.094   3.0591
  7.084   3.0591
  7.074   3.1209
  7.065   3.1724
  7.055   3.1621
  7.046   3.1724
  7.036   3.2239
  7.026   3.1621
  7.017   3.1827
  7.007   3.1724
  6.998   3.1827
  6.989   3.2239
  6.979   3.2548
  6.970   3.2239
  6.960   3.2239
  6.951   3.2136
  6.942   3.2033
  6.932   3.2342
  6.923   3.2445
  6.914   3.2445
  6.905   3.2960
  6.896   3.3063
  6.886   3.2651
  6.877   3.2857
  6.868   3.2857
  6.859   3.2960
  6.850   3.3269
  6.841   3.2857
  6.832   3.3269
  6.823   3.3063
  6.814   3.2445
  6.805   3.2651
  6.796   3.2754
  6.787   3.2857
  6.778   3.2754
  6.770   3.2548
  6.761   3.3166
  6.752   3.2651
  6.743   3.2342
  6.734   3.2239
  6.726   3.2960
  6.717   3.2857
  6.708   3.2960
  6.700   3.2754
  6.691   3.2548
  6.682   3.2857
  6.674   3.3784
  6.665   3.3166
  6.657   3.2342
  6.648   3.2239
  6.640   3.3269
  6.631   3.3990
  6.623   3.3578
  6.614   3.2548
  6.606   3.2857
  6.597   3.3475
  6.589   3.3887
  6.581   3.3269
  6.572   3.3887
  6.564   3.4814
  6.556   3.4402
  6.547   3.3887
  6.539   3.4711
  6.531   3.4196
  6.523   3.3475
  6.514   3.3475
  6.506   3.3784
  6.498   3.3990
  6.490   3.5226
  6.482   3.5226
  6.474   3.5432
  6.466   3.5329
  6.458   3.5020
  6.450   3.4505
  6.442   3.3887
  6.434   3.3784
  6.426   3.4299
  6.418   3.4608
  6.410   3.5947
  6.402   3.6359
  6.394   3.5535
  6.386   3.4196
  6.378   3.3681
  6.370   3.3990
  6.363   3.4917
  6.355   3.4814
  6.347   3.4402
  6.339   3.4196
  6.332   3.3990
  6.324   3.4093
  6.316   3.4196
  6.308   3.3784
  6.301   3.4093
  6.293   3.4299
  6.286   3.4196
  6.278   3.4093
  6.270   3.4505
  6.263   3.3681
  6.255   3.3166
  6.248   3.3372
  6.240   3.3063
  6.233   3.2651
  6.225   3.2651
  6.218   3.2754
  6.210   3.3475
  6.203   3.2857
  6.195   3.1930
  6.188   3.1827
  6.181   3.2754
  6.173   3.2754
  6.166   3.1827
  6.159   3.1930
  6.151   3.2136
  6.144   3.1518
  6.137   3.1209
  6.130   3.1106
  6.122   3.0694
  6.115   3.1003
  6.108   3.1930
  6.101   3.1827
  6.094   3.1724
  6.086   3.1518
  6.079   3.1518
  6.072   3.1724
  6.065   3.2136
  6.058   3.2033
  6.051   3.2548
  6.044   3.3475
  6.037   3.2445
  6.030   3.1518
  6.023   3.2136
  6.016   3.2239
  6.009   3.2445
  6.002   3.2651
  5.995   3.2754
  5.988   3.3166
  5.981   3.3681
  5.974   3.3578
  5.967   3.3269
  5.960   3.2857
  5.954   3.2960
  5.947   3.3784
  5.940   3.5020
  5.933   3.5741
  5.926   3.5329
  5.920   3.4196
  5.913   3.3990
  5.906   3.4299
  5.899   3.5226
  5.893   3.6462
  5.886   3.6256
  5.879   3.6462
  5.873   3.6565
  5.866   3.5844
  5.859   3.6565
  5.853   3.7183
  5.846   3.6874
  5.840   3.6565
  5.833   3.7080
  5.827   3.7286
  5.820   3.7286
  5.813   3.7286
  5.807   3.6977
  5.800   3.7183
  5.794   3.7286
  5.788   3.6977
  5.781   3.7595
  5.775   3.7904
  5.768   3.8316
  5.762   3.9655
  5.755   3.9346
  5.749   3.8419
  5.743   3.9037
  5.736   3.8934
  5.730   3.8728
  5.724   3.8728
  5.717   3.8625
  5.711   3.8522
  5.705   3.8934
  5.698   3.9243
  5.692   3.9552
  5.686   3.9552
  5.680   3.9449
  5.674   3.9655
  5.667   3.9861
  5.661   3.9861
  5.655   4.0170
  5.649   4.0273
  5.643   4.0582
  5.637   4.0891
  5.630   4.0067
  5.624   3.9449
  5.618   3.9758
  5.612   4.0067
  5.606   4.0067
  5.600   4.0170
  5.594   4.0582
  5.588   4.0067
  5.582   3.9758
  5.576   4.0376
  5.570   4.1303
  5.564   4.1097
  5.558   4.0273
  5.552   4.0067
  5.546   4.0891
  5.540   4.1097
  5.534   4.1097
  5.528   4.0994
  5.523   4.0479
  5.517   4.0685
  5.511   4.1200
  5.505   4.1303
  5.499   4.1509
  5.493   4.1509
  5.487   4.1406
  5.482   4.1818
  5.476   4.2024
  5.470   4.1612
  5.464   4.1818
  5.459   4.1921
  5.453   4.1509
  5.447   4.1200
  5.441   4.1200
  5.436   4.1406
  5.430   4.1818
  5.424   4.2230
  5.419   4.2642
  5.413   4.2333
  5.407   4.2230
  5.402   4.2333
  5.396   4.2230
  5.390   4.2333
  5.385   4.2539
  5.379   4.2333
  5.374   4.2539
  5.368   4.2848
  5.363   4.2539
  5.357   4.2230
  5.352   4.2127
  5.346   4.2024
  5.341   4.2333
  5.335   4.2848
  5.330   4.3157
  5.324   4.2951
  5.319   4.2539
  5.313   4.2230
  5.308   4.2848
  5.302   4.3054
  5.297   4.2539
  5.291   4.2024
  5.286   4.2024
  5.281   4.2539
  5.275   4.2848
  5.270   4.2642
  5.265   4.2745
  5.259   4.3157
  5.254   4.3466
  5.249   4.3260
  5.243   4.3260
  5.238   4.3569
  5.233   4.3672
  5.227   4.3260
  5.222   4.2951
  5.217   4.3569
  5.212   4.3569
  5.206   4.3569
  5.201   4.4084
  5.196   4.3363
  5.191   4.3466
  5.186   4.3672
  5.180   4.3054
  5.175   4.2539
  5.170   4.2848
  5.165   4.3363
  5.160   4.3054
  5.155   4.2951
  5.150   4.2848
  5.145   4.2642
  5.139   4.2951
  5.134   4.3157
  5.129   4.3054
  5.124   4.3054
  5.119   4.3054
  5.114   4.3157
  5.109   4.3260
  5.104   4.3260
  5.099   4.3363
  5.094   4.3260
  5.089   4.3157
  5.084   4.3363
  5.079   4.3569
  5.074   4.3878
  5.069   4.4187
  5.064   4.4496
  5.059   4.4187
  5.054   4.3363
  5.049   4.3363
  5.044   4.3466
  5.040   4.3363
  5.035   4.3672
  5.030   4.3672
  5.025   4.3363
  5.020   4.3363
  5.015   4.4290
  5.010   4.4805
  5.005   4.4702
  5.001   4.4187
  4.996   4.4290
  4.991   4.4599
  4.986   4.4805
  4.981   4.4393
  4.977   4.3981
  4.972   4.4084
  4.967   4.4393
  4.962   4.4496
  4.958   4.4393
  4.953   4.4393
  4.948   4.4496
  4.943   4.4393
  4.939   4.4599
  4.934   4.4908
  4.929   4.4702
  4.925   4.4805
  4.920   4.5423
  4.915   4.5629
  4.911   4.5320
  4.906   4.5629
  4.901   4.5217
  4.897   4.4805
  4.892   4.4702
  4.888   4.4805
  4.883   4.5217
  4.878   4.5320
  4.874   4.5217
  4.869   4.5320
  4.865   4.5217
  4.860   4.4805
  4.856   4.5320
  4.851   4.5938
  4.846   4.5938
  4.842   4.5526
  4.837   4.5732
  4.833   4.6041
  4.828   4.5629
  4.824   4.6041
  4.819   4.6556
  4.815   4.6762
  4.810   4.6350
  4.806   4.6247
  4.802   4.6350
  4.797   4.6041
  4.793   4.5629
  4.788   4.5629
  4.784   4.5938
  4.779   4.6247
  4.775   4.6144
  4.771   4.6041
  4.766   4.6144
  4.762   4.6968
  4.758   4.7792
  4.753   4.6865
  4.749   4.6350
  4.744   4.6762
  4.740   4.7174
  4.736   4.7174
  4.731   4.7380
  4.727   4.7689
  4.723   4.6865
  4.719   4.6556
  4.714   4.6556
  4.710   4.6865
  4.706   4.7483
  4.701   4.7483
  4.697   4.7689
  4.693   4.7689
  4.689   4.7483
  4.684   4.7380
  4.680   4.7483
  4.676   4.7277
  4.672   4.7689
  4.668   4.7689
  4.663   4.7689
  4.659   4.8101
  4.655   4.8101
  4.651   4.8513
  4.647   4.7998
  4.643   4.7380
  4.638   4.7689
  4.634   4.8101
  4.630   4.8513
  4.626   4.8307
  4.622   4.8101
  4.618   4.7895
  4.614   4.8204
  4.610   4.8204
  4.605   4.8513
  4.601   4.9337
  4.597   4.9440
  4.593   4.8822
  4.589   4.8822
  4.585   4.8513
  4.581   4.8101
  4.577   4.8616
  4.573   4.9337
  4.569   4.9749
  4.565   4.9955
  4.561   4.9646
  4.557   4.8513
  4.553   4.8410
  4.549   4.8925
  4.545   4.8822
  4.541   4.9337
  4.537   4.9543
  4.533   4.9749
  4.529   4.9440
  4.525   4.8822
  4.521   4.8822
  4.517   4.9749
  4.513   4.9749
  4.509   4.9749
  4.505   5.0161
  4.502   5.0058
  4.498   4.9852
  4.494   4.9955
  4.490   5.0470
  4.486   5.0161
  4.482   4.9852
  4.478   5.0264
  4.474   5.0367
  4.470   5.0573
  4.467   5.0058
  4.463   5.0161
  4.459   5.0470
  4.455   5.0470
  4.451   5.0470
  4.447   5.1397
  4.444   5.1294
  4.440   5.0470
  4.436   5.0264
  4.432   5.0367
  4.428   5.0676
  4.425   5.0676
  4.421   5.0676
  4.417   5.0882
  4.413   5.1088
  4.410   5.0676
  4.406   5.0573
  4.402   5.0573
  4.398   4.9852
  4.395   5.0058
  4.391   5.0882
  4.387   5.1191
  4.384   5.1191
  4.380   5.0882
  4.376   5.0367
  4.372   5.0985
  4.369   5.1294
  4.365   5.1706
  4.361   5.0882
  4.358   5.0573
  4.354   5.0676
  4.350   5.2015
  4.347   5.1809
  4.343   5.1088
  4.340   5.1500
  4.336   5.1500
  4.332   5.1088
  4.329   5.0573
  4.325   5.0058
  4.321   4.9955
  4.318   5.0573
  4.314   5.0676
  4.311   5.1191
  4.307   5.1500
  4.304   5.0985
  4.300   5.0573
  4.296   5.1397
  4.293   5.1603
  4.289   5.1603
  4.286   5.1809
  4.282   5.1809
  4.279   5.1912
  4.275   5.1912
  4.272   5.1809
  4.268   5.2015
  4.265   5.1809
  4.261   5.0882
  4.258   5.1603
  4.254   5.2221
  4.251   5.1706
  4.247   5.2015
  4.244   5.2839
  4.240   5.3045
  4.237   5.3251
  4.233   5.3045
  4.230   5.2942
  4.226   5.2736
  4.223   5.2839
  4.219   5.2839
  4.216   5.2839
  4.213   5.1809
  4.209   5.0676
  4.206   5.1912
  4.202   5.3972
  4.199   5.3045
  4.196   5.2427
  4.192   5.1809
  4.189   5.1603
  4.185   5.1706
  4.182   5.1809
  4.179   5.2839
  4.175   5.3457
  4.172   5.3045
  4.169   5.3045
  4.165   5.2324
  4.162   5.1912
  4.159   5.1603
  4.155   5.2118
  4.152   5.3354
  4.149   5.3354
  4.145   5.2530
  4.142   5.2118
  4.139   5.2427
  4.135   5.2942
  4.132   5.2221
  4.129   5.2221
  4.126   5.2118
  4.122   5.2324
  4.119   5.2324
  4.116   5.3457
  4.112   5.4590
  4.109   5.4281
  4.106   5.3148
  4.103   5.2118
  4.099   5.2118
  4.096   5.1912
  4.093   5.2427
  4.090   5.3354
  4.086   5.3045
  4.083   5.2530
  4.080   5.2633
  4.077   5.2839
  4.074   5.3663
  4.070   5.3663
  4.067   5.2736
  4.064   5.3148
  4.061   5.3457
  4.058   5.4178
  4.055   5.4075
  4.051   5.3251
  4.048   5.3354
  4.045   5.3457
  4.042   5.2530
  4.039   5.2427
  4.036   5.2633
  4.032   5.3148
  4.029   5.2839
  4.026   5.2839
  4.023   5.3251
  4.020   5.3972
  4.017   5.2736
  4.014   5.2427
  4.011   5.3045
  4.008   5.3045
  4.004   5.3457
  4.001   5.3560
  3.998   5.2324
  3.995   5.3045
  3.992   5.4178
  3.989   5.3251
  3.986   5.2118
  3.983   5.2530
  3.980   5.2427
  3.977   5.1603
  3.974   5.2118
  3.971   5.3663
  3.968   5.3869
  3.965   5.4075
  3.962   5.4178
  3.959   5.4075
  3.956   5.3766
  3.953   5.3354
  3.950   5.3560
  3.947   5.3251
  3.944   5.2736
  3.941   5.3663
  3.938   5.4075
  3.935   5.3148
  3.932   5.2839
  3.929   5.3148
  3.926   5.3148
  3.923   5.2530
  3.920   5.2221
  3.917   5.3148
  3.914   5.3354
  3.911   5.4178
  3.908   5.3869
  3.905   5.2530
  3.902   5.2633
  3.899   5.3663
  3.896   5.3354
  3.893   5.3045
  3.890   5.3560
  3.887   5.3560
  3.884   5.3457
  3.882   5.4281
  3.879   5.4693
  3.876   5.4796
  3.873   5.3354
  3.870   5.3148
  3.867   5.4281
  3.864   5.4384
  3.861   5.3766
  3.858   5.3663
  3.856   5.3457
  3.853   5.3766
  3.850   5.3972
  3.847   5.3972
  3.844   5.3045
  3.841   5.3972
  3.838   5.4899
  3.836   5.4487
  3.833   5.3457
  3.830   5.3972
  3.827   5.4487
  3.824   5.3869
  3.822   5.3045
  3.819   5.3663
  3.816   5.4281
  3.813   5.3869
  3.810   5.3560
  3.807   5.3560
  3.805   5.3251
  3.802   5.4178
  3.799   5.4075
  3.796   5.3251
  3.794   5.2839
  3.791   5.3869
  3.788   5.3663
  3.785   5.3766
  3.782   5.4693
  3.780   5.4384
  3.777   5.4384
  3.774   5.4178
  3.771   5.2942
  3.769   5.3148
  3.766   5.3251
  3.763   5.2530
  3.761   5.2942
  3.758   5.3560
  3.755   5.2839
  3.752   5.2736
  3.750   5.3766
  3.747   5.3972
  3.744   5.3148
  3.742   5.3972
  3.739   5.4178
  3.736   5.4487
  3.733   5.3972
  3.731   5.3354
  3.728   5.3766
  3.725   5.3869
  3.723   5.2839
  3.720   5.2839
  3.717   5.2633
  3.715   5.2427
  3.712   5.2839
  3.709   5.3045
  3.707   5.3251
  3.704   5.4487
  3.702   5.4590
  3.699   5.4075
  3.696   5.3354
  3.694   5.2839
  3.691   5.3457
  3.688   5.3972
  3.686   5.2942
  3.683   5.2324
  3.680   5.3560
  3.678   5.4693
  3.675   5.3766
  3.673   5.2530
  3.670   5.1912
  3.667   5.2221
  3.665   5.2530
  3.662   5.3251
  3.660   5.2324
  3.657   5.1706
  3.655   5.2530
  3.652   5.4281
  3.649   5.3972
  3.647   5.2530
  3.644   5.2736
  3.642   5.3457
  3.639   5.3045
  3.637   5.3560
  3.634   5.4178
  3.632   5.4075
  3.629   5.2633
  3.626   5.2118
  3.624   5.3663
  3.621   5.4384
  3.619   5.3457
  3.616   5.2633
  3.614   5.2736
  3.611   5.2633
  3.609   5.2633
  3.606   5.2118
  3.604   5.1397
  3.601   5.2324
  3.599   5.2530
  3.596   5.3045
  3.594   5.2015
  3.591   5.1706
  3.589   5.3663
  3.586   5.3560
  3.584   5.2633
  3.581   5.2839
  3.579   5.2427
  3.576   5.2530
  3.574   5.2633
  3.571   5.2530
  3.569   5.1706
  3.567   5.2015
  3.564   5.2942
  3.562   5.3045
  3.559   5.3045
  3.557   5.2633
  3.554   5.1912
  3.552   5.2324
  3.549   5.2427
  3.547   5.2324
  3.545   5.2221
  3.542   5.2427
  3.540   5.1706
  3.537   5.1500
  3.535   5.1603
  3.533   5.2221
  3.530   5.2736
  3.528   5.2118
  3.525   5.2015
  3.523   5.2015
  3.521   5.1294
  3.518   5.1294
  3.516   5.0779
  3.513   5.1397
  3.511   5.2118
  3.509   5.2221
  3.506   5.1603
  3.504   5.2427
  3.502   5.2015
  3.499   5.1603
  3.497   5.2221
  3.494   5.2015
  3.492   5.1500
  3.490   5.0676
  3.487   5.1191
  3.485   5.1809
  3.483   5.1191
  3.480   5.1500
  3.478   5.1500
  3.476   5.1294
  3.473   5.1809
  3.471   5.1809
  3.469   5.1191
  3.466   5.2221
  3.464   5.1500
  3.462   5.0882
  3.460   5.0573
  3.457   5.0367
  3.455   5.0161
  3.453   5.0573
  3.450   5.0367
  3.448   5.1397
  3.446   5.2530
  3.443   5.2015
  3.441   5.0676
  3.439   4.9852
  3.437   5.0470
  3.434   5.1088
  3.432   5.1397
  3.430   5.1603
  3.428   5.1809
  3.425   5.0676
  3.423   4.9440
  3.421   4.9852
  3.418   5.0573
  3.416   5.1088
  3.414   5.0985
  3.412   5.0264
  3.409   5.0367
  3.407   5.0779
  3.405   5.0058
  3.403   4.8513
  3.401   4.7483
  3.398   4.9028
  3.396   4.9337
  3.394   4.8822
  3.392   4.9028
  3.389   5.0058
  3.387   5.1088
  3.385   5.1706
  3.383   5.0985
  3.381   5.0058
  3.378   5.0161
  3.376   5.0985
  3.374   5.0161
  3.372   4.9028
  3.370   4.8101
  3.367   4.8925
  3.365   5.0676
  3.363   5.0573
  3.361   4.9337
  3.359   4.9131
  3.357   4.8513
  3.354   4.7895
  3.352   4.8410
  3.350   4.9440
  3.348   4.9234
  3.346   4.9028
  3.344   5.0367
  3.341   5.0573
  3.339   4.9646
  3.337   4.8410
  3.335   4.7998
  3.333   4.8204
  3.331   4.8307
  3.329   4.8204
  3.326   4.7689
  3.324   4.7483
  3.322   4.7998
  3.320   4.9337
  3.318   4.9852
  3.316   4.9749
  3.314   4.9440
  3.312   4.9543
  3.309   4.8616
  3.307   4.8925
  3.305   4.9028
  3.303   4.8101
  3.301   4.7586
  3.299   4.8101
  3.297   4.9028
  3.295   4.8719
  3.293   4.8719
  3.291   4.7998
  3.288   4.6350
  3.286   4.6762
  3.284   4.8925
  3.282   4.9852
  3.280   4.8719
  3.278   4.7895
  3.276   4.8410
  3.274   4.9337
  3.272   4.8925
  3.270   4.7895
  3.268   4.7071
  3.266   4.7174
  3.264   4.7689
  3.262   4.8719
  3.259   4.9028
  3.257   4.8204
  3.255   4.7792
  3.253   4.8719
  3.251   4.9440
  3.249   4.8616
  3.247   4.7895
  3.245   4.8513
  3.243   4.8719
  3.241   4.8513
  3.239   4.7895
  3.237   4.7895
  3.235   4.7380
  3.233   4.5423
  3.231   4.6350
  3.229   4.9131
  3.227   4.8925
  3.225   4.9131
  3.223   4.7895
  3.221   4.6968
  3.219   4.6659
  3.217   4.6247
  3.215   4.5217
  3.213   4.6247
  3.211   4.7483
  3.209   4.7380
  3.207   4.6453
  3.205   4.7792
  3.203   4.7277
  3.201   4.5629
  3.199   4.5217
  3.197   4.6762
  3.195   4.6865
  3.193   4.5423
  3.191   4.4805
  3.189   4.5526
  3.187   4.5732
  3.185   4.6968
  3.183   4.6968
  3.182   4.5835
  3.180   4.6247
  3.178   4.7895
  3.176   4.7689
  3.174   4.6659
  3.172   4.6659
  3.170   4.6968
  3.168   4.5423
  3.166   4.4084
  3.164   4.4702
  3.162   4.7071
  3.160   4.7689
  3.158   4.7792
  3.156   4.7483
  3.154   4.7689
  3.152   4.5629
  3.151   4.4393
  3.149   4.5526
  3.147   4.4393
  3.145   4.4084
  3.143   4.4393
  3.141   4.5114
  3.139   4.4187
  3.137   4.2848
  3.135   4.2951
  3.133   4.3157
  3.132   4.3157
  3.130   4.4084
  3.128   4.5938
  3.126   4.5629
  3.124   4.4393
  3.122   4.4702
  3.120   4.5423
  3.118   4.5114
  3.117   4.4496
  3.115   4.4496
  3.113   4.5217
  3.111   4.4393
  3.109   4.5629
  3.107   4.5423
  3.105   4.4702
  3.103   4.3157
  3.102   4.3878
  3.100   4.3981
  3.098   4.4084
  3.096   4.5835
  3.094   4.5320
  3.092   4.4187
  3.091   4.4496
  3.089   4.3981
  3.087   4.3466
  3.085   4.3157
  3.083   4.3054
  3.081   4.2745
  3.079   4.4084
  3.078   4.4599
  3.076   4.2951
  3.074   4.2539
  3.072   4.4084
  3.070   4.3157
  3.069   4.2333
  3.067   4.2745
  3.065   4.3672
  3.063   4.4393
  3.061   4.5320
  3.060   4.5011
  3.058   4.2436
  3.056   4.1406
  3.054   4.1715
  3.052   4.1612
  3.051   4.3157
  3.049   4.5217
  3.047   4.4187
  3.045   4.3260
  3.043   4.3157
  3.042   4.2230
  3.040   4.3775
  3.038   4.3054
  3.036   4.2436
  3.034   4.2333
  3.033   4.0994
  3.031   4.1097
  3.029   4.3260
  3.027   4.3260
  3.026   4.0891
  3.024   4.1921
  3.022   4.4393
  3.020   4.3569
  3.019   4.2230
  3.017   4.1509
  3.015   4.3260
  3.013   4.4393
  3.012   4.4393
  3.010   4.2848
  3.008   4.2539
  3.006   4.3157
  3.005   4.2539
  3.003   4.0067
  3.001   4.1097
  2.999   4.3466
  2.998   4.3363
  2.996   4.3157
  2.994   4.3054
  2.992   4.1406
  2.991   4.1612
  2.989   4.1818
  2.987   4.1612
  2.986   3.9861
  2.984   4.1097
  2.982   4.3569
  2.980   4.3569
  2.979   4.1715
  2.977   4.0067
  2.975   3.9243
  2.974   4.1097
  2.972   4.1715
  2.970   4.0685
  2.968   4.0994
  2.967   4.3775
  2.965   4.4599
  2.963   4.4084
  2.962   4.2333
  2.960   4.1818
  2.958   4.1097
  2.957   4.2024
  2.955   4.3878
  2.953   4.2539
  2.952   4.0582
  2.950   4.0273
  2.948   4.1715
  2.947   4.2848
  2.945   4.2127
  2.943   4.2642
  2.942   4.0376
  2.940   3.9346
  2.938   3.9758
  2.937   4.0170
  2.935   4.2230
  2.933   4.3054
  2.932   4.0994
  2.930   4.0891
  2.928   4.1200
  2.927   3.9552
  2.925   3.8728
  2.923   4.0067
  2.922   3.8934
  2.920   4.0479
  2.918   4.3054
  2.917   4.2539
  2.915   3.9552
  2.913   3.9758
  2.912   4.1406
  2.910   4.0685
  2.909   4.0994
  2.907   4.0994
  2.905   3.9655
  2.904   3.9140
  2.902   4.0582
  2.900   4.2951
  2.899   4.2642
  2.897   4.2127
  2.896   3.9449
  2.894   4.0170
  2.892   4.0788
  2.891   3.9243
  2.889   3.8419
  2.887   3.9964
  2.886   4.1406
  2.884   4.1921
  2.883   4.0994
  2.881   4.0891
  2.879   4.0891
  2.878   4.1818
  2.876   4.2230
  2.875   4.1509
  2.873   4.0479
  2.871   4.0067
  2.870   3.8934
  2.868   3.9243
  2.867   3.9346
  2.865   4.0582
  2.864   4.1921
  2.862   4.3157
  2.860   4.2951
  2.859   4.2436
  2.857   4.1097
  2.856   4.0273
  2.854   4.3672
  2.853   4.3363
  2.851   3.8316
  2.849   3.8419
  2.848   4.0891
  2.846   4.2127
  2.845   4.1097
  2.843   4.1097
  2.842   4.0376
  2.840   3.9037
  2.838   3.8728
  2.837   4.1303
  2.835   3.9346
  2.834   3.8007
  2.832   3.7904
  2.831   3.8213
  2.829   3.8728
  2.828   3.9861
  2.826   4.0273
  2.825   4.0788
  2.823   4.1303
  2.821   4.1200
  2.820   4.0170
  2.818   3.9758
  2.817   3.9861
  2.815   3.9655
  2.814   3.8007
  2.812   3.9243
  2.811   4.0170
  2.809   3.9346
  2.808   3.9449
  2.806   4.0582
  2.805   4.1303
  2.803   4.1097
  2.802   3.9243
  2.800   3.8522
  2.799   3.6771
  2.797   3.5741
  2.796   3.7595
  2.794   4.1715
  2.793   4.2539
  2.791   3.9552
  2.790   3.9552
  2.788   3.8522
  2.787   3.7801
  2.785   4.0067
  2.784   4.1303
  2.782   4.2127
  2.781   4.2436
  2.779   4.3157
  2.778   4.0582
  2.776   4.0067
  2.775   3.9552
  2.773   4.0685
  2.772   4.0479
  2.770   4.1303
  2.769   4.1406
  2.767   4.2230
  2.766   4.2848
  2.764   4.1612
  2.763   3.7389
  2.761   3.8110
  2.760   4.1097
  2.758   4.2024
  2.757   4.1509
  2.756   4.1921
  2.754   4.0479
  2.753   3.8419
  2.751   3.7801
  2.750   3.7080
  2.748   3.7389
  2.747   3.9140
  2.745   3.8316
  2.744   3.7801
  2.742   4.2951
  2.741   4.4805
  2.740   4.1715
  2.738   4.2745
  2.737   3.9552
  2.735   4.0685
  2.734   4.3569
  2.732   4.3260
  2.731   4.0891
  2.729   4.0685
  2.728   4.1200
  2.727   4.4393
  2.725   4.5732
  2.724   4.4496
  2.722   4.3363
  2.721   4.3466
  2.719   4.2848
  2.718   4.4805
  2.717   4.5629
  2.715   4.6041
  2.714   4.7277
  2.712   4.5938
  2.711   4.6350
  2.709   5.0367
  2.708   5.0470
  2.707   5.1294
  2.705   5.1397
  2.704   4.9646
  2.702   4.8925
  2.701   5.1088
  2.700   5.2118
  2.698   5.4590
  2.697   5.5311
  2.695   5.6856
  2.694   5.7474
  2.693   5.6238
  2.691   5.5826
  2.690   5.5723
  2.688   5.4796
  2.687   5.6341
  2.686   5.8401
  2.684   5.7783
  2.683   5.6959
  2.681   5.7268
  2.680   5.8298
  2.679   6.0049
  2.677   6.3551
  2.676   6.2830
  2.675   5.8710
  2.673   5.8916
  2.672   5.9843
  2.670   6.1491
  2.669   5.9534
  2.668   5.8092
  2.666   6.1285
  2.665   6.3654
  2.664   6.4272
  2.662   6.3963
  2.661   6.2624
  2.659   6.4169
  2.658   6.4478
  2.657   6.0152
  2.655   6.0976
  2.654   6.2315
  2.653   5.8504
  2.651   5.7062
  2.650   6.0049
  2.649   6.2933
  2.647   6.6538
  2.646   6.6641
  2.645   6.3036
  2.643   6.0873
  2.642   6.0255
  2.640   6.0873
  2.639   6.3448
  2.638   6.5508
  2.636   6.5817
  2.635   6.4066
  2.634   6.3448
  2.632   6.5199
  2.631   6.5508
  2.630   6.5199
  2.628   6.1800
  2.627   6.1079
  2.626   6.1285
  2.624   6.0873
  2.623   6.2727
  2.622   6.4993
  2.620   6.6847
  2.619   6.7980
  2.618   6.7980
  2.617   6.7774
  2.615   6.5920
  2.614   6.4375
  2.613   6.3860
  2.611   6.4169
  2.610   6.7568
  2.609   6.7774
  2.607   6.3963
  2.606   6.4066
  2.605   6.4375
  2.603   6.3139
  2.602   6.4066
  2.601   6.4890
  2.599   6.4375
  2.598   6.2109
  2.597   6.0667
  2.596   6.5817
  2.594   6.7156
  2.593   6.1903
  2.592   5.7989
  2.590   6.4169
  2.589   6.5302
  2.588   6.4993
  2.586   6.4890
  2.585   6.4169
  2.584   6.1388
  2.583   6.3448
  2.581   6.5920
  2.580   6.4169
  2.579   5.8298
  2.577   5.6547
  2.576   5.9637
  2.575   6.3036
  2.574   6.4581
  2.572   6.6023
  2.571   6.3242
  2.570   6.2830
  2.569   6.4581
  2.567   6.7053
  2.566   6.7259
  2.565   6.6744
  2.563   6.7877
  2.562   6.8392
  2.561   6.7774
  2.560   6.5405
  2.558   6.2830
  2.557   6.2624
  2.556   5.9637
  2.555   6.0255
  2.553   6.4375
  2.552   6.4684
  2.551   6.2521
  2.550   6.4787
  2.548   6.5817
  2.547   6.4169
  2.546   6.2521
  2.545   6.4787
  2.543   6.4066
  2.542   6.2109
  2.541   5.8916
  2.540   6.0358
  2.538   6.2109
  2.537   6.6538
  2.536   6.8804
  2.535   6.9525
  2.533   6.7980
  2.532   6.4787
  2.531   6.3654
  2.530   6.6332
  2.528   6.4272
  2.527   6.3654
  2.526   6.3448
  2.525   6.2727
  2.524   6.0976
  2.522   6.1903
  2.521   6.3448
  2.520   6.6950
  2.519   6.4787
  2.517   6.1079
  2.516   6.3757
  2.515   6.3654
  2.514   6.2727
  2.513   6.5096
  2.511   6.5508
  2.510   6.4272
  2.509   6.3139
  2.508   6.6126
  2.506   6.7568
  2.505   6.7465
  2.504   6.6950
  2.503   6.4993
  2.502   6.4066
  2.500   6.4272
  2.496   6.1147
  2.492   6.4944
  2.488   6.1792
  2.484   5.8763
  2.480   6.6074
  2.476   6.3886
  2.472   6.2345
  2.468   6.4936
  2.464   5.9347
  2.460   6.3322
  2.456   6.0678
  2.452   6.4361
  2.448   6.5418
  2.444   6.6993
  2.440   6.3017
  2.436   6.1467
  2.432   7.0106
  2.428   6.7552
  2.424   6.4513
  2.420   6.0033
  2.416   6.7673
  2.412   6.4352
  2.408   6.5985
  2.404   6.5284
  2.400   6.5648
  2.396   6.3795
  2.392   6.4523
  2.388   6.5790
  2.384   6.7638
  2.380   6.9466
  2.376   6.5964
  2.372   6.6069
  2.368   6.5145
  2.364   6.9047
  2.360   6.6983
  2.356   6.4184
  2.352   6.8834
  2.348   6.8421
  2.344   6.8421
  2.340   7.0773
  2.336   6.9773
  2.332   6.7949
  2.328   6.4234
  2.324   6.6547
  2.320   6.5905
  2.316   6.9785
  2.312   7.1897
  2.308   6.6226
  2.304   6.5885
  2.300   6.8690
  2.296   6.7805
  2.292   6.9546
  2.288   6.9077
  2.284   6.7468
  2.280   6.7753
  2.276   6.8808
  2.272   6.8657
  2.268   6.9708
  2.264   7.0375
  2.260   7.0808
  2.256   6.9258
  2.252   6.8481
  2.248   7.0228
  2.244   7.0766
  2.240   6.9966
  2.236   6.9484
  2.232   7.0446
  2.228   7.0475
  2.224   7.1327
  2.220   7.1715
  2.216   7.3030
  2.212   7.1889
  2.208   7.1832
  2.204   7.1830
  2.200   7.2082
  2.196   7.3087
  2.192   7.3020
  2.188   7.3015
  2.184   7.3628
  2.180   7.3414
  2.176   7.3603
  2.172   7.4349
  2.168   7.3614
  2.164   7.4168
  2.160   7.4091
  2.156   7.5307
  2.152   7.5144
  2.148   7.4572
  2.144   7.3774
  2.140   7.3376
  2.136   7.4244
  2.132   7.5402
  2.128   7.3649
  2.124   7.3861
  2.120   7.3316
  2.116   7.2761
  2.112   7.3570
  2.108   7.3299
  2.104   7.2506
  2.100   7.2422
  2.096   7.3142
  2.092   7.3501
  2.088   7.3282
  2.084   7.3141
  2.080   7.4047
  2.076   7.3943
  2.072   7.3189
  2.068   7.3534
  2.064   7.4242
  2.060   7.4304
  2.056   7.3591
  2.052   7.3407
  2.048   7.4247
  2.044   7.4539
  2.040   7.4464
  2.036   7.4057
  2.032   7.4381
  2.028   7.4521
  2.024   7.3822
  2.020   7.4021
  2.016   7.4469
  2.012   7.3916
  2.008   7.4272
  2.004   7.4152
  2.000   7.3930
  1.996   7.4314
  1.992   7.4366
  1.988   7.4157
  1.984   7.3919
  1.980   7.4377
  1.976   7.4681
  1.972   7.4121
  1.968   7.3617
  1.964   7.3714
  1.960   7.4265
  1.956   7.3995
  1.952   7.3476
  1.948   7.4498
  1.944   7.4655
  1.940   7.3862
  1.936   7.3264
  1.932   7.1843
  1.928   7.1355
  1.924   7.0961
  1.920   7.0631
  1.916   7.0182
  1.912   6.9961
  1.908   6.9661
  1.904   6.9981
  1.900   7.1326
  1.896   7.2511
  1.892   7.3015
  1.888   7.2606
  1.884   7.3764
  1.880   7.5552
  1.876   7.6578
  1.872   7.6956
  1.868   7.6956
  1.864   7.6676
  1.860   7.7052
  1.856   7.7263
  1.852   7.7597
  1.848   7.7907
  1.844   7.8120
  1.840   7.8195
  1.836   7.8079
  1.832   7.7857
  1.828   7.7642
  1.824   7.7884
  1.820   7.8138
  1.816   7.8039
  1.812   7.7774
  1.808   7.8150
  1.804   7.8441
  1.800   7.8391
  1.796   7.8723
  1.792   7.9354
  1.788   7.9564
  1.784   7.9274
  1.780   7.9542
  1.776   8.0082
  1.772   8.0001
  1.768   7.9646
  1.764   7.9552
  1.760   7.9777
  1.756   7.9814
  1.752   7.9463
  1.748   7.9261
  1.744   7.9515
  1.740   7.9596
  1.736   7.9794
  1.732   7.9683
  1.728   7.9891
  1.724   8.0217
  1.720   8.0100
  1.716   7.9905
  1.712   7.9811
  1.708   7.9838
  1.704   8.0019
  1.700   8.0118
  1.696   7.9839
  1.692   7.9869
  1.688   8.0297
  1.684   8.1016
  1.680   8.1576
  1.676   8.1628
  1.672   8.1130
  1.668   8.0858
  1.664   8.1134
  1.660   8.0765
  1.656   8.0798
  1.652   8.1052
  1.648   8.1234
  1.644   8.1234
  1.640   8.1535
  1.636   8.1845
  1.632   8.1623
  1.628   8.1715
  1.624   8.1587
  1.620   8.1360
  1.616   8.1867
  1.612   8.2151
  1.608   8.1868
  1.604   8.1828
  1.600   8.2025
  1.596   8.1835
  1.592   8.2240
  1.588   8.2386
  1.584   8.2126
  1.580   8.1925
  1.576   8.1856
  1.572   8.1951
  1.568   8.2491
  1.564   8.2365
  1.560   8.1919
  1.556   8.1971
  1.552   8.2373
  1.548   8.2823
  1.544   8.2188
  1.540   8.1791
  1.536   8.1968
  1.532   8.2258
  1.528   8.2608
  1.524   8.2126
  1.520   8.2062
  1.516   8.1596
  1.512   8.2309
  1.508   8.2183
  1.504   8.1887
  1.500   8.1963
  1.496   8.1908
  1.492   8.1970
  1.488   8.2096
  1.484   8.2005
  1.480   8.1925
  1.476   8.1532
  1.472   8.1829
  1.468   8.1770
  1.464   8.1282
  1.460   8.1653
  1.456   8.2043
  1.452   8.1744
  1.448   8.1220
  1.444   8.1216
  1.440   8.1602
  1.436   8.1749
  1.432   8.0988
  1.428   8.0863
  1.424   8.1065
  1.420   8.0953
  1.416   8.1142
  1.412   8.1013
  1.408   8.1108
  1.404   8.0892
  1.400   8.0879
  1.396   8.1067
  1.392   8.1156
  1.388   8.1638
  1.384   8.2619
  1.380   8.2845
  1.376   8.2200
  1.372   8.2769
  1.368   8.3535
  1.364   8.4298
  1.360   8.3486
  1.356   8.2024
  1.352   8.2111
  1.348   8.1912
  1.344   8.3175
  1.340   8.3682
  1.336   8.3991
  1.332   8.4229
  1.328   8.3547
  1.324   8.3130
  1.320   8.3368
  1.316   8.3212
  1.312   8.2706
  1.308   8.3330
  1.304   8.3322
  1.300   8.3515
  1.296   8.2995
  1.292   8.3147
  1.288   8.3641
  1.284   8.3359
  1.280   8.2900
  1.276   8.3224
  1.272   8.3836
  1.268   8.2931
  1.264   8.2730
  1.260   8.3526
  1.256   8.3415
  1.252   8.3109
  1.248   8.2716
  1.244   8.3547
  1.240   8.3125
  1.236   8.2409
  1.232   8.2678
  1.228   8.3083
  1.224   8.3303
  1.220   8.2712
  1.216   8.2620
  1.212   8.2280
  1.208   8.2645
  1.204   8.2410
  1.200   8.2620
  1.196   8.2437
  1.192   8.2388
  1.188   8.2017
  1.184   8.1885
  1.180   8.1924
  1.176   8.2225
  1.172   8.2731
  1.168   8.2134
  1.164   8.1682
  1.160   8.2133
  1.156   8.2232
  1.152   8.2217
  1.148   8.2393
  1.144   8.2266
  1.140   8.2079
  1.136   8.2226
  1.132   8.1788
  1.128   8.1577
  1.124   8.2151
  1.120   8.2381
  1.116   8.1961
  1.112   8.1859
  1.108   8.0951
  1.104   8.1748
  1.100   8.2067
  1.096   8.1892
  1.092   8.1631
  1.088   8.1599
  1.084   8.1365
  1.080   8.1813
  1.076   8.1599
  1.072   8.1428
  1.068   8.1000
  1.064   8.1663
  1.060   8.1647
  1.056   8.1670
  1.052   8.1570
  1.048   8.1283
  1.044   8.2129
  1.040   8.1986
  1.036   8.1531
  1.032   8.1279
  1.028   8.1733
  1.024   8.1386
  1.020   8.1805
  1.016   8.1500
  1.012   8.1390
  1.008   8.1493
  1.004   8.1634
  1.000   8.1448
  0.996   8.1567
  0.992   8.1443
  0.988   8.1567
  0.984   8.1469
  0.980   8.1746
  0.976   8.1659
  0.972   8.1591
  0.968   8.1781
  0.964   8.1359
  0.960   8.1667
  0.956   8.1304
  0.952   8.1850
  0.948   8.1543
  0.944   8.1342
  0.940   8.1210
  0.936   8.1347
  0.932   8.1715
  0.928   8.2571
  0.924   8.3138
  0.920   8.4073
  0.916   8.4783
  0.912   8.5069
  0.908   8.4565
  0.904   8.5789
  0.900   8.5533
  0.896   8.4436
  0.892   8.4909
  0.888   8.6180
  0.884   8.6650
  0.880   8.6560
  0.876   8.7070
  0.872   8.7292
  0.868   8.6013
  0.864   8.4166
  0.860   8.4607
  0.856   9.9359
  0.852  10.3171
  0.848   6.7025
  0.844   7.4060
  0.840   7.8267
  0.836   8.3182
  0.832   8.5862
  0.828   8.8202
  0.824   8.9274
  0.820   9.0296
  0.816   9.2400
  0.812   9.5395
  0.808   9.6065
  0.804   9.5383
  0.800   9.4086
  0.796   9.4652
  0.792   9.5083
  0.788   9.4685
  0.784   9.4961
  0.780   9.5287
  0.776   9.4749
  0.772   9.4811
  0.768   9.4903
  0.764   9.5434
  0.760   9.5318
  0.756   9.4930
  0.752   9.5167
  0.748   9.5303
  0.744   9.5245
  0.740   9.5235
  0.736   9.5371
  0.732   9.5325
  0.728   9.5313
  0.724   9.5076
  0.720   9.5087
  0.716   9.5194
  0.712   9.4994
  0.708   9.4937
  0.704   9.4926
  0.700   9.5263
  0.696   9.5347
  0.692   9.5628
  0.688   9.5849
  0.684   9.5493
  0.680   9.5421
  0.676   9.5370
  0.672   9.5358
  0.668   9.5669
  0.664   9.5726
  0.660   9.5734
  0.656   9.5812
  0.652   9.6190
  0.648   9.6123
  0.644   9.6070
  0.640   9.6197
  0.636   9.6242
  0.632   9.6414
  0.628   9.6466
  0.624   9.6518
  0.620   9.6552
  0.616   9.6744
  0.612   9.6850
  0.608   9.6785
  0.604   9.6740
  0.600   9.6855
  0.596   9.7205
  0.592   9.7288
  0.588   9.7293
  0.584   9.7417
  0.580   9.7516
  0.576   9.7577
  0.572   9.7712
  0.568   9.7830
  0.564   9.7908
  0.560   9.7601
  0.556   9.7254
  0.552   9.7537
  0.548   9.7305
  0.544   9.7306
  0.540   9.7416
  0.536   9.7164
  0.532   9.6856
  0.528   9.6377
  0.524   9.6092
  0.520   9.5851
  0.516   9.5401
  0.512   9.5094
  0.508   9.4806
  0.504   9.4554
  0.500   9.4268
  0.496   9.3861
  0.492   9.3434
  0.488   9.2808
  0.484   9.2160
  0.480   9.1337
  0.476   9.0644
  0.472   9.0580
  0.468   9.0659
  0.464   9.0590
  0.460   9.0676
  0.456   9.0510
  0.452   9.0126
  0.448   8.9661
  0.444   8.8888
  0.440   8.7785
  0.436   8.6954
  0.432   8.6256
  0.428   8.5585
  0.424   8.4868
  0.420   8.4332
  0.416   8.3724
  0.412   8.3201
  0.408   8.2695
  0.404   8.2466
  0.400   8.2292
