Name: Rhyolite
Type: Rock
Class: Igneous
Subclass: Felsic
Particle Size: Whole Rock Chips
Sample No.: AP-961-149
Owner: United States Geological Survey, L. C. Rowan
Wavelength range: 0.405 - 14.05 um
Origin: Iberian Pyrite Belt, Spain

Description: Rhyolite, slightly altered





Measurement: Directional Hemispherical Reflectance
First Column: X
Second Column: Y
X Units: Wavelength (micrometers)
Y Units: Reflectance (percent)
First X Value: 14.05105
Last X Value: 0.40500
Number of X Values: 2530
Additional Information: rhy149a.txt

 14.051   3.5741
 14.013   3.3990
 13.975   3.3578
 13.938   3.2857
 13.900   3.6462
 13.863   3.6771
 13.826   3.6565
 13.790   3.6050
 13.753   3.6462
 13.717   3.3166
 13.680   3.0797
 13.644   3.0179
 13.609   3.1930
 13.573   3.2239
 13.538   3.4402
 13.502   3.5432
 13.467   3.7801
 13.432   3.8831
 13.398   3.8213
 13.363   3.6256
 13.329   3.5741
 13.295   3.4505
 13.261   3.4608
 13.227   3.4505
 13.193   3.7492
 13.160   3.9552
 13.126   4.1509
 13.093   4.2024
 13.060   4.2642
 13.027   4.1509
 12.995   4.0273
 12.962   3.8831
 12.930   3.8625
 12.898   3.7904
 12.866   4.0273
 12.834   4.1715
 12.802   4.3981
 12.771   4.5011
 12.739   4.5011
 12.708   4.3260
 12.677   4.2127
 12.646   4.0170
 12.616   3.8625
 12.585   3.6256
 12.554   3.5432
 12.524   3.6153
 12.494   3.7698
 12.464   3.7492
 12.434   3.7492
 12.404   3.6050
 12.375   3.3887
 12.345   2.8943
 12.316   2.6265
 12.287   2.4720
 12.258   2.4514
 12.229   2.3690
 12.200   2.4514
 12.171   2.5647
 12.143   2.7089
 12.115   2.7398
 12.086   2.8531
 12.058   2.9252
 12.030   3.0385
 12.002   2.9767
 11.975   3.0591
 11.947   3.0797
 11.920   3.1930
 11.892   3.2239
 11.865   3.2960
 11.838   3.3681
 11.811   3.4505
 11.784   3.5020
 11.757   3.5947
 11.731   3.6256
 11.704   3.7389
 11.678   3.7595
 11.652   3.8625
 11.626   3.8110
 11.600   3.7904
 11.574   3.8316
 11.548   3.9552
 11.522   3.8934
 11.497   3.9449
 11.471   4.0170
 11.446   4.1097
 11.421   4.0685
 11.396   4.1818
 11.371   4.2745
 11.346   4.4187
 11.321   4.4084
 11.297   4.4393
 11.272   4.4702
 11.248   4.4702
 11.223   4.3775
 11.199   4.4393
 11.175   4.5217
 11.151   4.5835
 11.127   4.5114
 11.103   4.6144
 11.079   4.6350
 11.056   4.7380
 11.032   4.8822
 11.009   4.9440
 10.985   4.8925
 10.962   4.9955
 10.939   4.9749
 10.916   4.9852
 10.893   5.0367
 10.870   5.1088
 10.848   5.1706
 10.825   5.2221
 10.802   5.0985
 10.780   5.0676
 10.758   5.1294
 10.735   5.2736
 10.713   5.2530
 10.691   5.3766
 10.669   5.4281
 10.647   5.4796
 10.625   5.4899
 10.604   5.6032
 10.582   5.5620
 10.560   5.6238
 10.539   5.7577
 10.518   5.9019
 10.496   5.9431
 10.475   6.0255
 10.454   6.0667
 10.433   6.2315
 10.412   6.3448
 10.391   6.5096
 10.370   6.5714
 10.350   6.7053
 10.329   6.8701
 10.309   7.1173
 10.288   7.2203
 10.268   7.4366
 10.247   7.7250
 10.227   7.9928
 10.207   8.1988
 10.187   8.4460
 10.167   8.6417
 10.147   8.9919
 10.127   9.3524
 10.108   9.6511
 10.088   9.8674
 10.068  10.1146
 10.049  10.2382
 10.029  10.5163
 10.010  10.7429
  9.991  10.9592
  9.972  11.1755
  9.952  11.3918
  9.933  11.7626
  9.914  12.0613
  9.895  12.0098
  9.877  11.8862
  9.858  11.7111
  9.839  11.4948
  9.821  11.1034
  9.802  10.8150
  9.783  10.6811
  9.765  10.7326
  9.747  10.9283
  9.728  11.3609
  9.710  11.9480
  9.692  12.7205
  9.674  13.3591
  9.656  13.7711
  9.638  14.0389
  9.620  14.3479
  9.602  14.3685
  9.585  14.3479
  9.567  14.2346
  9.549  14.0080
  9.532  13.6269
  9.514  13.2046
  9.497  12.8544
  9.479  12.6278
  9.462  12.4630
  9.445  12.6072
  9.428  12.8441
  9.411  13.1531
  9.394  13.5033
  9.377  13.9771
  9.360  14.3170
  9.343  14.5539
  9.326  14.6981
  9.309  14.8526
  9.293  14.9659
  9.276  15.1101
  9.259  15.0689
  9.243  15.0586
  9.226  15.0792
  9.210  15.0689
  9.194  14.9453
  9.178  14.8217
  9.161  14.6363
  9.145  14.4612
  9.129  14.2037
  9.113  14.0492
  9.097  13.7299
  9.081  13.5033
  9.065  13.2767
  9.049  13.1943
  9.034  13.0707
  9.018  12.9986
  9.002  12.9162
  8.987  12.9574
  8.971  12.9677
  8.956  12.9986
  8.940  13.1531
  8.925  13.2458
  8.909  13.1943
  8.894  13.3694
  8.879  13.5651
  8.864  13.7093
  8.849  13.8123
  8.834  13.8844
  8.819  13.8535
  8.804  13.9565
  8.789  13.9668
  8.774  14.0080
  8.759  14.0492
  8.744  14.1522
  8.730  14.1522
  8.715  14.2037
  8.700  14.1831
  8.686  14.2037
  8.671  14.0595
  8.657  13.7299
  8.642  13.2458
  8.628  12.7205
  8.614  12.4321
  8.599  12.8441
  8.585  13.4312
  8.571  13.9977
  8.557  14.5024
  8.543  14.7702
  8.529  14.8011
  8.515  14.9659
  8.501  15.0792
  8.487  15.2852
  8.473  15.4912
  8.459  15.6766
  8.445  15.7693
  8.431  15.9238
  8.418  16.0783
  8.404  16.2328
  8.391  16.3049
  8.377  16.4594
  8.363  16.6242
  8.350  16.6654
  8.337  16.5418
  8.323  16.4388
  8.310  16.2946
  8.297  16.2225
  8.283  16.0783
  8.270  15.9856
  8.257  15.8929
  8.244  15.8208
  8.231  15.6457
  8.218  15.4191
  8.205  15.1822
  8.192  14.8835
  8.179  14.4200
  8.166  13.8844
  8.153  13.2664
  8.140  12.5660
  8.128  11.7420
  8.115  10.9489
  8.102  10.1661
  8.090   9.4760
  8.077   8.8168
  8.064   8.1988
  8.052   7.6117
  8.039   7.1070
  8.027   6.6126
  8.015   6.1903
  8.002   5.7783
  7.990   5.4384
  7.978   5.0676
  7.965   4.7689
  7.953   4.4187
  7.941   4.0685
  7.929   3.7183
  7.917   3.4711
  7.905   3.2136
  7.893   3.0591
  7.881   2.8531
  7.869   2.6986
  7.857   2.4926
  7.845   2.3690
  7.833   2.2454
  7.821   2.1424
  7.809   1.9879
  7.798   1.8540
  7.786   1.8437
  7.774   1.8849
  7.763   1.8128
  7.751   1.7922
  7.739   1.7510
  7.728   1.6686
  7.716   1.6068
  7.705   1.5862
  7.694   1.4935
  7.682   1.4626
  7.671   1.4214
  7.659   1.4523
  7.648   1.4111
  7.637   1.3390
  7.626   1.2772
  7.614   1.3081
  7.603   1.2463
  7.592   1.2051
  7.581   1.2051
  7.570   1.1948
  7.559   1.1639
  7.548   1.2360
  7.537   1.2051
  7.526   1.2257
  7.515   1.1639
  7.504   1.1433
  7.493   1.0815
  7.483   1.0712
  7.472   1.0815
  7.461   1.1433
  7.450   1.1330
  7.440   1.0609
  7.429   1.0197
  7.418   1.0609
  7.408   1.0403
  7.397   1.0609
  7.387   1.1227
  7.376   1.1227
  7.366   1.0609
  7.355   1.0712
  7.345   1.0403
  7.334   1.0712
  7.324   1.0815
  7.314   1.0300
  7.303   1.0094
  7.293   1.0403
  7.283   1.0300
  7.273   1.0815
  7.263   1.0815
  7.252   1.1433
  7.242   1.1639
  7.232   1.1330
  7.222   1.1742
  7.212   1.1742
  7.202   1.0712
  7.192   1.0712
  7.182   1.0815
  7.172   1.1227
  7.162   1.1124
  7.152   1.1330
  7.143   1.1536
  7.133   1.2360
  7.123   1.2772
  7.113   1.2875
  7.103   1.2360
  7.094   1.2463
  7.084   1.3184
  7.074   1.3596
  7.065   1.3184
  7.055   1.2669
  7.046   1.1948
  7.036   1.1845
  7.026   1.2566
  7.017   1.3493
  7.007   1.2875
  6.998   1.2875
  6.989   1.2772
  6.979   1.2772
  6.970   1.2875
  6.960   1.3596
  6.951   1.2978
  6.942   1.2875
  6.932   1.3596
  6.923   1.3699
  6.914   1.3287
  6.905   1.4111
  6.896   1.4008
  6.886   1.3493
  6.877   1.3390
  6.868   1.4111
  6.859   1.4111
  6.850   1.4523
  6.841   1.4420
  6.832   1.4111
  6.823   1.3699
  6.814   1.4008
  6.805   1.4008
  6.796   1.4317
  6.787   1.4214
  6.778   1.4214
  6.770   1.4523
  6.761   1.4626
  6.752   1.4420
  6.743   1.5038
  6.734   1.5244
  6.726   1.5038
  6.717   1.4111
  6.708   1.4317
  6.700   1.4832
  6.691   1.4935
  6.682   1.5038
  6.674   1.5759
  6.665   1.5965
  6.657   1.6068
  6.648   1.5862
  6.640   1.5553
  6.631   1.5244
  6.623   1.5244
  6.614   1.5347
  6.606   1.5965
  6.597   1.5965
  6.589   1.5965
  6.581   1.6068
  6.572   1.6377
  6.564   1.5965
  6.556   1.5656
  6.547   1.5656
  6.539   1.5759
  6.531   1.5450
  6.523   1.6068
  6.514   1.6377
  6.506   1.6480
  6.498   1.6789
  6.490   1.7201
  6.482   1.7098
  6.474   1.6892
  6.466   1.6995
  6.458   1.7613
  6.450   1.7819
  6.442   1.8025
  6.434   1.7716
  6.426   1.8025
  6.418   1.8128
  6.410   1.8540
  6.402   1.8746
  6.394   1.8643
  6.386   1.8334
  6.378   1.7819
  6.370   1.7407
  6.363   1.7613
  6.355   1.7716
  6.347   1.8128
  6.339   1.8025
  6.332   1.8025
  6.324   1.8231
  6.316   1.8334
  6.308   1.8437
  6.301   1.8128
  6.293   1.7407
  6.286   1.7304
  6.278   1.6892
  6.270   1.6377
  6.263   1.5965
  6.255   1.6583
  6.248   1.6480
  6.240   1.6377
  6.233   1.6480
  6.225   1.6583
  6.218   1.6583
  6.210   1.6789
  6.203   1.6480
  6.195   1.6274
  6.188   1.6171
  6.181   1.6686
  6.173   1.6892
  6.166   1.7098
  6.159   1.7098
  6.151   1.7304
  6.144   1.7201
  6.137   1.7304
  6.130   1.7613
  6.122   1.8128
  6.115   1.8128
  6.108   1.8231
  6.101   1.8849
  6.094   1.9364
  6.086   1.9261
  6.079   1.8849
  6.072   1.8540
  6.065   1.8437
  6.058   1.8643
  6.051   1.9261
  6.044   1.9261
  6.037   1.9261
  6.030   1.8952
  6.023   1.8849
  6.016   1.9261
  6.009   1.9364
  6.002   1.9467
  5.995   1.9364
  5.988   1.8952
  5.981   1.9055
  5.974   1.8952
  5.967   1.8952
  5.960   1.9055
  5.954   1.9364
  5.947   1.9570
  5.940   1.9673
  5.933   1.9158
  5.926   1.9055
  5.920   1.9467
  5.913   1.9570
  5.906   1.9261
  5.899   1.9879
  5.893   2.0703
  5.886   2.0600
  5.879   2.0394
  5.873   2.0909
  5.866   2.0806
  5.859   2.0909
  5.853   2.1115
  5.846   2.1218
  5.840   2.1836
  5.833   2.2557
  5.827   2.2145
  5.820   2.2145
  5.813   2.2454
  5.807   2.2351
  5.800   2.2145
  5.794   2.3072
  5.788   2.3278
  5.781   2.2969
  5.775   2.2969
  5.768   2.3072
  5.762   2.2557
  5.755   2.3175
  5.749   2.3381
  5.743   2.3072
  5.736   2.3381
  5.730   2.3793
  5.724   2.3896
  5.717   2.4102
  5.711   2.3690
  5.705   2.3484
  5.698   2.3381
  5.692   2.3793
  5.686   2.4514
  5.680   2.4617
  5.674   2.4308
  5.667   2.4411
  5.661   2.4308
  5.655   2.3999
  5.649   2.3587
  5.643   2.3793
  5.637   2.3896
  5.630   2.3587
  5.624   2.3484
  5.618   2.3381
  5.612   2.3175
  5.606   2.3175
  5.600   2.3484
  5.594   2.3999
  5.588   2.3896
  5.582   2.3278
  5.576   2.2660
  5.570   2.2969
  5.564   2.3175
  5.558   2.3484
  5.552   2.3690
  5.546   2.4205
  5.540   2.4617
  5.534   2.4308
  5.528   2.4308
  5.523   2.4823
  5.517   2.4926
  5.511   2.5235
  5.505   2.5441
  5.499   2.5647
  5.493   2.6162
  5.487   2.6471
  5.482   2.6574
  5.476   2.7192
  5.470   2.7604
  5.464   2.8016
  5.459   2.8119
  5.453   2.8325
  5.447   2.7913
  5.441   2.7810
  5.436   2.8119
  5.430   2.8222
  5.424   2.8222
  5.419   2.8222
  5.413   2.7913
  5.407   2.7501
  5.402   2.7501
  5.396   2.7604
  5.390   2.6986
  5.385   2.6368
  5.379   2.6368
  5.374   2.6780
  5.368   2.6574
  5.363   2.6574
  5.357   2.6471
  5.352   2.6162
  5.346   2.5853
  5.341   2.5544
  5.335   2.5441
  5.330   2.5956
  5.324   2.5956
  5.319   2.6162
  5.313   2.6368
  5.308   2.6986
  5.302   2.6677
  5.297   2.6574
  5.291   2.6780
  5.286   2.6471
  5.281   2.6574
  5.275   2.7089
  5.270   2.7295
  5.265   2.7707
  5.259   2.8428
  5.254   2.8634
  5.249   2.9252
  5.243   2.9767
  5.238   2.9767
  5.233   2.9870
  5.227   3.0591
  5.222   3.1106
  5.217   3.1312
  5.212   3.1312
  5.206   3.1930
  5.201   3.2857
  5.196   3.3269
  5.191   3.2651
  5.186   3.2445
  5.180   3.2857
  5.175   3.3578
  5.170   3.3681
  5.165   3.3475
  5.160   3.3681
  5.155   3.3475
  5.150   3.2960
  5.145   3.2754
  5.139   3.2960
  5.134   3.3578
  5.129   3.3784
  5.124   3.3887
  5.119   3.4299
  5.114   3.4299
  5.109   3.4299
  5.104   3.4505
  5.099   3.4711
  5.094   3.4917
  5.089   3.4711
  5.084   3.4402
  5.079   3.4402
  5.074   3.4505
  5.069   3.4196
  5.064   3.3887
  5.059   3.4093
  5.054   3.4505
  5.049   3.4814
  5.044   3.4711
  5.040   3.5123
  5.035   3.5020
  5.030   3.4402
  5.025   3.4505
  5.020   3.5123
  5.015   3.5329
  5.010   3.5226
  5.005   3.5329
  5.001   3.4917
  4.996   3.4814
  4.991   3.5432
  4.986   3.5432
  4.981   3.5844
  4.977   3.6874
  4.972   3.7492
  4.967   3.8625
  4.962   3.9655
  4.958   3.9655
  4.953   4.0170
  4.948   4.0994
  4.943   4.1612
  4.939   4.2127
  4.934   4.2642
  4.929   4.2436
  4.925   4.2642
  4.920   4.3363
  4.915   4.3878
  4.911   4.4805
  4.906   4.5629
  4.901   4.6144
  4.897   4.6453
  4.892   4.7483
  4.888   4.8822
  4.883   4.9955
  4.878   5.0882
  4.874   5.2427
  4.869   5.3663
  4.865   5.3972
  4.860   5.4075
  4.856   5.4693
  4.851   5.5929
  4.846   5.6959
  4.842   5.7783
  4.837   5.8710
  4.833   5.9019
  4.828   5.9637
  4.824   5.9740
  4.819   5.9843
  4.815   6.0049
  4.810   6.0358
  4.806   6.0152
  4.802   5.9843
  4.797   5.9843
  4.793   5.9431
  4.788   5.9431
  4.784   5.9534
  4.779   5.9431
  4.775   5.9431
  4.771   5.9431
  4.766   6.0049
  4.762   6.0667
  4.758   6.1388
  4.753   6.1903
  4.749   6.2315
  4.744   6.3345
  4.740   6.4272
  4.736   6.4272
  4.731   6.4375
  4.727   6.4581
  4.723   6.4581
  4.719   6.4890
  4.714   6.5611
  4.710   6.6126
  4.706   6.6847
  4.701   6.7362
  4.697   6.7568
  4.693   6.7671
  4.689   6.7053
  4.684   6.6950
  4.680   6.7568
  4.676   6.8289
  4.672   6.8392
  4.668   6.9010
  4.663   6.9834
  4.659   7.0349
  4.655   7.1070
  4.651   7.1482
  4.647   7.1791
  4.643   7.2512
  4.638   7.3130
  4.634   7.3542
  4.630   7.4675
  4.626   7.5705
  4.622   7.6838
  4.618   7.8177
  4.614   7.9001
  4.610   7.9516
  4.605   8.0649
  4.601   8.1267
  4.597   8.1370
  4.593   8.1679
  4.589   8.2194
  4.585   8.2297
  4.581   8.3018
  4.577   8.4048
  4.573   8.4460
  4.569   8.4048
  4.565   8.4666
  4.561   8.5593
  4.557   8.6005
  4.553   8.6108
  4.549   8.6520
  4.545   8.6623
  4.541   8.6623
  4.537   8.6726
  4.533   8.6520
  4.529   8.6829
  4.525   8.7344
  4.521   8.7344
  4.517   8.6829
  4.513   8.6829
  4.509   8.7241
  4.505   8.7035
  4.502   8.6108
  4.498   8.5490
  4.494   8.5696
  4.490   8.6108
  4.486   8.6211
  4.482   8.5902
  4.478   8.6211
  4.474   8.6211
  4.470   8.6314
  4.467   8.7138
  4.463   8.7859
  4.459   8.8271
  4.455   8.8683
  4.451   8.9919
  4.447   9.0640
  4.444   9.0331
  4.440   9.1567
  4.436   9.2700
  4.432   9.2700
  4.428   9.3215
  4.425   9.3524
  4.421   9.4039
  4.417   9.5069
  4.413   9.5481
  4.410   9.6202
  4.406   9.7232
  4.402   9.8571
  4.398   9.9292
  4.395  10.0322
  4.391  10.0940
  4.387  10.1455
  4.384  10.2485
  4.380  10.3309
  4.376  10.3824
  4.372  10.5060
  4.369  10.5987
  4.365  10.6605
  4.361  10.7738
  4.358  10.8562
  4.354  10.9592
  4.350  11.0416
  4.347  11.1034
  4.343  11.2064
  4.340  11.2682
  4.336  11.2579
  4.332  11.3300
  4.329  11.4124
  4.325  11.5051
  4.321  11.5772
  4.318  11.5978
  4.314  11.6390
  4.311  11.5978
  4.307  11.5978
  4.304  11.6802
  4.300  11.7523
  4.296  11.7523
  4.293  11.7420
  4.289  11.7729
  4.286  11.8347
  4.282  11.8965
  4.279  11.9377
  4.275  11.8553
  4.272  11.8553
  4.268  11.8965
  4.265  11.9274
  4.261  11.9274
  4.258  12.0304
  4.254  12.1643
  4.251  12.2570
  4.247  12.3909
  4.244  12.3909
  4.240  12.3291
  4.237  12.4321
  4.233  12.4733
  4.230  12.5351
  4.226  12.5454
  4.223  12.5763
  4.219  12.6484
  4.216  12.6587
  4.213  12.6175
  4.209  12.6690
  4.206  12.7514
  4.202  12.8441
  4.199  12.8441
  4.196  12.7514
  4.192  12.7926
  4.189  12.9162
  4.185  12.9368
  4.182  12.9162
  4.179  12.8853
  4.175  12.9265
  4.172  12.9368
  4.169  13.0089
  4.165  13.0913
  4.162  13.1428
  4.159  13.1634
  4.155  13.2149
  4.152  13.2149
  4.149  13.2252
  4.145  13.2767
  4.142  13.3076
  4.139  13.2973
  4.135  13.2973
  4.132  13.3282
  4.129  13.3694
  4.126  13.3591
  4.122  13.4003
  4.119  13.4312
  4.116  13.5239
  4.112  13.5651
  4.109  13.5239
  4.106  13.5136
  4.103  13.5239
  4.099  13.5342
  4.096  13.5754
  4.093  13.6784
  4.090  13.7814
  4.086  13.7402
  4.083  13.6887
  4.080  13.6681
  4.077  13.6990
  4.074  13.7299
  4.070  13.7196
  4.067  13.6990
  4.064  13.8020
  4.061  13.8226
  4.058  13.8226
  4.055  13.8123
  4.051  13.7711
  4.048  13.7608
  4.045  13.7917
  4.042  13.7196
  4.039  13.6784
  4.036  13.7299
  4.032  13.8020
  4.029  13.8329
  4.026  13.8226
  4.023  13.8226
  4.020  13.8432
  4.017  13.8123
  4.014  13.7402
  4.011  13.7196
  4.008  13.7711
  4.004  13.8020
  4.001  13.7814
  3.998  13.7608
  3.995  13.7505
  3.992  13.7814
  3.989  13.8123
  3.986  13.8329
  3.983  13.8432
  3.980  13.7711
  3.977  13.8020
  3.974  13.8432
  3.971  13.8123
  3.968  13.7917
  3.965  13.8226
  3.962  13.8432
  3.959  13.9050
  3.956  13.9565
  3.953  13.9977
  3.950  13.9565
  3.947  13.9050
  3.944  13.9153
  3.941  13.9359
  3.938  13.9874
  3.935  14.0698
  3.932  14.0080
  3.929  14.0286
  3.926  14.0904
  3.923  14.0904
  3.920  14.0904
  3.917  14.1213
  3.914  14.1316
  3.911  14.0904
  3.908  14.0904
  3.905  14.1007
  3.902  14.0904
  3.899  14.0595
  3.896  14.0389
  3.893  14.1110
  3.890  14.1316
  3.887  14.0904
  3.884  14.0801
  3.882  14.0801
  3.879  14.0492
  3.876  14.0286
  3.873  14.0183
  3.870  14.0389
  3.867  14.0183
  3.864  13.9977
  3.861  13.9668
  3.858  13.9977
  3.856  14.0080
  3.853  14.0492
  3.850  14.0080
  3.847  13.9874
  3.844  13.8741
  3.841  13.8123
  3.838  13.8329
  3.836  13.8638
  3.833  13.9462
  3.830  13.9874
  3.827  13.9256
  3.824  13.9050
  3.822  13.9153
  3.819  13.9668
  3.816  13.9668
  3.813  13.9771
  3.810  13.9359
  3.807  13.9359
  3.805  14.0080
  3.802  13.9977
  3.799  13.9256
  3.796  13.9977
  3.794  14.0286
  3.791  13.9153
  3.788  13.8432
  3.785  13.8535
  3.782  13.8741
  3.780  13.8741
  3.777  13.8741
  3.774  13.8329
  3.771  13.7093
  3.769  13.6887
  3.766  13.6578
  3.763  13.6475
  3.761  13.6681
  3.758  13.7505
  3.755  13.6990
  3.752  13.6372
  3.750  13.5445
  3.747  13.5754
  3.744  13.5754
  3.742  13.4930
  3.739  13.4415
  3.736  13.4930
  3.733  13.4518
  3.731  13.3900
  3.728  13.4930
  3.725  13.5239
  3.723  13.4724
  3.720  13.4724
  3.717  13.4518
  3.715  13.3900
  3.712  13.3282
  3.709  13.3385
  3.707  13.3179
  3.704  13.2870
  3.702  13.2355
  3.699  13.3179
  3.696  13.3179
  3.694  13.2046
  3.691  13.1531
  3.688  13.1943
  3.686  13.1943
  3.683  13.2870
  3.680  13.2046
  3.678  13.1119
  3.675  13.1325
  3.673  13.1943
  3.670  13.2149
  3.667  13.1119
  3.665  12.9986
  3.662  13.0913
  3.660  13.1531
  3.657  13.1119
  3.655  13.0604
  3.652  12.9677
  3.649  12.9162
  3.647  12.8853
  3.644  12.7720
  3.642  12.7823
  3.639  12.8441
  3.637  12.9368
  3.634  12.9574
  3.632  12.8853
  3.629  12.7720
  3.626  12.6896
  3.624  12.6278
  3.621  12.6072
  3.619  12.6175
  3.616  12.6690
  3.614  12.6278
  3.611  12.5660
  3.609  12.4527
  3.606  12.3703
  3.604  12.4012
  3.601  12.4321
  3.599  12.4321
  3.596  12.4218
  3.594  12.3188
  3.591  12.3497
  3.589  12.2879
  3.586  12.2055
  3.584  12.1025
  3.581  12.1231
  3.579  12.1746
  3.576  12.1643
  3.574  12.1025
  3.571  12.1231
  3.569  12.0716
  3.567  11.9789
  3.564  11.9686
  3.562  11.9995
  3.559  11.9171
  3.557  11.8862
  3.554  11.8347
  3.552  11.8347
  3.549  11.7729
  3.547  11.7626
  3.545  11.7420
  3.542  11.7626
  3.540  11.6699
  3.537  11.5978
  3.535  11.5669
  3.533  11.4948
  3.530  11.5154
  3.528  11.6081
  3.525  11.5360
  3.523  11.4227
  3.521  11.3403
  3.518  11.3300
  3.516  11.3300
  3.513  11.3609
  3.511  11.2270
  3.509  11.1755
  3.506  11.1240
  3.504  11.0725
  3.502  11.1446
  3.499  11.1961
  3.497  11.0519
  3.494  10.9592
  3.492  10.9180
  3.490  10.9283
  3.487  10.9901
  3.485  10.9489
  3.483  10.8047
  3.480  10.8974
  3.478  10.9592
  3.476  10.8562
  3.473  10.7635
  3.471  10.7532
  3.469  10.7429
  3.466  10.7120
  3.464  10.7120
  3.462  10.8459
  3.460  10.8047
  3.457  10.7635
  3.455  10.6811
  3.453  10.6193
  3.450  10.5678
  3.448  10.4957
  3.446  10.4236
  3.443  10.4236
  3.441  10.3618
  3.439  10.4339
  3.437  10.3618
  3.434  10.3206
  3.432  10.3824
  3.430  10.2794
  3.428  10.1558
  3.425  10.2279
  3.423  10.2485
  3.421  10.1352
  3.418   9.9498
  3.416   9.9086
  3.414   9.9189
  3.412   9.9086
  3.409   9.8468
  3.407   9.8777
  3.405   9.9498
  3.403  10.0322
  3.401   9.9704
  3.398   9.9292
  3.396   9.8777
  3.394   9.8056
  3.392   9.7850
  3.389   9.7747
  3.387   9.6923
  3.385   9.6511
  3.383   9.5996
  3.381   9.5996
  3.378   9.7026
  3.376   9.7335
  3.374   9.6202
  3.372   9.5172
  3.370   9.4554
  3.367   9.4966
  3.365   9.5275
  3.363   9.5172
  3.361   9.5275
  3.359   9.4554
  3.357   9.4348
  3.354   9.5790
  3.352   9.4760
  3.350   9.3524
  3.348   9.3524
  3.346   9.3215
  3.344   9.2906
  3.341   9.2700
  3.339   9.2185
  3.337   9.2288
  3.335   9.1979
  3.333   9.2700
  3.331   9.3009
  3.329   9.2082
  3.326   9.1464
  3.324   9.1464
  3.322   9.0640
  3.320   8.9507
  3.318   8.9095
  3.316   9.0125
  3.314   8.9713
  3.312   8.8580
  3.309   8.9198
  3.307   8.9507
  3.305   8.8477
  3.303   8.9198
  3.301   8.8477
  3.299   8.7653
  3.297   8.7756
  3.295   8.7962
  3.293   8.8271
  3.291   8.7962
  3.288   8.6211
  3.286   8.5593
  3.284   8.5902
  3.282   8.5902
  3.280   8.5490
  3.278   8.5284
  3.276   8.4872
  3.274   8.4563
  3.272   8.4460
  3.270   8.4769
  3.268   8.4975
  3.266   8.4151
  3.264   8.3121
  3.262   8.4048
  3.259   8.4048
  3.257   8.3842
  3.255   8.3739
  3.253   8.3327
  3.251   8.2606
  3.249   8.2915
  3.247   8.2915
  3.245   8.2606
  3.243   8.1164
  3.241   8.1267
  3.239   8.1370
  3.237   8.1267
  3.235   8.0855
  3.233   8.0958
  3.231   7.9104
  3.229   7.8898
  3.227   7.9310
  3.225   7.9207
  3.223   7.8177
  3.221   7.7868
  3.219   7.7971
  3.217   7.8383
  3.215   7.8486
  3.213   7.7662
  3.211   7.7971
  3.209   7.8280
  3.207   7.7868
  3.205   7.8280
  3.203   7.8074
  3.201   7.7765
  3.199   7.6941
  3.197   7.5911
  3.195   7.6220
  3.193   7.7456
  3.191   7.7147
  3.189   7.6426
  3.187   7.5705
  3.185   7.5087
  3.183   7.4572
  3.182   7.5293
  3.180   7.5190
  3.178   7.5602
  3.176   7.5293
  3.174   7.3645
  3.172   7.2306
  3.170   7.2924
  3.168   7.3336
  3.166   7.3336
  3.164   7.3748
  3.162   7.3748
  3.160   7.1997
  3.158   7.1070
  3.156   7.1482
  3.154   7.3336
  3.152   7.3645
  3.151   7.2409
  3.149   7.1173
  3.147   7.0967
  3.145   7.0658
  3.143   7.0452
  3.141   6.8907
  3.139   6.9731
  3.137   6.9628
  3.135   6.9628
  3.133   7.0555
  3.132   7.1379
  3.130   7.0555
  3.128   6.9628
  3.126   6.9422
  3.124   6.9525
  3.122   6.7362
  3.120   6.6435
  3.118   6.7053
  3.117   6.7671
  3.115   6.7877
  3.113   6.8186
  3.111   6.7980
  3.109   6.8186
  3.107   6.7671
  3.105   6.8907
  3.103   6.7774
  3.102   6.6847
  3.100   6.5714
  3.098   6.5817
  3.096   6.6538
  3.094   6.7671
  3.092   6.7671
  3.091   6.8392
  3.089   6.9319
  3.087   6.9010
  3.085   6.7053
  3.083   6.6641
  3.081   6.7156
  3.079   6.7774
  3.078   6.6229
  3.076   6.5920
  3.074   6.6023
  3.072   6.6538
  3.070   6.6126
  3.069   6.6023
  3.067   6.4581
  3.065   6.4066
  3.063   6.5302
  3.061   6.6950
  3.060   6.7362
  3.058   6.6538
  3.056   6.6229
  3.054   6.7465
  3.052   6.6332
  3.051   6.5508
  3.049   6.5817
  3.047   6.5817
  3.045   6.5302
  3.043   6.5817
  3.042   6.4890
  3.040   6.5199
  3.038   6.5920
  3.036   6.5817
  3.034   6.4993
  3.033   6.4993
  3.031   6.4169
  3.029   6.3757
  3.027   6.2830
  3.026   6.4066
  3.024   6.6229
  3.022   6.6538
  3.020   6.5199
  3.019   6.5714
  3.017   6.5817
  3.015   6.5199
  3.013   6.3860
  3.012   6.3757
  3.010   6.4581
  3.008   6.5714
  3.006   6.3345
  3.005   6.4066
  3.003   6.5199
  3.001   6.4787
  2.999   6.4684
  2.998   6.5096
  2.996   6.5611
  2.994   6.5302
  2.992   6.4993
  2.991   6.3448
  2.989   6.3036
  2.987   6.3345
  2.986   6.4478
  2.984   6.4581
  2.982   6.3551
  2.980   6.4478
  2.979   6.3860
  2.977   6.3448
  2.975   6.3963
  2.974   6.4993
  2.972   6.3036
  2.970   6.2212
  2.968   6.3654
  2.967   6.5199
  2.965   6.4993
  2.963   6.4478
  2.962   6.3654
  2.960   6.4581
  2.958   6.4272
  2.957   6.3757
  2.955   6.3036
  2.953   6.3860
  2.952   6.3860
  2.950   6.3757
  2.948   6.3139
  2.947   6.2521
  2.945   6.3654
  2.943   6.3757
  2.942   6.4169
  2.940   6.4478
  2.938   6.2212
  2.937   6.3963
  2.935   6.6332
  2.933   6.6332
  2.932   6.3242
  2.930   6.1903
  2.928   6.4272
  2.927   6.5405
  2.925   6.3963
  2.923   6.3860
  2.922   6.5611
  2.920   6.5199
  2.918   6.2315
  2.917   6.2315
  2.915   6.2521
  2.913   6.3963
  2.912   6.4684
  2.910   6.5508
  2.909   6.4684
  2.907   6.5508
  2.905   6.7465
  2.904   6.7568
  2.902   6.4375
  2.900   6.3757
  2.899   6.5714
  2.897   6.8495
  2.896   6.8289
  2.894   6.7671
  2.892   6.6847
  2.891   6.6641
  2.889   6.6641
  2.887   6.8495
  2.886   6.8186
  2.884   6.5817
  2.883   6.5714
  2.881   6.7053
  2.879   6.5817
  2.878   6.5405
  2.876   6.7671
  2.875   6.8083
  2.873   6.6126
  2.871   6.6950
  2.870   6.8701
  2.868   6.9113
  2.867   6.9010
  2.865   6.9113
  2.864   6.8392
  2.862   6.8701
  2.860   6.7877
  2.859   6.9628
  2.857   6.9628
  2.856   7.0349
  2.854   7.0040
  2.853   6.8598
  2.851   6.8598
  2.849   6.9525
  2.848   7.0349
  2.846   6.9319
  2.845   6.7671
  2.843   6.9216
  2.842   7.1791
  2.840   7.1379
  2.838   7.0246
  2.837   7.0143
  2.835   6.9731
  2.834   7.0349
  2.832   7.1173
  2.831   7.1276
  2.829   6.9628
  2.828   6.8804
  2.826   6.7980
  2.825   6.9731
  2.823   7.0040
  2.821   7.1688
  2.820   7.1585
  2.818   7.1173
  2.817   6.9834
  2.815   6.9731
  2.814   7.0967
  2.812   7.1894
  2.811   7.1997
  2.809   7.3439
  2.808   7.4366
  2.806   7.3439
  2.805   7.1791
  2.803   7.1791
  2.802   7.2512
  2.800   7.2924
  2.799   7.3542
  2.797   7.4263
  2.796   7.4881
  2.794   7.3233
  2.793   7.3336
  2.791   7.5293
  2.790   7.5396
  2.788   7.5087
  2.787   7.3542
  2.785   7.4572
  2.784   7.4984
  2.782   7.6632
  2.781   7.6323
  2.779   7.5808
  2.778   7.5087
  2.776   7.4469
  2.775   7.4778
  2.773   7.7353
  2.772   7.7662
  2.770   7.5396
  2.769   7.3130
  2.767   7.4160
  2.766   7.3336
  2.764   7.1688
  2.763   6.9010
  2.761   6.9113
  2.760   6.9010
  2.758   6.9628
  2.757   6.9113
  2.756   7.0246
  2.754   7.1791
  2.753   7.5190
  2.751   7.4984
  2.750   7.3542
  2.748   7.4984
  2.747   7.7765
  2.745   7.7147
  2.744   7.6117
  2.742   7.8280
  2.741   8.1164
  2.740   8.0649
  2.738   8.1885
  2.737   8.0649
  2.735   8.0237
  2.734   8.3018
  2.732   8.5799
  2.731   8.5902
  2.729   8.6417
  2.728   8.5284
  2.727   8.4975
  2.725   8.4769
  2.724   8.6726
  2.722   8.7447
  2.721   8.8374
  2.719   8.9507
  2.718   9.3421
  2.717   9.4142
  2.715   9.5172
  2.714   9.5069
  2.712   9.4039
  2.711   9.3112
  2.709   9.1464
  2.708   8.8683
  2.707   8.9404
  2.705   8.7756
  2.704   8.6314
  2.702   8.7653
  2.701   8.8374
  2.700   9.2906
  2.698  10.1661
  2.697  10.8768
  2.695  11.4021
  2.694  12.0098
  2.693  12.7411
  2.691  13.4724
  2.690  14.4818
  2.688  15.4397
  2.687  16.2019
  2.686  16.7787
  2.684  17.4997
  2.683  18.2207
  2.681  18.6121
  2.680  18.8593
  2.679  19.0035
  2.677  19.4361
  2.676  20.0438
  2.675  20.3837
  2.673  20.6206
  2.672  20.8472
  2.670  21.3107
  2.669  21.8360
  2.668  22.0626
  2.666  22.1141
  2.665  22.4231
  2.664  22.5364
  2.662  22.8969
  2.661  23.1544
  2.659  23.2059
  2.658  23.3810
  2.657  23.7621
  2.655  23.7827
  2.654  23.9578
  2.653  24.2153
  2.651  24.2462
  2.650  24.5140
  2.649  24.8848
  2.647  24.8951
  2.646  24.7303
  2.645  24.9775
  2.643  25.4410
  2.642  25.4925
  2.640  25.3689
  2.639  25.2453
  2.638  25.5852
  2.636  25.9354
  2.635  25.9972
  2.634  26.0075
  2.632  26.1826
  2.631  25.9354
  2.630  25.9766
  2.628  26.2444
  2.627  26.2753
  2.626  26.3474
  2.624  26.4916
  2.623  26.7388
  2.622  26.7697
  2.620  26.3268
  2.619  26.3783
  2.618  26.5843
  2.617  26.9448
  2.615  27.0478
  2.614  27.0993
  2.613  27.0066
  2.611  26.9654
  2.610  27.2847
  2.609  27.4804
  2.607  27.1920
  2.606  27.1096
  2.605  27.2641
  2.603  27.6452
  2.602  27.5525
  2.601  27.2229
  2.599  27.3362
  2.598  27.6761
  2.597  27.7791
  2.596  27.5010
  2.594  27.3671
  2.593  27.9233
  2.592  27.8821
  2.590  27.6040
  2.589  27.6246
  2.588  27.9027
  2.586  27.8100
  2.585  27.9748
  2.584  28.2632
  2.583  28.3353
  2.581  27.9336
  2.580  28.0572
  2.579  28.4177
  2.577  28.3250
  2.576  28.4589
  2.575  28.7576
  2.574  28.6134
  2.572  28.5001
  2.571  28.4177
  2.570  28.3765
  2.569  28.6546
  2.567  28.8606
  2.566  28.8297
  2.565  28.7679
  2.563  28.4589
  2.562  28.3559
  2.561  28.7679
  2.560  29.0151
  2.558  28.7061
  2.557  28.7679
  2.556  29.0666
  2.555  29.1284
  2.553  29.1696
  2.552  29.3756
  2.551  29.2726
  2.550  29.4374
  2.548  29.5610
  2.547  29.2211
  2.546  28.8709
  2.545  29.0048
  2.543  29.4889
  2.542  29.7876
  2.541  29.5816
  2.540  29.2623
  2.538  29.4992
  2.537  29.7361
  2.536  29.4065
  2.535  29.3962
  2.533  29.5610
  2.532  29.6743
  2.531  29.9318
  2.530  29.9421
  2.528  30.1584
  2.527  30.3129
  2.526  29.9833
  2.525  30.1481
  2.524  30.0245
  2.522  30.1584
  2.521  30.2923
  2.520  29.9112
  2.519  29.9009
  2.517  30.0863
  2.516  30.0348
  2.515  30.0657
  2.514  30.3747
  2.513  30.4056
  2.511  30.2099
  2.510  30.1893
  2.509  29.9627
  2.508  30.2408
  2.506  30.4880
  2.505  30.6219
  2.504  30.4056
  2.503  30.6425
  2.502  30.7558
  2.500  30.5189
  2.497  30.5189
  2.493  30.6189
  2.489  30.8189
  2.485  30.7189
  2.481  30.8189
  2.477  31.0189
  2.473  31.1189
  2.469  31.3189
  2.465  31.6189
  2.461  31.7189
  2.457  31.8189
  2.453  32.3189
  2.449  32.7189
  2.445  32.8189
  2.441  33.2189
  2.437  33.3189
  2.433  33.4189
  2.429  33.9189
  2.425  34.3189
  2.421  34.8189
  2.417  34.8189
  2.413  34.8189
  2.409  34.8189
  2.405  35.2189
  2.401  35.5189
  2.397  35.7189
  2.393  35.8189
  2.389  35.8189
  2.385  35.8189
  2.381  35.8189
  2.377  35.8189
  2.373  35.7189
  2.369  36.0189
  2.365  35.8189
  2.361  35.8189
  2.357  36.0189
  2.353  36.0189
  2.349  36.0189
  2.345  36.5189
  2.341  36.7189
  2.337  36.7189
  2.333  36.7189
  2.329  36.6189
  2.325  36.9189
  2.321  37.1189
  2.317  37.2189
  2.313  37.3189
  2.309  37.6189
  2.305  37.8189
  2.301  38.5189
  2.297  38.0189
  2.293  37.6189
  2.289  37.9189
  2.285  38.5189
  2.281  39.5189
  2.277  40.2189
  2.273  40.6189
  2.269  40.7189
  2.265  40.6189
  2.261  41.0189
  2.257  41.1189
  2.253  41.2189
  2.249  41.5189
  2.245  42.3189
  2.241  42.3189
  2.237  42.2189
  2.233  42.4189
  2.229  42.6189
  2.225  42.8189
  2.221  42.7189
  2.217  42.4189
  2.213  42.3189
  2.209  42.2189
  2.205  42.2189
  2.201  41.7189
  2.197  41.6189
  2.193  41.7189
  2.189  42.0189
  2.185  42.4189
  2.181  43.1189
  2.177  43.4189
  2.173  43.8189
  2.169  44.2189
  2.165  44.3189
  2.161  44.9189
  2.157  45.0189
  2.153  45.5189
  2.149  45.9189
  2.145  46.5189
  2.141  47.2189
  2.137  47.6189
  2.133  47.9189
  2.129  48.2189
  2.125  48.2189
  2.121  48.5189
  2.117  49.3189
  2.113  49.2189
  2.109  49.4189
  2.105  49.4189
  2.101  49.5189
  2.097  49.5189
  2.093  49.9189
  2.089  49.9189
  2.085  49.5189
  2.081  49.5189
  2.077  49.4189
  2.073  49.2189
  2.069  49.2189
  2.065  49.3189
  2.061  49.3189
  2.057  49.3189
  2.053  49.6189
  2.049  49.2189
  2.045  48.8189
  2.041  48.5189
  2.037  48.3189
  2.033  48.3189
  2.029  47.9189
  2.025  47.7189
  2.021  47.3189
  2.017  47.1189
  2.013  47.0189
  2.009  47.1189
  2.005  46.7189
  2.001  46.4189
  1.997  45.7189
  1.993  45.3189
  1.989  45.1189
  1.985  44.8189
  1.981  44.6189
  1.977  44.5189
  1.973  44.4189
  1.969  44.2189
  1.965  44.2189
  1.961  43.9189
  1.957  43.7189
  1.953  43.2189
  1.949  42.9189
  1.945  42.8189
  1.941  42.6189
  1.937  42.6189
  1.933  42.6189
  1.929  42.6189
  1.925  42.2189
  1.921  42.0189
  1.917  41.8189
  1.913  42.1189
  1.909  42.6189
  1.905  43.3189
  1.901  43.8189
  1.897  44.5189
  1.893  45.7189
  1.889  47.2189
  1.885  47.6189
  1.881  48.8189
  1.877  50.1189
  1.873  50.5189
  1.869  50.4189
  1.865  50.0189
  1.861  50.5189
  1.857  51.1189
  1.853  51.7189
  1.849  52.2189
  1.845  52.3189
  1.841  52.5189
  1.837  52.3189
  1.833  51.8189
  1.829  51.8189
  1.825  52.0189
  1.821  52.3189
  1.817  52.3189
  1.813  51.7189
  1.809  51.6189
  1.805  51.8189
  1.801  51.8189
  1.797  51.6189
  1.793  51.6189
  1.789  51.8189
  1.785  52.0189
  1.781  52.0189
  1.777  52.1189
  1.773  52.2189
  1.769  52.1189
  1.765  52.1189
  1.761  52.1189
  1.757  51.6189
  1.753  51.4189
  1.749  51.1189
  1.745  51.2189
  1.741  51.2189
  1.737  51.2189
  1.733  51.5189
  1.729  51.2189
  1.725  51.1189
  1.721  50.9189
  1.717  50.9189
  1.713  50.6189
  1.709  50.7189
  1.705  50.9189
  1.701  51.0189
  1.697  50.7189
  1.693  50.5189
  1.689  50.6189
  1.685  50.6189
  1.681  50.1189
  1.677  50.3189
  1.673  50.4189
  1.669  50.6189
  1.665  50.5189
  1.661  49.9189
  1.657  49.6189
  1.653  49.8189
  1.649  49.6189
  1.645  49.5189
  1.641  49.5189
  1.637  49.4189
  1.633  49.4189
  1.629  49.5189
  1.625  49.8189
  1.621  49.5189
  1.617  49.0189
  1.613  49.0189
  1.609  49.2189
  1.605  49.0189
  1.601  49.0189
  1.597  48.9189
  1.593  48.7189
  1.589  48.4189
  1.585  48.3189
  1.581  48.1189
  1.577  47.8189
  1.573  47.6189
  1.569  47.4189
  1.565  47.6189
  1.561  47.4189
  1.557  47.3189
  1.553  47.0189
  1.549  47.0189
  1.545  47.0189
  1.541  47.2189
  1.537  47.2189
  1.533  47.4189
  1.529  47.3189
  1.525  46.6189
  1.521  46.7189
  1.517  46.6189
  1.513  46.1189
  1.509  45.9189
  1.505  45.5189
  1.501  45.3189
  1.497  45.5189
  1.493  45.4189
  1.489  45.3189
  1.485  45.4189
  1.481  45.3189
  1.477  45.1189
  1.473  44.8189
  1.469  44.8189
  1.465  44.5189
  1.461  44.5189
  1.457  44.3189
  1.453  44.3189
  1.449  44.3189
  1.445  43.9189
  1.441  43.7189
  1.437  43.4189
  1.433  43.2189
  1.429  43.1189
  1.425  42.7189
  1.421  42.6189
  1.417  42.1189
  1.413  41.3189
  1.409  41.1189
  1.405  40.9189
  1.401  40.6189
  1.397  41.3189
  1.393  41.7189
  1.389  41.3189
  1.385  42.3189
  1.381  42.6189
  1.377  42.2189
  1.373  42.8189
  1.369  43.8189
  1.365  43.8189
  1.361  42.9189
  1.357  42.9189
  1.353  43.1189
  1.349  42.9189
  1.345  43.2189
  1.341  43.2189
  1.337  43.4189
  1.333  43.4189
  1.329  43.4189
  1.325  43.3189
  1.321  42.6189
  1.317  42.4189
  1.313  42.1189
  1.309  42.2189
  1.305  42.1189
  1.301  42.0189
  1.297  41.8189
  1.293  41.7189
  1.289  41.7189
  1.285  41.3189
  1.281  41.0189
  1.277  40.6189
  1.273  40.2189
  1.269  40.2189
  1.265  40.6189
  1.261  40.2189
  1.257  40.1189
  1.253  40.1189
  1.249  40.0189
  1.245  39.6189
  1.241  39.5189
  1.237  39.3189
  1.233  39.1189
  1.229  38.9189
  1.225  39.3189
  1.221  39.3189
  1.217  38.8189
  1.213  38.5189
  1.209  38.5189
  1.205  38.3189
  1.201  38.2189
  1.197  38.0189
  1.193  37.8189
  1.189  37.8189
  1.185  37.8189
  1.181  37.6189
  1.177  37.6189
  1.173  37.6189
  1.169  37.3189
  1.165  37.2189
  1.161  37.1189
  1.157  36.8189
  1.153  36.7189
  1.149  36.6189
  1.145  36.3189
  1.141  36.5189
  1.137  36.5189
  1.133  36.2189
  1.129  35.8189
  1.125  35.6189
  1.121  35.7189
  1.117  35.2189
  1.113  35.0189
  1.109  34.9189
  1.105  35.2189
  1.101  35.2189
  1.097  35.4189
  1.093  35.1189
  1.089  34.9189
  1.085  34.5189
  1.081  34.6189
  1.077  34.5189
  1.073  34.5189
  1.069  35.0189
  1.065  35.0189
  1.061  34.9189
  1.057  34.5189
  1.053  34.0189
  1.049  34.1189
  1.045  34.1189
  1.041  33.9189
  1.037  33.9189
  1.033  33.9189
  1.029  33.9189
  1.025  33.9189
  1.021  34.0189
  1.017  34.1189
  1.013  33.8189
  1.009  34.0189
  1.005  34.0189
  1.001  33.8189
  0.997  33.4189
  0.993  34.0189
  0.989  34.0189
  0.985  33.7189
  0.981  33.3189
  0.977  33.4189
  0.973  33.3189
  0.969  33.3189
  0.965  33.5189
  0.961  33.5189
  0.957  33.2189
  0.953  33.0189
  0.949  33.2189
  0.945  33.2189
  0.941  33.2189
  0.937  32.8189
  0.933  32.7189
  0.929  32.7189
  0.925  32.7189
  0.921  32.7189
  0.917  32.4189
  0.913  32.7189
  0.909  32.7189
  0.905  32.6189
  0.901  32.6189
  0.897  32.4189
  0.893  32.3189
  0.889  32.3189
  0.885  32.4189
  0.881  32.4189
  0.877  32.7189
  0.873  32.7189
  0.869  32.8189
  0.865  32.8189
  0.861  32.7189
  0.857  32.9189
  0.853  33.0189
  0.849  33.2189
  0.845  33.2189
  0.841  33.2189
  0.837  33.4189
  0.833  33.5189
  0.829  33.5189
  0.825  33.7189
  0.821  33.7189
  0.817  33.8189
  0.813  33.7189
  0.809  34.0189
  0.805  33.9189
  0.804  34.8189
  0.803  34.5189
  0.802  34.3189
  0.801  34.6189
  0.800  34.5189
  0.799  34.5189
  0.798  34.3189
  0.797  34.3189
  0.796  34.5189
  0.795  34.5189
  0.794  34.5189
  0.793  34.0189
  0.792  34.5189
  0.791  34.5189
  0.790  34.7189
  0.789  34.5189
  0.788  34.7189
  0.787  34.3189
  0.786  34.5189
  0.785  34.2189
  0.784  34.2189
  0.783  34.3189
  0.782  34.3189
  0.781  34.3189
  0.780  34.2189
  0.779  34.5189
  0.778  34.5189
  0.777  34.6189
  0.776  34.6189
  0.775  34.3189
  0.774  34.2189
  0.773  34.5189
  0.772  34.6189
  0.771  34.5189
  0.770  34.3189
  0.769  34.3189
  0.768  33.8189
  0.767  33.8189
  0.766  34.0189
  0.765  34.2189
  0.764  34.3189
  0.763  34.1189
  0.762  33.6189
  0.761  33.8189
  0.760  33.8189
  0.759  33.8189
  0.758  33.8189
  0.757  34.1189
  0.756  33.8189
  0.755  33.8189
  0.754  33.8189
  0.753  34.1189
  0.752  34.0189
  0.751  33.6189
  0.750  33.1189
  0.749  33.0189
  0.748  33.2189
  0.747  33.0189
  0.746  33.6189
  0.745  33.6189
  0.744  33.8189
  0.743  33.6189
  0.742  33.4189
  0.741  33.1189
  0.740  33.1189
  0.739  33.5189
  0.738  33.7189
  0.737  33.6189
  0.736  33.2189
  0.735  33.4189
  0.734  33.5189
  0.733  33.1189
  0.732  32.7189
  0.731  33.1189
  0.730  33.2189
  0.729  33.4189
  0.728  33.1189
  0.727  33.1189
  0.726  32.9189
  0.725  32.9189
  0.724  32.9189
  0.723  32.6189
  0.722  32.6189
  0.721  33.0189
  0.720  32.9189
  0.719  33.0189
  0.718  33.1189
  0.717  33.0189
  0.716  32.9189
  0.715  32.6189
  0.714  32.9189
  0.713  33.0189
  0.712  32.9189
  0.711  32.6189
  0.710  32.4189
  0.709  32.0189
  0.708  32.0189
  0.707  32.3189
  0.706  32.0189
  0.705  32.1189
  0.704  32.5189
  0.703  31.8189
  0.702  31.8189
  0.701  32.0189
  0.700  32.1189
  0.699  32.0189
  0.698  32.0189
  0.697  31.9189
  0.696  31.8189
  0.695  32.3189
  0.694  32.1189
  0.693  31.9189
  0.692  31.4189
  0.691  31.3189
  0.690  31.4189
  0.689  31.4189
  0.688  31.4189
  0.687  31.6189
  0.686  31.3189
  0.685  31.5189
  0.684  31.9189
  0.683  31.6189
  0.682  31.5189
  0.681  31.4189
  0.680  31.8189
  0.679  31.8189
  0.678  31.8189
  0.677  31.8189
  0.676  31.5189
  0.675  31.5189
  0.674  31.6189
  0.673  31.9189
  0.672  31.8189
  0.671  31.5189
  0.670  31.5189
  0.669  31.8189
  0.668  32.0189
  0.667  32.0189
  0.666  31.8189
  0.665  31.9189
  0.664  31.9189
  0.663  31.8189
  0.662  31.5189
  0.661  31.4189
  0.660  31.3189
  0.659  31.6189
  0.658  31.6189
  0.657  31.5189
  0.656  31.4189
  0.655  31.8189
  0.654  31.6189
  0.653  31.5189
  0.652  31.6189
  0.651  31.6189
  0.650  31.6189
  0.649  31.6189
  0.648  31.9189
  0.647  31.8189
  0.646  31.6189
  0.645  32.0189
  0.644  31.8189
  0.643  31.6189
  0.642  31.8189
  0.641  31.5189
  0.640  31.5189
  0.639  31.6189
  0.638  31.2189
  0.637  31.5189
  0.636  31.6189
  0.635  31.4189
  0.634  31.5189
  0.633  31.4189
  0.632  31.0189
  0.631  31.3189
  0.630  31.3189
  0.629  31.3189
  0.628  31.2189
  0.627  31.4189
  0.626  31.4189
  0.625  31.4189
  0.624  31.3189
  0.623  31.3189
  0.622  31.5189
  0.621  31.5189
  0.620  31.4189
  0.619  31.5189
  0.618  31.6189
  0.617  31.9189
  0.616  31.8189
  0.615  31.8189
  0.614  31.8189
  0.613  31.8189
  0.612  31.8189
  0.611  31.6189
  0.610  31.5189
  0.609  31.8189
  0.608  31.6189
  0.607  31.6189
  0.606  31.6189
  0.605  31.8189
  0.604  31.6189
  0.603  31.5189
  0.602  31.3189
  0.601  31.2189
  0.600  31.0189
  0.599  31.0189
  0.598  30.8189
  0.597  30.8189
  0.596  30.5189
  0.595  30.4189
  0.594  30.8189
  0.593  30.9189
  0.592  30.7189
  0.591  30.3189
  0.590  30.5189
  0.589  30.4189
  0.588  30.7189
  0.587  30.5189
  0.586  30.7189
  0.585  30.4189
  0.584  30.2189
  0.583  30.2189
  0.582  30.3189
  0.581  30.3189
  0.580  30.3189
  0.579  30.1189
  0.578  30.1189
  0.577  29.8189
  0.576  29.9189
  0.575  29.9189
  0.574  29.9189
  0.573  29.9189
  0.572  29.7189
  0.571  29.6189
  0.570  29.3189
  0.569  29.2189
  0.568  29.1189
  0.567  28.7189
  0.566  28.6189
  0.565  28.5189
  0.564  28.2189
  0.563  28.2189
  0.562  28.5189
  0.561  28.1189
  0.560  28.0189
  0.559  27.9189
  0.558  27.5189
  0.557  27.4189
  0.556  27.2189
  0.555  26.9189
  0.554  26.6189
  0.553  26.8189
  0.552  26.6189
  0.551  26.3189
  0.550  26.3189
  0.549  26.4189
  0.548  25.9189
  0.547  25.7189
  0.546  25.4189
  0.545  25.3189
  0.544  25.0189
  0.543  24.4189
  0.542  24.8189
  0.541  24.4189
  0.540  24.3189
  0.539  23.9189
  0.538  23.7189
  0.537  23.6189
  0.536  23.2189
  0.535  23.1189
  0.534  23.0189
  0.533  22.9189
  0.532  22.6189
  0.531  22.4189
  0.530  22.1189
  0.529  21.8189
  0.528  21.3189
  0.527  21.3189
  0.526  21.0189
  0.525  21.0189
  0.524  20.8189
  0.523  20.7189
  0.522  20.5189
  0.521  20.4189
  0.520  20.2189
  0.519  20.0189
  0.518  19.8189
  0.517  19.3189
  0.516  19.1189
  0.515  18.9189
  0.514  18.6189
  0.513  18.5189
  0.512  18.7189
  0.511  18.6189
  0.510  18.0189
  0.509  17.6189
  0.508  17.6189
  0.507  17.2189
  0.506  17.4189
  0.505  17.2189
  0.504  16.9189
  0.503  16.7189
  0.502  16.6189
  0.501  16.4189
  0.500  16.3189
  0.499  15.9189
  0.498  15.9189
  0.497  15.5189
  0.496  15.4189
  0.495  15.5189
  0.494  15.4189
  0.493  15.2189
  0.492  15.0189
  0.491  14.7189
  0.490  14.7189
  0.489  14.2189
  0.488  14.3189
  0.487  14.4189
  0.486  14.2189
  0.485  14.5189
  0.484  14.3189
  0.483  14.1189
  0.482  13.7189
  0.481  13.7189
  0.480  13.8189
  0.479  14.2189
  0.478  14.1189
  0.477  13.7189
  0.476  13.7189
  0.475  13.7189
  0.474  13.7189
  0.473  13.7189
  0.472  13.6189
  0.471  13.6189
  0.470  13.7189
  0.469  13.4189
  0.468  13.3189
  0.467  13.4189
  0.466  13.4189
  0.465  13.2189
  0.464  13.6189
  0.463  13.3189
  0.462  13.3189
  0.461  13.1189
  0.460  13.0189
  0.459  13.3189
  0.458  13.2189
  0.457  12.8189
  0.456  12.7189
  0.455  12.6189
  0.454  13.0189
  0.453  13.1189
  0.452  12.6189
  0.451  12.6189
  0.450  12.5189
  0.449  12.5189
  0.448  12.2189
  0.447  12.0189
  0.446  11.9189
  0.445  11.9189
  0.444  11.4189
  0.443  11.5189
  0.442  11.4189
  0.441  11.3189
  0.440  11.3189
  0.439  10.9189
  0.438  10.8189
  0.437  10.8189
  0.436  10.4189
  0.435  10.0189
  0.434   9.7189
  0.433   9.5189
  0.432   9.7189
  0.431   9.4189
  0.430   9.2189
  0.429   9.4189
  0.428   9.2189
  0.427   9.1189
  0.426   8.8189
  0.425   8.7189
  0.424   8.7189
  0.423   8.3189
  0.422   8.3189
  0.421   8.2189
  0.420   8.2189
  0.419   8.2189
  0.418   8.0189
  0.417   7.8189
  0.416   7.7189
  0.415   7.7189
  0.414   7.7189
  0.413   7.7189
  0.412   7.6189
  0.411   7.8189
  0.410   7.6189
  0.409   7.7189
  0.408   7.5189
  0.407   7.5189
  0.406   7.3189
  0.405   7.2189
