Name: Rhyolite
Type: Rock
Class: Igneous
Subclass: Felsic
Particle Size: Whole Rock Chips
Sample No.: AP-938-226
Owner: United States Geological Survey, L. C. Rowan
Wavelength range: 0.405 - 14.05 um
Origin: Iberian Pyrite Belt, Spain

Description: Rhyolite, medium grained unaltered volcanic





Measurement: Directional Hemispherical Reflectance
First Column: X
Second Column: Y
X Units: Wavelength (micrometers)
Y Units: Reflectance (percent)
First X Value: 14.05105
Last X Value: 0.40500
Number of X Values: 2530
Additional Information: rhy226a.txt

 14.051   3.5844
 14.013   3.8007
 13.975   3.9758
 13.938   3.7801
 13.900   3.9758
 13.863   4.1200
 13.826   4.2745
 13.790   4.2024
 13.753   4.1200
 13.717   3.9758
 13.680   4.0170
 13.644   3.9346
 13.609   3.9449
 13.573   3.9037
 13.538   3.9346
 13.502   3.9964
 13.467   4.2642
 13.432   4.2745
 13.398   4.2951
 13.363   4.2642
 13.329   4.2127
 13.295   4.1200
 13.261   4.2333
 13.227   4.2127
 13.193   4.4187
 13.160   4.5938
 13.126   4.7689
 13.093   4.8204
 13.060   4.9955
 13.027   4.9955
 12.995   5.0264
 12.962   5.0161
 12.930   5.0779
 12.898   5.1603
 12.866   5.5311
 12.834   5.9534
 12.802   6.3242
 12.771   6.4169
 12.739   6.3757
 12.708   6.0255
 12.677   5.5826
 12.646   5.0779
 12.616   4.8616
 12.585   4.7380
 12.554   4.8513
 12.524   5.1294
 12.494   5.4384
 12.464   5.4693
 12.434   5.4281
 12.404   5.0161
 12.375   4.2745
 12.345   3.3887
 12.316   2.8325
 12.287   2.4720
 12.258   2.3278
 12.229   2.2351
 12.200   2.3381
 12.171   2.4205
 12.143   2.5853
 12.115   2.7192
 12.086   2.9355
 12.058   2.9458
 12.030   3.0076
 12.002   3.0282
 11.975   3.1106
 11.947   3.1415
 11.920   3.2342
 11.892   3.3166
 11.865   3.5226
 11.838   3.5535
 11.811   3.6050
 11.784   3.5741
 11.757   3.6668
 11.731   3.7595
 11.704   3.8625
 11.678   3.8522
 11.652   3.9449
 11.626   3.9655
 11.600   4.0170
 11.574   4.0788
 11.548   4.1715
 11.522   4.1612
 11.497   4.2436
 11.471   4.2642
 11.446   4.2745
 11.421   4.2848
 11.396   4.4187
 11.371   4.4393
 11.346   4.5526
 11.321   4.6144
 11.297   4.6968
 11.272   4.7689
 11.248   4.8719
 11.223   4.7792
 11.199   4.8513
 11.175   4.9234
 11.151   4.9234
 11.127   4.9131
 11.103   4.9543
 11.079   4.9852
 11.056   5.1191
 11.032   5.1294
 11.009   5.2530
 10.985   5.3251
 10.962   5.3354
 10.939   5.2942
 10.916   5.4075
 10.893   5.4590
 10.870   5.5517
 10.848   5.5723
 10.825   5.6547
 10.802   5.7680
 10.780   5.8813
 10.758   5.9019
 10.735   6.0461
 10.713   6.0461
 10.691   6.1388
 10.669   6.2418
 10.647   6.3654
 10.625   6.4478
 10.604   6.5508
 10.582   6.5508
 10.560   6.6641
 10.539   6.8083
 10.518   6.9834
 10.496   7.0658
 10.475   7.2409
 10.454   7.3748
 10.433   7.5499
 10.412   7.6426
 10.391   7.8280
 10.370   7.9516
 10.350   8.0752
 10.329   8.2709
 10.309   8.4975
 10.288   8.6932
 10.268   8.9816
 10.247   9.1052
 10.227   9.3524
 10.207   9.5893
 10.187   9.8880
 10.167  10.1455
 10.147  10.4236
 10.127  10.6708
 10.108  10.9386
 10.088  11.0931
 10.068  11.2991
 10.049  11.5360
 10.029  11.8450
 10.010  12.0716
  9.991  12.3497
  9.972  12.5042
  9.952  12.6690
  9.933  12.8338
  9.914  12.9780
  9.895  13.0707
  9.877  13.2149
  9.858  13.1840
  9.839  13.1325
  9.821  13.0913
  9.802  13.0810
  9.783  13.1428
  9.765  13.3488
  9.747  13.4312
  9.728  13.6166
  9.710  14.0492
  9.692  14.5127
  9.674  14.8114
  9.656  15.2543
  9.638  15.5633
  9.620  15.8723
  9.602  15.9032
  9.585  15.8929
  9.567  15.8208
  9.549  15.8002
  9.532  15.7487
  9.514  15.7487
  9.497  15.8105
  9.479  15.8826
  9.462  15.9238
  9.445  16.1504
  9.428  16.4697
  9.411  16.9229
  9.394  17.3761
  9.377  17.9941
  9.360  18.5709
  9.343  19.1271
  9.326  19.6318
  9.309  19.9820
  9.293  20.1262
  9.276  20.4043
  9.259  20.4970
  9.243  20.4867
  9.226  20.4249
  9.210  20.4867
  9.194  20.5073
  9.178  20.4970
  9.161  20.4352
  9.145  20.3528
  9.129  20.1880
  9.113  20.0438
  9.097  19.9202
  9.081  19.8275
  9.065  19.6421
  9.049  19.5700
  9.034  19.4258
  9.018  19.3125
  9.002  19.2404
  8.987  19.2507
  8.971  19.2301
  8.956  19.2610
  8.940  19.3228
  8.925  19.3434
  8.909  19.2301
  8.894  19.2816
  8.879  19.3331
  8.864  19.3640
  8.849  19.3228
  8.834  19.3846
  8.819  19.4361
  8.804  19.4361
  8.789  19.3640
  8.774  19.3537
  8.759  19.2816
  8.744  19.2610
  8.730  19.1786
  8.715  19.1065
  8.700  19.0138
  8.686  18.7769
  8.671  18.3443
  8.657  17.7366
  8.642  16.9126
  8.628  16.1298
  8.614  15.8105
  8.599  16.4903
  8.585  17.5718
  8.571  18.5194
  8.557  19.1271
  8.543  19.4979
  8.529  19.7348
  8.515  19.9923
  8.501  20.1365
  8.487  20.2292
  8.473  20.2601
  8.459  20.3116
  8.445  20.3013
  8.431  20.3219
  8.418  20.3219
  8.404  20.2601
  8.391  20.2395
  8.377  20.2601
  8.363  20.1468
  8.350  20.0335
  8.337  19.8687
  8.323  19.7451
  8.310  19.5906
  8.297  19.5494
  8.283  19.4361
  8.270  19.3331
  8.257  19.1889
  8.244  19.0962
  8.231  19.0138
  8.218  18.8696
  8.205  18.5297
  8.192  18.2104
  8.179  17.6954
  8.166  16.9847
  8.153  16.1401
  8.140  15.2234
  8.128  14.1213
  8.115  13.0089
  8.102  11.9789
  8.090  11.0725
  8.077  10.1764
  8.064   9.2803
  8.052   8.5078
  8.039   7.9001
  8.027   7.2924
  8.015   6.8186
  8.002   6.3139
  7.990   5.8401
  7.978   5.4178
  7.965   5.0161
  7.953   4.6247
  7.941   4.3260
  7.929   3.9861
  7.917   3.6256
  7.905   3.3269
  7.893   3.2136
  7.881   2.9870
  7.869   2.7604
  7.857   2.5544
  7.845   2.3690
  7.833   2.2042
  7.821   2.1630
  7.809   2.0600
  7.798   1.9673
  7.786   1.8540
  7.774   1.8643
  7.763   1.7819
  7.751   1.6892
  7.739   1.6171
  7.728   1.5862
  7.716   1.5347
  7.705   1.5450
  7.694   1.4935
  7.682   1.4420
  7.671   1.3596
  7.659   1.3287
  7.648   1.2566
  7.637   1.2360
  7.626   1.1948
  7.614   1.1845
  7.603   1.1124
  7.592   1.0609
  7.581   1.0712
  7.570   1.1227
  7.559   1.0712
  7.548   1.0506
  7.537   1.0094
  7.526   0.9888
  7.515   0.9991
  7.504   1.0197
  7.493   0.9785
  7.483   0.9064
  7.472   0.8755
  7.461   0.9373
  7.450   0.9167
  7.440   0.9373
  7.429   0.9064
  7.418   0.8446
  7.408   0.7931
  7.397   0.8549
  7.387   0.8446
  7.376   0.8755
  7.366   0.8343
  7.355   0.8137
  7.345   0.7828
  7.334   0.8240
  7.324   0.8549
  7.314   0.8652
  7.303   0.8858
  7.293   0.9064
  7.283   0.8549
  7.273   0.8652
  7.263   0.8034
  7.252   0.8446
  7.242   0.8549
  7.232   0.8652
  7.222   0.9064
  7.212   0.9682
  7.202   0.9682
  7.192   0.9682
  7.182   0.9888
  7.172   0.9579
  7.162   0.8961
  7.152   0.8755
  7.143   0.8858
  7.133   0.9579
  7.123   1.0094
  7.113   1.0197
  7.103   0.9373
  7.094   0.9270
  7.084   0.9167
  7.074   0.9476
  7.065   0.9991
  7.055   0.9888
  7.046   0.9579
  7.036   0.9888
  7.026   0.9888
  7.017   0.9785
  7.007   0.9579
  6.998   1.0197
  6.989   1.0300
  6.979   1.0815
  6.970   1.0197
  6.960   1.0403
  6.951   1.0815
  6.942   1.0712
  6.932   0.9991
  6.923   1.0403
  6.914   1.0609
  6.905   1.0815
  6.896   1.0506
  6.886   1.0403
  6.877   1.0609
  6.868   1.0918
  6.859   1.0506
  6.850   1.0506
  6.841   1.0197
  6.832   1.0506
  6.823   1.1124
  6.814   1.1330
  6.805   1.0918
  6.796   1.1433
  6.787   1.1227
  6.778   1.0918
  6.770   1.0712
  6.761   1.0815
  6.752   1.0815
  6.743   1.1124
  6.734   1.1330
  6.726   1.1536
  6.717   1.1433
  6.708   1.1433
  6.700   1.1433
  6.691   1.2051
  6.682   1.2154
  6.674   1.1948
  6.665   1.1948
  6.657   1.2257
  6.648   1.2154
  6.640   1.2463
  6.631   1.2051
  6.623   1.1948
  6.614   1.2051
  6.606   1.2463
  6.597   1.2051
  6.589   1.1948
  6.581   1.2257
  6.572   1.3184
  6.564   1.3184
  6.556   1.2566
  6.547   1.1639
  6.539   1.1948
  6.531   1.2669
  6.523   1.2978
  6.514   1.3184
  6.506   1.2978
  6.498   1.2875
  6.490   1.3596
  6.482   1.3699
  6.474   1.3596
  6.466   1.2978
  6.458   1.2978
  6.450   1.2978
  6.442   1.3184
  6.434   1.3184
  6.426   1.3596
  6.418   1.3699
  6.410   1.3699
  6.402   1.3493
  6.394   1.3596
  6.386   1.3493
  6.378   1.3493
  6.370   1.2978
  6.363   1.2772
  6.355   1.2978
  6.347   1.3184
  6.339   1.3184
  6.332   1.3390
  6.324   1.3493
  6.316   1.4008
  6.308   1.3596
  6.301   1.3081
  6.293   1.3184
  6.286   1.4214
  6.278   1.4111
  6.270   1.3596
  6.263   1.3493
  6.255   1.3287
  6.248   1.2978
  6.240   1.4008
  6.233   1.4626
  6.225   1.4008
  6.218   1.3287
  6.210   1.3802
  6.203   1.4317
  6.195   1.3699
  6.188   1.2669
  6.181   1.3493
  6.173   1.4008
  6.166   1.3802
  6.159   1.3905
  6.151   1.4317
  6.144   1.4626
  6.137   1.4626
  6.130   1.4420
  6.122   1.4626
  6.115   1.4420
  6.108   1.4523
  6.101   1.4523
  6.094   1.4832
  6.086   1.4729
  6.079   1.5038
  6.072   1.5141
  6.065   1.5244
  6.058   1.5347
  6.051   1.5347
  6.044   1.4729
  6.037   1.5038
  6.030   1.5038
  6.023   1.5038
  6.016   1.5244
  6.009   1.5450
  6.002   1.5553
  5.995   1.5450
  5.988   1.5244
  5.981   1.4935
  5.974   1.4420
  5.967   1.4317
  5.960   1.5038
  5.954   1.5244
  5.947   1.5141
  5.940   1.5450
  5.933   1.5553
  5.926   1.5553
  5.920   1.5450
  5.913   1.5347
  5.906   1.5141
  5.899   1.5450
  5.893   1.5759
  5.886   1.5965
  5.879   1.5965
  5.873   1.5862
  5.866   1.5553
  5.859   1.5347
  5.853   1.5965
  5.846   1.6377
  5.840   1.5759
  5.833   1.5759
  5.827   1.6480
  5.820   1.6789
  5.813   1.6892
  5.807   1.7716
  5.800   1.7510
  5.794   1.6995
  5.788   1.6892
  5.781   1.6892
  5.775   1.7098
  5.768   1.7613
  5.762   1.7922
  5.755   1.7510
  5.749   1.7304
  5.743   1.7613
  5.736   1.7510
  5.730   1.7716
  5.724   1.8025
  5.717   1.8128
  5.711   1.7716
  5.705   1.7716
  5.698   1.8128
  5.692   1.8540
  5.686   1.8437
  5.680   1.8128
  5.674   1.8231
  5.667   1.8334
  5.661   1.7922
  5.655   1.7819
  5.649   1.7510
  5.643   1.7922
  5.637   1.8231
  5.630   1.8128
  5.624   1.8437
  5.618   1.8128
  5.612   1.7613
  5.606   1.7716
  5.600   1.7716
  5.594   1.7613
  5.588   1.7716
  5.582   1.7819
  5.576   1.7716
  5.570   1.7716
  5.564   1.7819
  5.558   1.8128
  5.552   1.7922
  5.546   1.7922
  5.540   1.8437
  5.534   1.8746
  5.528   1.8334
  5.523   1.8128
  5.517   1.8437
  5.511   1.8643
  5.505   1.8849
  5.499   1.9364
  5.493   1.9261
  5.487   1.9055
  5.482   1.9055
  5.476   1.9364
  5.470   1.9673
  5.464   1.9879
  5.459   1.9673
  5.453   1.9570
  5.447   1.9673
  5.441   1.9982
  5.436   1.9879
  5.430   2.0085
  5.424   1.9982
  5.419   1.9982
  5.413   1.9879
  5.407   1.9982
  5.402   1.9776
  5.396   1.9364
  5.390   1.9364
  5.385   1.9673
  5.379   1.9673
  5.374   1.9158
  5.368   1.8952
  5.363   1.9158
  5.357   1.9158
  5.352   1.9055
  5.346   1.8643
  5.341   1.8952
  5.335   1.9570
  5.330   1.9982
  5.324   1.9467
  5.319   1.9261
  5.313   1.9570
  5.308   1.9467
  5.302   1.8849
  5.297   1.8746
  5.291   1.8952
  5.286   1.9158
  5.281   1.9467
  5.275   1.9776
  5.270   1.9879
  5.265   2.0291
  5.259   2.0394
  5.254   2.0291
  5.249   2.0188
  5.243   2.0497
  5.238   2.1218
  5.233   2.1115
  5.227   2.0394
  5.222   2.0394
  5.217   2.0600
  5.212   2.1527
  5.206   2.2351
  5.201   2.2248
  5.196   2.2145
  5.191   2.2454
  5.186   2.2351
  5.180   2.2145
  5.175   2.1939
  5.170   2.1939
  5.165   2.1733
  5.160   2.1836
  5.155   2.2042
  5.150   2.2042
  5.145   2.2145
  5.139   2.2042
  5.134   2.2557
  5.129   2.2866
  5.124   2.2660
  5.119   2.2248
  5.114   2.2557
  5.109   2.2969
  5.104   2.2557
  5.099   2.2660
  5.094   2.3072
  5.089   2.2660
  5.084   2.2557
  5.079   2.2763
  5.074   2.2660
  5.069   2.2454
  5.064   2.2969
  5.059   2.3072
  5.054   2.2660
  5.049   2.3175
  5.044   2.3278
  5.040   2.3175
  5.035   2.3175
  5.030   2.2866
  5.025   2.2660
  5.020   2.2763
  5.015   2.2660
  5.010   2.2351
  5.005   2.2351
  5.001   2.2557
  4.996   2.2866
  4.991   2.3381
  4.986   2.3484
  4.981   2.3278
  4.977   2.3690
  4.972   2.3793
  4.967   2.3896
  4.962   2.4205
  4.958   2.4102
  4.953   2.4411
  4.948   2.4617
  4.943   2.5235
  4.939   2.5235
  4.934   2.4926
  4.929   2.5029
  4.925   2.4823
  4.920   2.5441
  4.915   2.6471
  4.911   2.6368
  4.906   2.6368
  4.901   2.6780
  4.897   2.6986
  4.892   2.6780
  4.888   2.6986
  4.883   2.8119
  4.878   2.8531
  4.874   2.8222
  4.869   2.8634
  4.865   2.9252
  4.860   2.9355
  4.856   2.9252
  4.851   2.9252
  4.846   2.9973
  4.842   3.0900
  4.837   3.0591
  4.833   3.0694
  4.828   3.1106
  4.824   3.1312
  4.819   3.1003
  4.815   3.1312
  4.810   3.1621
  4.806   3.1827
  4.802   3.2033
  4.797   3.1724
  4.793   3.1724
  4.788   3.1930
  4.784   3.1930
  4.779   3.2033
  4.775   3.2239
  4.771   3.2548
  4.766   3.2239
  4.762   3.2651
  4.758   3.2754
  4.753   3.2548
  4.749   3.2548
  4.744   3.2857
  4.740   3.3372
  4.736   3.3475
  4.731   3.3578
  4.727   3.3784
  4.723   3.3578
  4.719   3.3887
  4.714   3.4196
  4.710   3.4299
  4.706   3.4402
  4.701   3.4505
  4.697   3.3990
  4.693   3.3578
  4.689   3.3784
  4.684   3.4093
  4.680   3.4608
  4.676   3.4196
  4.672   3.3990
  4.668   3.4917
  4.663   3.5123
  4.659   3.5020
  4.655   3.5432
  4.651   3.5844
  4.647   3.6153
  4.643   3.5947
  4.638   3.6050
  4.634   3.6359
  4.630   3.7389
  4.626   3.7801
  4.622   3.7801
  4.618   3.8007
  4.614   3.8316
  4.610   3.8316
  4.605   3.8316
  4.601   3.8419
  4.597   3.8728
  4.593   3.9655
  4.589   4.0994
  4.585   4.1303
  4.581   4.0788
  4.577   4.0685
  4.573   4.1303
  4.569   4.1406
  4.565   4.1818
  4.561   4.1406
  4.557   4.1097
  4.553   4.1509
  4.549   4.1715
  4.545   4.1818
  4.541   4.2230
  4.537   4.2333
  4.533   4.2333
  4.529   4.2024
  4.525   4.1818
  4.521   4.1406
  4.517   4.1406
  4.513   4.1715
  4.509   4.1921
  4.505   4.2024
  4.502   4.1921
  4.498   4.1200
  4.494   4.0891
  4.490   4.0891
  4.486   4.0582
  4.482   4.0891
  4.478   4.1818
  4.474   4.1715
  4.470   4.1406
  4.467   4.1612
  4.463   4.1406
  4.459   4.1406
  4.455   4.2127
  4.451   4.2951
  4.447   4.3569
  4.444   4.3775
  4.440   4.3466
  4.436   4.3363
  4.432   4.3775
  4.428   4.4805
  4.425   4.5423
  4.421   4.5011
  4.417   4.5114
  4.413   4.5217
  4.410   4.5732
  4.406   4.6659
  4.402   4.7277
  4.398   4.7586
  4.395   4.8513
  4.391   4.9543
  4.387   5.0367
  4.384   5.0985
  4.380   5.1397
  4.376   5.1397
  4.372   5.2118
  4.369   5.2530
  4.365   5.3148
  4.361   5.4281
  4.358   5.5105
  4.354   5.5311
  4.350   5.5105
  4.347   5.5620
  4.343   5.6444
  4.340   5.6856
  4.336   5.6547
  4.332   5.7474
  4.329   5.8916
  4.325   5.8916
  4.321   5.8916
  4.318   5.8710
  4.314   5.8916
  4.311   5.9328
  4.307   5.9740
  4.304   5.9637
  4.300   5.9431
  4.296   5.9740
  4.293   6.0873
  4.289   6.0873
  4.286   6.0976
  4.282   6.0564
  4.279   6.1079
  4.275   6.2006
  4.272   6.2006
  4.268   6.2006
  4.265   6.3139
  4.261   6.3654
  4.258   6.4066
  4.254   6.4581
  4.251   6.4787
  4.247   6.4478
  4.244   6.5096
  4.240   6.5817
  4.237   6.5405
  4.233   6.5096
  4.230   6.5302
  4.226   6.5508
  4.223   6.6332
  4.219   6.7156
  4.216   6.7156
  4.213   6.7362
  4.209   6.7980
  4.206   6.8083
  4.202   6.8186
  4.199   6.8392
  4.196   6.8289
  4.192   6.7877
  4.189   6.8392
  4.185   6.8186
  4.182   6.8289
  4.179   6.9113
  4.175   6.9628
  4.172   7.0040
  4.169   7.0040
  4.165   7.0143
  4.162   7.0761
  4.159   7.1482
  4.155   7.2409
  4.152   7.2512
  4.149   7.2306
  4.145   7.2718
  4.142   7.3233
  4.139   7.2924
  4.135   7.3130
  4.132   7.3954
  4.129   7.4469
  4.126   7.3748
  4.122   7.3645
  4.119   7.4675
  4.116   7.5293
  4.112   7.5499
  4.109   7.6014
  4.106   7.6426
  4.103   7.6632
  4.099   7.6941
  4.096   7.7662
  4.093   7.7456
  4.090   7.7662
  4.086   7.8692
  4.083   7.9516
  4.080   7.9104
  4.077   7.9310
  4.074   7.9825
  4.070   8.0134
  4.067   7.9619
  4.064   7.9001
  4.061   7.8795
  4.058   7.9207
  4.055   7.9207
  4.051   8.0134
  4.048   8.0546
  4.045   8.0237
  4.042   8.0443
  4.039   8.0237
  4.036   7.9001
  4.032   7.9516
  4.029   7.9928
  4.026   8.0237
  4.023   8.0649
  4.020   8.0134
  4.017   7.9722
  4.014   7.9310
  4.011   7.8898
  4.008   7.9413
  4.004   7.9619
  4.001   8.0340
  3.998   8.1061
  3.995   8.1061
  3.992   8.0443
  3.989   8.0340
  3.986   8.0752
  3.983   8.1782
  3.980   8.2503
  3.977   8.2297
  3.974   8.1473
  3.971   8.2091
  3.968   8.2606
  3.965   8.3327
  3.962   8.3636
  3.959   8.2915
  3.956   8.2400
  3.953   8.3224
  3.950   8.4460
  3.947   8.5387
  3.944   8.4975
  3.941   8.4769
  3.938   8.4872
  3.935   8.5387
  3.932   8.5387
  3.929   8.4872
  3.926   8.4872
  3.923   8.5284
  3.920   8.5799
  3.917   8.6623
  3.914   8.6726
  3.911   8.6211
  3.908   8.5902
  3.905   8.6108
  3.902   8.5902
  3.899   8.6211
  3.896   8.6932
  3.893   8.7241
  3.890   8.6417
  3.887   8.5902
  3.884   8.6108
  3.882   8.6829
  3.879   8.6520
  3.876   8.5799
  3.873   8.5284
  3.870   8.5387
  3.867   8.5593
  3.864   8.5387
  3.861   8.4769
  3.858   8.4872
  3.856   8.5181
  3.853   8.5696
  3.850   8.6417
  3.847   8.7859
  3.844   8.8065
  3.841   8.7138
  3.838   8.6623
  3.836   8.6932
  3.833   8.7138
  3.830   8.7344
  3.827   8.7138
  3.824   8.6932
  3.822   8.6829
  3.819   8.6829
  3.816   8.7550
  3.813   8.8374
  3.810   8.7550
  3.807   8.7035
  3.805   8.7859
  3.802   8.8477
  3.799   8.7756
  3.796   8.7550
  3.794   8.7653
  3.791   8.8065
  3.788   8.7756
  3.785   8.7859
  3.782   8.8271
  3.780   8.8271
  3.777   8.8168
  3.774   8.8889
  3.771   8.8889
  3.769   8.7653
  3.766   8.6623
  3.763   8.7447
  3.761   8.7653
  3.758   8.7035
  3.755   8.6520
  3.752   8.6623
  3.750   8.5902
  3.747   8.6314
  3.744   8.6726
  3.742   8.7859
  3.739   8.8065
  3.736   8.6726
  3.733   8.5181
  3.731   8.6520
  3.728   8.7859
  3.725   8.7550
  3.723   8.6211
  3.720   8.5902
  3.717   8.6520
  3.715   8.6623
  3.712   8.6829
  3.709   8.7035
  3.707   8.6932
  3.704   8.7550
  3.702   8.7962
  3.699   8.8683
  3.696   8.8889
  3.694   8.8580
  3.691   8.7756
  3.688   8.7138
  3.686   8.7550
  3.683   8.9507
  3.680   9.0022
  3.678   8.9610
  3.675   8.8889
  3.673   8.9610
  3.670   8.9713
  3.667   8.8889
  3.665   8.8683
  3.662   8.9404
  3.660   9.0022
  3.657   9.0022
  3.655   8.9507
  3.652   8.8786
  3.649   8.7550
  3.647   8.7962
  3.644   8.8168
  3.642   8.8889
  3.639   8.9404
  3.637   8.9198
  3.634   8.8992
  3.632   8.9301
  3.629   8.9301
  3.626   8.8374
  3.624   8.8168
  3.621   8.8992
  3.619   8.8889
  3.616   8.8477
  3.614   8.8271
  3.611   8.7756
  3.609   8.7241
  3.606   8.7138
  3.604   8.7138
  3.601   8.7241
  3.599   8.6417
  3.596   8.6108
  3.594   8.6829
  3.591   8.7653
  3.589   8.7447
  3.586   8.6726
  3.584   8.6623
  3.581   8.7241
  3.579   8.7344
  3.576   8.7138
  3.574   8.6623
  3.571   8.5902
  3.569   8.5593
  3.567   8.5387
  3.564   8.5490
  3.562   8.5902
  3.559   8.6005
  3.557   8.5799
  3.554   8.5387
  3.552   8.4563
  3.549   8.4254
  3.547   8.4975
  3.545   8.4357
  3.542   8.3018
  3.540   8.2606
  3.537   8.4151
  3.535   8.4048
  3.533   8.3533
  3.530   8.3018
  3.528   8.2606
  3.525   8.2297
  3.523   8.2915
  3.521   8.3224
  3.518   8.2400
  3.516   8.1885
  3.513   8.1164
  3.511   8.0443
  3.509   8.0443
  3.506   8.0134
  3.504   8.0649
  3.502   7.9825
  3.499   7.9104
  3.497   7.8898
  3.494   7.9310
  3.492   7.8795
  3.490   7.9104
  3.487   7.9104
  3.485   7.8898
  3.483   7.9104
  3.480   7.9104
  3.478   7.9001
  3.476   7.8795
  3.473   7.8280
  3.471   7.8898
  3.469   7.8280
  3.466   7.7456
  3.464   7.7559
  3.462   7.7765
  3.460   7.7662
  3.457   7.7147
  3.455   7.5911
  3.453   7.6220
  3.450   7.6323
  3.448   7.6323
  3.446   7.5911
  3.443   7.5911
  3.441   7.6220
  3.439   7.5808
  3.437   7.5499
  3.434   7.4057
  3.432   7.2924
  3.430   7.3748
  3.428   7.3542
  3.425   7.3851
  3.423   7.3130
  3.421   7.2615
  3.418   7.2100
  3.416   7.2718
  3.414   7.2512
  3.412   7.1173
  3.409   7.0452
  3.407   7.1173
  3.405   7.0761
  3.403   7.0143
  3.401   7.0349
  3.398   7.0246
  3.396   6.9731
  3.394   7.0452
  3.392   7.0658
  3.389   7.0452
  3.387   7.0349
  3.385   7.0761
  3.383   7.0452
  3.381   7.0349
  3.378   6.9834
  3.376   6.9525
  3.374   6.9216
  3.372   6.9113
  3.370   6.9525
  3.367   6.9731
  3.365   6.9937
  3.363   6.9937
  3.361   6.9010
  3.359   6.8701
  3.357   6.9010
  3.354   6.9319
  3.352   6.8495
  3.350   6.7980
  3.348   6.8289
  3.346   6.8804
  3.344   6.9525
  3.341   6.9937
  3.339   6.8804
  3.337   6.7774
  3.335   6.6641
  3.333   6.7259
  3.331   6.7568
  3.329   6.7980
  3.326   6.7568
  3.324   6.6641
  3.322   6.6229
  3.320   6.6435
  3.318   6.5817
  3.316   6.5920
  3.314   6.5817
  3.312   6.5714
  3.309   6.5405
  3.307   6.4684
  3.305   6.4375
  3.303   6.5405
  3.301   6.5199
  3.299   6.4478
  3.297   6.4890
  3.295   6.5920
  3.293   6.4787
  3.291   6.3448
  3.288   6.2830
  3.286   6.2521
  3.284   6.2727
  3.282   6.3242
  3.280   6.2315
  3.278   6.1800
  3.276   6.2315
  3.274   6.2727
  3.272   6.2212
  3.270   6.1800
  3.268   6.1491
  3.266   6.0976
  3.264   6.0770
  3.262   6.1388
  3.259   6.0976
  3.257   6.0976
  3.255   6.0976
  3.253   6.0770
  3.251   5.9122
  3.249   5.9225
  3.247   6.0564
  3.245   6.0461
  3.243   5.9431
  3.241   5.9431
  3.239   5.9740
  3.237   5.9431
  3.235   5.8916
  3.233   5.8916
  3.231   5.8401
  3.229   5.8710
  3.227   5.8813
  3.225   5.8401
  3.223   5.7371
  3.221   5.7062
  3.219   5.7989
  3.217   5.8710
  3.215   5.8298
  3.213   5.9122
  3.211   5.8092
  3.209   5.7680
  3.207   5.7371
  3.205   5.7474
  3.203   5.7577
  3.201   5.7783
  3.199   5.7371
  3.197   5.6856
  3.195   5.6341
  3.193   5.6856
  3.191   5.6341
  3.189   5.6135
  3.187   5.6341
  3.185   5.6341
  3.183   5.6135
  3.182   5.6856
  3.180   5.6547
  3.178   5.5002
  3.176   5.4075
  3.174   5.3766
  3.172   5.3148
  3.170   5.4384
  3.168   5.5105
  3.166   5.4693
  3.164   5.3766
  3.162   5.3663
  3.160   5.3972
  3.158   5.3251
  3.156   5.2118
  3.154   5.2530
  3.152   5.3869
  3.151   5.3972
  3.149   5.2633
  3.147   5.2324
  3.145   5.2427
  3.143   5.1912
  3.141   5.1500
  3.139   5.1397
  3.137   5.1603
  3.135   5.2427
  3.133   5.2324
  3.132   5.1809
  3.130   5.2118
  3.128   5.2633
  3.126   5.1397
  3.124   5.0161
  3.122   5.0058
  3.120   5.1191
  3.118   5.1397
  3.117   5.1294
  3.115   5.0367
  3.113   5.0985
  3.111   5.0779
  3.109   5.0367
  3.107   5.0470
  3.105   5.1706
  3.103   5.1500
  3.102   4.9543
  3.100   4.8719
  3.098   4.9131
  3.096   4.8410
  3.094   4.9749
  3.092   4.9749
  3.091   4.9028
  3.089   4.9749
  3.087   4.9852
  3.085   4.9337
  3.083   4.9440
  3.081   4.8410
  3.079   4.8925
  3.078   4.8925
  3.076   4.8925
  3.074   4.8822
  3.072   4.8822
  3.070   4.8925
  3.069   5.0161
  3.067   4.9955
  3.065   4.9955
  3.063   4.9131
  3.061   4.8410
  3.060   4.7792
  3.058   4.8204
  3.056   4.8101
  3.054   4.9028
  3.052   4.9955
  3.051   4.8513
  3.049   4.7174
  3.047   4.9028
  3.045   4.9131
  3.043   4.7174
  3.042   4.5835
  3.040   4.5526
  3.038   4.5835
  3.036   4.6762
  3.034   4.7071
  3.033   4.8101
  3.031   4.7895
  3.029   4.7483
  3.027   4.7380
  3.026   4.7483
  3.024   4.6865
  3.022   4.6968
  3.020   4.5629
  3.019   4.4805
  3.017   4.6144
  3.015   4.8307
  3.013   4.7689
  3.012   4.7071
  3.010   4.7483
  3.008   4.8204
  3.006   4.8513
  3.005   4.7998
  3.003   4.6453
  3.001   4.7174
  2.999   4.7998
  2.998   4.9646
  2.996   4.8822
  2.994   4.6659
  2.992   4.6144
  2.991   4.7071
  2.989   4.7380
  2.987   4.6762
  2.986   4.6865
  2.984   4.9234
  2.982   4.9955
  2.980   4.9337
  2.979   4.7380
  2.977   4.7792
  2.975   4.8307
  2.974   4.7998
  2.972   4.7174
  2.970   4.6865
  2.968   4.7174
  2.967   4.7277
  2.965   4.6659
  2.963   4.6453
  2.962   4.7277
  2.960   4.7586
  2.958   4.7380
  2.957   4.8513
  2.955   4.7792
  2.953   4.5320
  2.952   4.3569
  2.950   4.4290
  2.948   4.4908
  2.947   4.6041
  2.945   4.7586
  2.943   4.8616
  2.942   4.6762
  2.940   4.5217
  2.938   4.6968
  2.937   4.9131
  2.935   4.7586
  2.933   4.7174
  2.932   4.7277
  2.930   4.8822
  2.928   4.9955
  2.927   5.0264
  2.925   4.9028
  2.923   4.8410
  2.922   4.8513
  2.920   4.8719
  2.918   4.8925
  2.917   4.9646
  2.915   4.7998
  2.913   4.8513
  2.912   4.9852
  2.910   5.0470
  2.909   5.0367
  2.907   5.0058
  2.905   4.8513
  2.904   4.8719
  2.902   5.0264
  2.900   5.1088
  2.899   5.0676
  2.897   4.9646
  2.896   4.7586
  2.894   4.9440
  2.892   5.0470
  2.891   5.1191
  2.889   4.9955
  2.887   5.0058
  2.886   5.1706
  2.884   5.2221
  2.883   5.1191
  2.881   5.1809
  2.879   5.0882
  2.878   5.0264
  2.876   5.1500
  2.875   5.2221
  2.873   5.1912
  2.871   5.1397
  2.870   5.0367
  2.868   5.2324
  2.867   5.4693
  2.865   5.5208
  2.864   5.5002
  2.862   5.3972
  2.860   5.2324
  2.859   5.2839
  2.857   5.2839
  2.856   5.1809
  2.854   5.1500
  2.853   5.2633
  2.851   5.3663
  2.849   5.6444
  2.848   5.5208
  2.846   5.3869
  2.845   5.4384
  2.843   5.5929
  2.842   5.4899
  2.840   5.3560
  2.838   5.2736
  2.837   5.3869
  2.835   5.4075
  2.834   5.4590
  2.832   5.2736
  2.831   5.2633
  2.829   5.2427
  2.828   5.2839
  2.826   5.2942
  2.825   5.3560
  2.823   5.3766
  2.821   5.3354
  2.820   5.1191
  2.818   4.9852
  2.817   5.0985
  2.815   5.2015
  2.814   4.9646
  2.812   5.0264
  2.811   5.0676
  2.809   5.1088
  2.808   4.7792
  2.806   4.7689
  2.805   4.9234
  2.803   4.9234
  2.802   4.8410
  2.800   4.8822
  2.799   4.8204
  2.797   4.8513
  2.796   4.8410
  2.794   4.6762
  2.793   4.5526
  2.791   4.5423
  2.790   4.4393
  2.788   4.5938
  2.787   4.6144
  2.785   4.5423
  2.784   4.7380
  2.782   4.9234
  2.781   4.6968
  2.779   4.3981
  2.778   4.3466
  2.776   4.4702
  2.775   4.4496
  2.773   4.5423
  2.772   4.6762
  2.770   4.7689
  2.769   4.6762
  2.767   4.6247
  2.766   4.5011
  2.764   4.5938
  2.763   4.7689
  2.761   4.7483
  2.760   4.6659
  2.758   4.5423
  2.757   4.4496
  2.756   4.6453
  2.754   4.9749
  2.753   5.1912
  2.751   5.0161
  2.750   4.8719
  2.748   4.8410
  2.747   5.0779
  2.745   5.2015
  2.744   5.1706
  2.742   5.2736
  2.741   5.4693
  2.740   5.6135
  2.738   5.6547
  2.737   5.4487
  2.735   5.5208
  2.734   5.7371
  2.732   6.0152
  2.731   5.9637
  2.729   5.8195
  2.728   6.0049
  2.727   6.2521
  2.725   6.4272
  2.724   6.2521
  2.722   6.0049
  2.721   6.4066
  2.719   6.9010
  2.718   7.0040
  2.717   6.6744
  2.715   6.6229
  2.714   6.7774
  2.712   6.8804
  2.711   6.7465
  2.709   6.5611
  2.708   6.5508
  2.707   6.5096
  2.705   6.2418
  2.704   6.2624
  2.702   6.2418
  2.701   6.2727
  2.700   6.3242
  2.698   6.4581
  2.697   6.8495
  2.695   7.6014
  2.694   8.0649
  2.693   8.1370
  2.691   8.5902
  2.690   9.4039
  2.688   9.8468
  2.687  10.2485
  2.686  10.7944
  2.684  11.2373
  2.683  11.5463
  2.681  11.6493
  2.680  11.8862
  2.679  12.2879
  2.677  12.5557
  2.676  12.8750
  2.675  12.9162
  2.673  12.9471
  2.672  13.0295
  2.670  13.2767
  2.669  13.5857
  2.668  13.8226
  2.666  13.9153
  2.665  14.1213
  2.664  14.1831
  2.662  14.3170
  2.661  14.3273
  2.659  14.3685
  2.658  14.4406
  2.657  14.5436
  2.655  14.6363
  2.654  14.7702
  2.653  14.7187
  2.651  14.7908
  2.650  14.8217
  2.649  15.1101
  2.647  15.1616
  2.646  15.0380
  2.645  14.9968
  2.643  15.2337
  2.642  15.1719
  2.640  15.0792
  2.639  15.1719
  2.638  15.3676
  2.636  15.1822
  2.635  15.0998
  2.634  15.1822
  2.632  15.3676
  2.631  15.5427
  2.630  15.7075
  2.628  15.6560
  2.627  15.6663
  2.626  15.7178
  2.624  15.6148
  2.623  15.5736
  2.622  15.7281
  2.620  15.5530
  2.619  15.5221
  2.618  15.7075
  2.617  15.7487
  2.615  15.7487
  2.614  16.0989
  2.613  16.1504
  2.611  15.9135
  2.610  15.8208
  2.609  15.8105
  2.607  15.6457
  2.606  15.8002
  2.605  15.9135
  2.603  16.0268
  2.602  15.9959
  2.601  16.2740
  2.599  16.2534
  2.598  16.3152
  2.597  16.2843
  2.596  16.4800
  2.594  16.3667
  2.593  16.3255
  2.592  15.9959
  2.590  15.7693
  2.589  16.0886
  2.588  16.4800
  2.586  16.4388
  2.585  16.6448
  2.584  16.6139
  2.583  16.2843
  2.581  16.1401
  2.580  16.2019
  2.579  16.3152
  2.577  16.5418
  2.576  16.4182
  2.575  16.5727
  2.574  16.6757
  2.572  16.6654
  2.571  16.5418
  2.570  16.5933
  2.569  16.7169
  2.567  16.7993
  2.566  16.8817
  2.565  17.0877
  2.563  16.9538
  2.562  16.7787
  2.561  16.5933
  2.560  16.4285
  2.558  16.4285
  2.557  16.5830
  2.556  16.8096
  2.555  16.8920
  2.553  17.0671
  2.552  17.0362
  2.551  16.7993
  2.550  16.7066
  2.548  16.7993
  2.547  17.0774
  2.546  17.0053
  2.545  16.9847
  2.543  16.7787
  2.542  16.6345
  2.541  16.7375
  2.540  16.8405
  2.538  16.6963
  2.537  16.8096
  2.536  17.1083
  2.535  17.1804
  2.533  16.9538
  2.532  17.1186
  2.531  17.2937
  2.530  17.4688
  2.528  17.5821
  2.527  17.3864
  2.526  16.9538
  2.525  16.7684
  2.524  16.7581
  2.522  17.1083
  2.521  17.2731
  2.520  17.2319
  2.519  17.2422
  2.517  17.2319
  2.516  16.7684
  2.515  16.5418
  2.514  16.8096
  2.513  17.2731
  2.511  17.2937
  2.510  17.1289
  2.509  17.0053
  2.508  16.9229
  2.506  16.9950
  2.505  17.1289
  2.504  16.9950
  2.503  17.0053
  2.502  17.1392
  2.500  17.3452
  2.497  17.3452
  2.493  17.0452
  2.489  17.0452
  2.485  16.6452
  2.481  16.5452
  2.477  16.4452
  2.473  16.3452
  2.469  16.4452
  2.465  16.4452
  2.461  16.3452
  2.457  16.3452
  2.453  16.4452
  2.449  16.2452
  2.445  16.2452
  2.441  16.2452
  2.437  16.2452
  2.433  16.3452
  2.429  16.5452
  2.425  16.8452
  2.421  16.9452
  2.417  16.6452
  2.413  16.6452
  2.409  16.6452
  2.405  16.9452
  2.401  17.0452
  2.397  17.0452
  2.393  16.9452
  2.389  17.0452
  2.385  17.0452
  2.381  17.0452
  2.377  16.9452
  2.373  16.5452
  2.369  16.4452
  2.365  16.3452
  2.361  16.3452
  2.357  16.2452
  2.353  16.0452
  2.349  15.9452
  2.345  16.0452
  2.341  16.0452
  2.337  16.0452
  2.333  16.2452
  2.329  16.0452
  2.325  16.3452
  2.321  16.3452
  2.317  16.5452
  2.313  16.8452
  2.309  17.1452
  2.305  17.4452
  2.301  17.0452
  2.297  17.7452
  2.293  17.6452
  2.289  17.9452
  2.285  18.1452
  2.281  18.6452
  2.277  19.0452
  2.273  19.0452
  2.269  19.1452
  2.265  18.8452
  2.261  18.6452
  2.257  18.2452
  2.253  18.1452
  2.249  18.1452
  2.245  17.9452
  2.241  17.6452
  2.237  17.5452
  2.233  17.5452
  2.229  17.5452
  2.225  17.4452
  2.221  17.4452
  2.217  17.4452
  2.213  17.5452
  2.209  17.6452
  2.205  18.0452
  2.201  18.4452
  2.197  18.6452
  2.193  18.8452
  2.189  19.3452
  2.185  19.6452
  2.181  19.8452
  2.177  20.2452
  2.173  20.4452
  2.169  20.7452
  2.165  20.8452
  2.161  20.9452
  2.157  20.9452
  2.153  21.0452
  2.149  21.2452
  2.145  21.2452
  2.141  21.3452
  2.137  21.4452
  2.133  21.4452
  2.129  21.7452
  2.125  21.5452
  2.121  21.7452
  2.117  21.9452
  2.113  21.9452
  2.109  22.0452
  2.105  22.0452
  2.101  21.9452
  2.097  22.1452
  2.093  22.1452
  2.089  22.3452
  2.085  22.3452
  2.081  22.3452
  2.077  22.1452
  2.073  22.1452
  2.069  22.1452
  2.065  22.1452
  2.061  22.1452
  2.057  22.3452
  2.053  22.1452
  2.049  22.3452
  2.045  22.0452
  2.041  22.0452
  2.037  22.0452
  2.033  21.9452
  2.029  22.0452
  2.025  22.0452
  2.021  21.9452
  2.017  21.9452
  2.013  22.0452
  2.009  21.9452
  2.005  21.8452
  2.001  21.9452
  1.997  21.8452
  1.993  21.7452
  1.989  21.9452
  1.985  21.5452
  1.981  21.7452
  1.977  21.5452
  1.973  21.4452
  1.969  21.4452
  1.965  21.5452
  1.961  21.3452
  1.957  21.2452
  1.953  21.0452
  1.949  20.9452
  1.945  20.9452
  1.941  20.9452
  1.937  21.0452
  1.933  20.9452
  1.929  21.2452
  1.925  20.8452
  1.921  20.7452
  1.917  20.9452
  1.913  21.0452
  1.909  21.2452
  1.905  21.4452
  1.901  21.5452
  1.897  21.7452
  1.893  21.9452
  1.889  22.3452
  1.885  22.4452
  1.881  23.1452
  1.877  23.5452
  1.873  23.4452
  1.869  23.0452
  1.865  22.9452
  1.861  23.0452
  1.857  23.5452
  1.853  23.9452
  1.849  24.1452
  1.845  24.3452
  1.841  24.5452
  1.837  24.5452
  1.833  24.1452
  1.829  24.1452
  1.825  24.1452
  1.821  24.2452
  1.817  24.3452
  1.813  24.2452
  1.809  24.2452
  1.805  24.3452
  1.801  24.3452
  1.797  24.2452
  1.793  24.3452
  1.789  24.5452
  1.785  24.3452
  1.781  24.3452
  1.777  24.3452
  1.773  24.6452
  1.769  24.6452
  1.765  24.7452
  1.761  25.0452
  1.757  24.8452
  1.753  24.7452
  1.749  24.7452
  1.745  25.0452
  1.741  25.2452
  1.737  25.2452
  1.733  25.1452
  1.729  25.1452
  1.725  25.1452
  1.721  24.7452
  1.717  25.0452
  1.713  25.0452
  1.709  25.0452
  1.705  25.3452
  1.701  25.3452
  1.697  25.6452
  1.693  25.4452
  1.689  25.3452
  1.685  25.3452
  1.681  25.2452
  1.677  25.4452
  1.673  25.4452
  1.669  25.4452
  1.665  25.4452
  1.661  25.4452
  1.657  25.3452
  1.653  25.4452
  1.649  25.6452
  1.645  25.3452
  1.641  25.3452
  1.637  25.3452
  1.633  25.6452
  1.629  25.6452
  1.625  25.8452
  1.621  25.8452
  1.617  25.9452
  1.613  26.2452
  1.609  25.9452
  1.605  25.9452
  1.601  26.1452
  1.597  26.1452
  1.593  25.9452
  1.589  25.8452
  1.585  26.2452
  1.581  26.2452
  1.577  26.1452
  1.573  26.2452
  1.569  26.3452
  1.565  26.4452
  1.561  26.3452
  1.557  26.5452
  1.553  26.7452
  1.549  26.7452
  1.545  26.7452
  1.541  26.8452
  1.537  26.7452
  1.533  26.7452
  1.529  26.8452
  1.525  27.0452
  1.521  27.5452
  1.517  26.8452
  1.513  26.5452
  1.509  26.4452
  1.505  26.4452
  1.501  26.3452
  1.497  27.0452
  1.493  27.0452
  1.489  26.9452
  1.485  27.0452
  1.481  27.0452
  1.477  27.0452
  1.473  26.9452
  1.469  27.1452
  1.465  27.1452
  1.461  27.3452
  1.457  27.3452
  1.453  27.4452
  1.449  27.4452
  1.445  27.4452
  1.441  27.3452
  1.437  27.0452
  1.433  26.9452
  1.429  26.7452
  1.425  26.5452
  1.421  26.5452
  1.417  26.3452
  1.413  26.3452
  1.409  26.4452
  1.405  26.5452
  1.401  26.8452
  1.397  27.0452
  1.393  27.3452
  1.389  27.0452
  1.385  27.8452
  1.381  28.0452
  1.377  27.8452
  1.373  28.1452
  1.369  29.0452
  1.365  29.0452
  1.361  28.7452
  1.357  28.5452
  1.353  28.9452
  1.349  29.0452
  1.345  29.1452
  1.341  29.2452
  1.337  29.5452
  1.333  29.5452
  1.329  29.7452
  1.325  29.7452
  1.321  29.8452
  1.317  30.0452
  1.313  30.1452
  1.309  30.2452
  1.305  30.0452
  1.301  30.0452
  1.297  30.0452
  1.293  30.0452
  1.289  30.1452
  1.285  30.1452
  1.281  30.2452
  1.277  30.4452
  1.273  30.4452
  1.269  30.4452
  1.265  30.4452
  1.261  30.4452
  1.257  30.3452
  1.253  30.6452
  1.249  30.6452
  1.245  30.4452
  1.241  30.6452
  1.237  30.4452
  1.233  30.6452
  1.229  30.6452
  1.225  30.7452
  1.221  30.6452
  1.217  30.9452
  1.213  30.9452
  1.209  30.8452
  1.205  30.9452
  1.201  30.8452
  1.197  30.8452
  1.193  30.9452
  1.189  30.9452
  1.185  31.1452
  1.181  31.2452
  1.177  31.3452
  1.173  31.3452
  1.169  31.3452
  1.165  31.4452
  1.161  31.5452
  1.157  31.5452
  1.153  31.5452
  1.149  31.7452
  1.145  31.7452
  1.141  31.5452
  1.137  31.8452
  1.133  31.8452
  1.129  31.9452
  1.125  31.9452
  1.121  32.2452
  1.117  32.2452
  1.113  32.2452
  1.109  32.2452
  1.105  32.4452
  1.101  32.4452
  1.097  32.5452
  1.093  32.3452
  1.089  32.5452
  1.085  32.5452
  1.081  32.5452
  1.077  32.4452
  1.073  32.4452
  1.069  32.5452
  1.065  32.9452
  1.061  33.0452
  1.057  32.8452
  1.053  32.4452
  1.049  32.3452
  1.045  33.1452
  1.041  33.9452
  1.037  34.1452
  1.033  34.1452
  1.029  34.1452
  1.025  33.9452
  1.021  34.1452
  1.017  34.1452
  1.013  34.1452
  1.009  34.5452
  1.005  34.4452
  1.001  34.4452
  0.997  34.5452
  0.993  35.1452
  0.989  35.0452
  0.985  34.7452
  0.981  34.6452
  0.977  34.6452
  0.973  34.4452
  0.969  34.4452
  0.965  34.2452
  0.961  34.1452
  0.957  34.4452
  0.953  34.4452
  0.949  34.6452
  0.945  34.6452
  0.941  34.6452
  0.937  34.5452
  0.933  34.7452
  0.929  34.5452
  0.925  34.5452
  0.921  34.4452
  0.917  34.5452
  0.913  34.4452
  0.909  34.6452
  0.905  34.5452
  0.901  34.7452
  0.897  34.6452
  0.893  34.5452
  0.889  34.5452
  0.885  34.6452
  0.881  34.6452
  0.877  34.8452
  0.873  34.7452
  0.869  34.8452
  0.865  34.8452
  0.861  34.7452
  0.857  34.7452
  0.853  35.0452
  0.849  35.1452
  0.845  35.2452
  0.841  35.0452
  0.837  35.2452
  0.833  35.2452
  0.829  35.3452
  0.825  35.2452
  0.821  35.2452
  0.817  35.6452
  0.813  35.7452
  0.809  35.8452
  0.805  36.2452
  0.804  35.7452
  0.803  35.7452
  0.802  35.5452
  0.801  35.2452
  0.800  35.5452
  0.799  35.2452
  0.798  35.5452
  0.797  35.5452
  0.796  35.5452
  0.795  35.0452
  0.794  35.2452
  0.793  35.0452
  0.792  35.2452
  0.791  35.1452
  0.790  35.3452
  0.789  35.6452
  0.788  35.3452
  0.787  35.1452
  0.786  35.2452
  0.785  35.3452
  0.784  35.2452
  0.783  35.7452
  0.782  35.8452
  0.781  35.5452
  0.780  35.3452
  0.779  35.8452
  0.778  35.5452
  0.777  35.8452
  0.776  35.2452
  0.775  35.2452
  0.774  35.2452
  0.773  35.7452
  0.772  35.3452
  0.771  35.3452
  0.770  35.2452
  0.769  35.5452
  0.768  35.2452
  0.767  34.8452
  0.766  35.0452
  0.765  35.0452
  0.764  35.1452
  0.763  34.8452
  0.762  34.5452
  0.761  34.7452
  0.760  34.8452
  0.759  35.1452
  0.758  35.2452
  0.757  35.1452
  0.756  34.8452
  0.755  34.7452
  0.754  34.8452
  0.753  35.1452
  0.752  35.1452
  0.751  35.2452
  0.750  35.5452
  0.749  35.2452
  0.748  34.7452
  0.747  35.0452
  0.746  35.0452
  0.745  35.0452
  0.744  35.0452
  0.743  34.6452
  0.742  34.6452
  0.741  34.7452
  0.740  34.7452
  0.739  35.2452
  0.738  35.0452
  0.737  35.0452
  0.736  34.8452
  0.735  35.0452
  0.734  34.8452
  0.733  34.7452
  0.732  34.2452
  0.731  34.6452
  0.730  34.6452
  0.729  34.5452
  0.728  34.6452
  0.727  34.6452
  0.726  34.6452
  0.725  34.4452
  0.724  34.5452
  0.723  34.7452
  0.722  34.7452
  0.721  34.8452
  0.720  34.6452
  0.719  34.6452
  0.718  34.6452
  0.717  34.6452
  0.716  34.6452
  0.715  34.4452
  0.714  34.4452
  0.713  34.5452
  0.712  34.8452
  0.711  34.8452
  0.710  34.7452
  0.709  34.4452
  0.708  34.2452
  0.707  34.4452
  0.706  34.2452
  0.705  34.1452
  0.704  34.4452
  0.703  33.6452
  0.702  33.7452
  0.701  34.1452
  0.700  34.1452
  0.699  34.1452
  0.698  34.4452
  0.697  34.1452
  0.696  34.1452
  0.695  34.5452
  0.694  34.1452
  0.693  34.1452
  0.692  34.1452
  0.691  34.2452
  0.690  34.4452
  0.689  33.9452
  0.688  34.0452
  0.687  33.7452
  0.686  33.6452
  0.685  33.6452
  0.684  33.7452
  0.683  34.1452
  0.682  34.1452
  0.681  34.0452
  0.680  34.0452
  0.679  34.1452
  0.678  34.0452
  0.677  34.4452
  0.676  34.1452
  0.675  34.1452
  0.674  34.2452
  0.673  34.2452
  0.672  34.2452
  0.671  34.2452
  0.670  34.2452
  0.669  34.0452
  0.668  34.2452
  0.667  34.5452
  0.666  34.2452
  0.665  34.4452
  0.664  34.2452
  0.663  34.1452
  0.662  34.1452
  0.661  34.1452
  0.660  34.0452
  0.659  34.1452
  0.658  34.2452
  0.657  34.6452
  0.656  34.1452
  0.655  34.4452
  0.654  34.4452
  0.653  34.1452
  0.652  34.1452
  0.651  34.2452
  0.650  34.2452
  0.649  34.2452
  0.648  34.0452
  0.647  33.9452
  0.646  33.7452
  0.645  34.1452
  0.644  34.2452
  0.643  33.9452
  0.642  34.0452
  0.641  34.0452
  0.640  34.0452
  0.639  34.1452
  0.638  34.0452
  0.637  34.2452
  0.636  34.1452
  0.635  34.2452
  0.634  34.5452
  0.633  34.6452
  0.632  34.4452
  0.631  34.6452
  0.630  34.6452
  0.629  33.6452
  0.628  33.4452
  0.627  33.6452
  0.626  33.7452
  0.625  34.0452
  0.624  34.0452
  0.623  34.0452
  0.622  34.2452
  0.621  34.4452
  0.620  34.4452
  0.619  34.4452
  0.618  34.4452
  0.617  34.1452
  0.616  34.1452
  0.615  34.1452
  0.614  34.2452
  0.613  34.2452
  0.612  34.0452
  0.611  33.9452
  0.610  34.1452
  0.609  34.0452
  0.608  34.0452
  0.607  33.7452
  0.606  33.7452
  0.605  33.9452
  0.604  33.9452
  0.603  34.0452
  0.602  33.9452
  0.601  33.9452
  0.600  33.7452
  0.599  33.4452
  0.598  33.4452
  0.597  32.8452
  0.596  33.5452
  0.595  33.4452
  0.594  33.4452
  0.593  33.5452
  0.592  33.3452
  0.591  32.6452
  0.590  33.1452
  0.589  33.3452
  0.588  33.3452
  0.587  33.0452
  0.586  33.3452
  0.585  32.9452
  0.584  32.9452
  0.583  32.9452
  0.582  33.1452
  0.581  32.9452
  0.580  32.6452
  0.579  32.4452
  0.578  32.5452
  0.577  32.6452
  0.576  32.8452
  0.575  32.8452
  0.574  33.0452
  0.573  33.0452
  0.572  32.5452
  0.571  32.5452
  0.570  32.3452
  0.569  32.3452
  0.568  32.3452
  0.567  32.2452
  0.566  31.9452
  0.565  31.7452
  0.564  31.5452
  0.563  32.6452
  0.562  32.6452
  0.561  32.6452
  0.560  32.5452
  0.559  32.3452
  0.558  32.4452
  0.557  32.5452
  0.556  32.4452
  0.555  32.5452
  0.554  32.0452
  0.553  32.4452
  0.552  32.2452
  0.551  32.4452
  0.550  32.0452
  0.549  32.3452
  0.548  32.0452
  0.547  31.9452
  0.546  31.8452
  0.545  31.8452
  0.544  31.8452
  0.543  31.7452
  0.542  32.0452
  0.541  31.7452
  0.540  31.8452
  0.539  31.7452
  0.538  31.7452
  0.537  31.5452
  0.536  31.4452
  0.535  31.4452
  0.534  31.3452
  0.533  31.3452
  0.532  31.3452
  0.531  31.7452
  0.530  31.7452
  0.529  31.4452
  0.528  31.5452
  0.527  31.8452
  0.526  31.8452
  0.525  31.9452
  0.524  31.8452
  0.523  31.8452
  0.522  31.7452
  0.521  31.5452
  0.520  31.3452
  0.519  31.4452
  0.518  31.3452
  0.517  31.3452
  0.516  31.2452
  0.515  31.3452
  0.514  31.3452
  0.513  31.5452
  0.512  31.7452
  0.511  31.5452
  0.510  31.3452
  0.509  31.4452
  0.508  31.4452
  0.507  31.3452
  0.506  31.5452
  0.505  31.2452
  0.504  31.3452
  0.503  31.4452
  0.502  31.3452
  0.501  31.4452
  0.500  31.5452
  0.499  30.8452
  0.498  30.6452
  0.497  30.7452
  0.496  30.8452
  0.495  30.8452
  0.494  30.9452
  0.493  31.2452
  0.492  31.2452
  0.491  30.7452
  0.490  30.7452
  0.489  30.6452
  0.488  30.7452
  0.487  30.7452
  0.486  30.8452
  0.485  30.8452
  0.484  30.4452
  0.483  30.4452
  0.482  30.2452
  0.481  30.4452
  0.480  30.8452
  0.479  30.7452
  0.478  30.8452
  0.477  30.4452
  0.476  30.8452
  0.475  30.9452
  0.474  30.9452
  0.473  30.8452
  0.472  30.7452
  0.471  31.1452
  0.470  31.1452
  0.469  30.7452
  0.468  30.7452
  0.467  30.4452
  0.466  30.6452
  0.465  30.8452
  0.464  30.2452
  0.463  31.2452
  0.462  31.2452
  0.461  30.9452
  0.460  30.8452
  0.459  30.8452
  0.458  31.1452
  0.457  30.9452
  0.456  31.1452
  0.455  31.1452
  0.454  30.9452
  0.453  31.2452
  0.452  30.8452
  0.451  30.9452
  0.450  30.9452
  0.449  30.9452
  0.448  30.9452
  0.447  30.7452
  0.446  30.9452
  0.445  30.8452
  0.444  30.9452
  0.443  31.2452
  0.442  30.9452
  0.441  30.9452
  0.440  30.8452
  0.439  30.7452
  0.438  30.9452
  0.437  30.7452
  0.436  30.6452
  0.435  31.1452
  0.434  30.9452
  0.433  30.7452
  0.432  30.7452
  0.431  30.7452
  0.430  30.7452
  0.429  30.7452
  0.428  30.7452
  0.427  30.8452
  0.426  30.7452
  0.425  30.7452
  0.424  30.4452
  0.423  30.4452
  0.422  30.4452
  0.421  30.6452
  0.420  30.4452
  0.419  30.4452
  0.418  30.4452
  0.417  30.3452
  0.416  30.3452
  0.415  30.2452
  0.414  30.4452
  0.413  30.4452
  0.412  30.4452
  0.411  30.6452
  0.410  30.4452
  0.409  30.2452
  0.408  30.3452
  0.407  30.3452
  0.406  30.0452
  0.405  30.0452
