Name: Basanite
Type: Rock
Class: Igneous
Subclass: Mafic
Particle Size: Whole rock chips
Sample No.: Mewy327
Owner: Lawrence Rowan, USGS Reston
Wavelength range: 0.40 - 14.05 um
Origin: Yizriel Valley, Middle East

Description: Basanite, cut surface, Middle Miocene





Measurement: Directional Hemispherical Reflectance
First Column: X
Second Column: Y
X Units: Wavelength (micrometers)
Y Units: Reflectance (percent)
First X Value: 14.05105
Last X Value: 0.40000
Number of X Values: 2231
Additional Information: mewy327a.txt

 14.051   3.4814
 14.013   3.4505
 13.975   3.5741
 13.938   3.5947
 13.900   3.7080
 13.863   3.7080
 13.826   3.7698
 13.790   3.6771
 13.753   3.6462
 13.717   3.6153
 13.680   3.6565
 13.644   3.5741
 13.609   3.6462
 13.573   3.6977
 13.538   3.8625
 13.502   3.7801
 13.467   3.7080
 13.432   3.5741
 13.398   3.6977
 13.363   3.7389
 13.329   3.7904
 13.295   3.8522
 13.261   3.9037
 13.227   3.7595
 13.193   3.7801
 13.160   3.9037
 13.126   3.9655
 13.093   3.8625
 13.060   3.9037
 13.027   3.8934
 12.995   3.9758
 12.962   3.9552
 12.930   4.0994
 12.898   4.0582
 12.866   4.0170
 12.834   4.0582
 12.802   4.0788
 12.771   4.0376
 12.739   4.0685
 12.708   4.0582
 12.677   4.1406
 12.646   4.0994
 12.616   4.1612
 12.585   4.1509
 12.554   4.2024
 12.524   4.2436
 12.494   4.3672
 12.464   4.3672
 12.434   4.4290
 12.404   4.4805
 12.375   4.6762
 12.345   4.7792
 12.316   4.8410
 12.287   4.8307
 12.258   4.8822
 12.229   4.9955
 12.200   5.2118
 12.171   5.2324
 12.143   5.3869
 12.115   5.4693
 12.086   5.6238
 12.058   5.7371
 12.030   5.9122
 12.002   5.9843
 11.975   6.0152
 11.947   5.9946
 11.920   6.1594
 11.892   6.2315
 11.865   6.3242
 11.838   6.3448
 11.811   6.4890
 11.784   6.6126
 11.757   6.7671
 11.731   6.8907
 11.704   7.0864
 11.678   7.2306
 11.652   7.3439
 11.626   7.4160
 11.600   7.7559
 11.574   7.9928
 11.548   8.1473
 11.522   8.3121
 11.497   8.5799
 11.471   8.7344
 11.446   8.8683
 11.421   8.9404
 11.396   9.0949
 11.371   9.2494
 11.346   9.4451
 11.321   9.6099
 11.297   9.8571
 11.272   9.8571
 11.248   9.8674
 11.223  10.0837
 11.199  10.2794
 11.175  10.1867
 11.151  10.2794
 11.127  10.4339
 11.103  10.6296
 11.079  10.7841
 11.056  10.8356
 11.032  10.8459
 11.009  11.0416
 10.985  11.1137
 10.962  11.2476
 10.939  11.3609
 10.916  11.5154
 10.893  11.5154
 10.870  11.5978
 10.848  11.6390
 10.825  11.5875
 10.802  11.5463
 10.780  11.6184
 10.758  11.6287
 10.735  11.7214
 10.713  11.7214
 10.691  11.7523
 10.669  11.7420
 10.647  11.8244
 10.625  11.8141
 10.604  11.8244
 10.582  11.7935
 10.560  11.8347
 10.539  11.8656
 10.518  11.7523
 10.496  11.5875
 10.475  11.6493
 10.454  11.7008
 10.433  11.8244
 10.412  11.8862
 10.391  12.0716
 10.370  12.2673
 10.350  12.4012
 10.329  12.4733
 10.309  12.5660
 10.288  12.6484
 10.268  12.7102
 10.247  12.6793
 10.227  12.6999
 10.207  12.6690
 10.187  12.7205
 10.167  12.6793
 10.147  12.6690
 10.127  12.6278
 10.108  12.6690
 10.088  12.7205
 10.068  12.7823
 10.049  12.8544
 10.029  13.0398
 10.010  13.1428
  9.991  13.2149
  9.972  13.2149
  9.952  13.2767
  9.933  13.3488
  9.914  13.4209
  9.895  13.4724
  9.877  13.5857
  9.858  13.7093
  9.839  13.8226
  9.821  13.8329
  9.802  13.8535
  9.783  13.8947
  9.765  13.9668
  9.747  13.9771
  9.728  14.0801
  9.710  14.1213
  9.692  14.1831
  9.674  14.1419
  9.656  14.1007
  9.638  14.1419
  9.620  14.2037
  9.602  14.1316
  9.585  14.1625
  9.567  14.1213
  9.549  14.0080
  9.532  13.8638
  9.514  13.7917
  9.497  13.7917
  9.479  13.7402
  9.462  13.5033
  9.445  13.4209
  9.428  13.2664
  9.411  13.1222
  9.394  12.8956
  9.377  12.7102
  9.360  12.5042
  9.343  12.2261
  9.326  11.9377
  9.309  11.8553
  9.293  11.7832
  9.276  11.6596
  9.259  11.4124
  9.243  11.2270
  9.226  11.0107
  9.210  10.9283
  9.194  10.8150
  9.178  10.7841
  9.161  10.8459
  9.145  10.9901
  9.129  11.0313
  9.113  11.0725
  9.097  11.0416
  9.081  11.0931
  9.065  10.9901
  9.049  10.9386
  9.034  10.9180
  9.018  10.9592
  9.002  10.7532
  8.987  10.4648
  8.971  10.2588
  8.956  10.2073
  8.940  10.0425
  8.925   9.8983
  8.909   9.7026
  8.894   9.4863
  8.879   9.1258
  8.864   8.8065
  8.849   8.6623
  8.834   8.5284
  8.819   8.3224
  8.804   8.1988
  8.789   8.0340
  8.774   7.9928
  8.759   7.9825
  8.744   7.9619
  8.730   7.8074
  8.715   7.6426
  8.700   7.4469
  8.686   7.4778
  8.671   7.3954
  8.657   7.2512
  8.642   7.0864
  8.628   7.0452
  8.614   7.0349
  8.599   6.9216
  8.585   6.7980
  8.571   6.7671
  8.557   6.6847
  8.543   6.6332
  8.529   6.5199
  8.515   6.4581
  8.501   6.4169
  8.487   6.2624
  8.473   6.1697
  8.459   6.1800
  8.445   6.0152
  8.431   5.9225
  8.418   5.9328
  8.404   5.9122
  8.391   5.7062
  8.377   5.5826
  8.363   5.4693
  8.350   5.4590
  8.337   5.3663
  8.323   5.2118
  8.310   4.9955
  8.297   4.7380
  8.283   4.5114
  8.270   4.4908
  8.257   4.3466
  8.244   4.1715
  8.231   4.0170
  8.218   3.8522
  8.205   3.6565
  8.192   3.6050
  8.179   3.5123
  8.166   3.4711
  8.153   3.3475
  8.140   3.2445
  8.128   3.1518
  8.115   3.0797
  8.102   2.9561
  8.090   2.9458
  8.077   2.9664
  8.064   3.0076
  8.052   3.1003
  8.039   3.0694
  8.027   2.9664
  8.015   3.0076
  8.002   2.9458
  7.990   2.8119
  7.978   2.7604
  7.965   2.8531
  7.953   2.9252
  7.941   2.9355
  7.929   2.8634
  7.917   2.8325
  7.905   2.8428
  7.893   2.9355
  7.881   2.9252
  7.869   2.9046
  7.857   2.9046
  7.845   2.9252
  7.833   2.9149
  7.821   2.9046
  7.809   2.8325
  7.798   2.8531
  7.786   2.8325
  7.774   2.8634
  7.763   2.9561
  7.751   2.9870
  7.739   2.9458
  7.728   2.9252
  7.716   2.9149
  7.705   2.9561
  7.694   2.9664
  7.682   2.9664
  7.671   2.9149
  7.659   2.8943
  7.648   2.9046
  7.637   2.9355
  7.626   2.9458
  7.614   2.9870
  7.603   2.9355
  7.592   2.9149
  7.581   2.9458
  7.570   3.0179
  7.559   2.9767
  7.548   2.9767
  7.537   2.9767
  7.526   3.0591
  7.515   3.0797
  7.504   3.0900
  7.493   3.0591
  7.483   3.1106
  7.472   3.0797
  7.461   3.0694
  7.450   3.0591
  7.440   3.1106
  7.429   3.1621
  7.418   3.2239
  7.408   3.1930
  7.397   3.1621
  7.387   3.1724
  7.376   3.1724
  7.366   3.1209
  7.355   3.1724
  7.345   3.1518
  7.334   3.1621
  7.324   3.1518
  7.314   3.2033
  7.303   3.2342
  7.293   3.2445
  7.283   3.1827
  7.273   3.1930
  7.263   3.2136
  7.252   3.2651
  7.242   3.2033
  7.232   3.1724
  7.222   3.1621
  7.212   3.2033
  7.202   3.2445
  7.192   3.2857
  7.182   3.3475
  7.172   3.4402
  7.162   3.3784
  7.152   3.3063
  7.143   3.2857
  7.133   3.3269
  7.123   3.3578
  7.113   3.3681
  7.103   3.3372
  7.094   3.3578
  7.084   3.3990
  7.074   3.4093
  7.065   3.4299
  7.055   3.4505
  7.046   3.4505
  7.036   3.3990
  7.026   3.3887
  7.017   3.4505
  7.007   3.4608
  6.998   3.4917
  6.989   3.3887
  6.979   3.3990
  6.970   3.4711
  6.960   3.4711
  6.951   3.3990
  6.942   3.4402
  6.932   3.4814
  6.923   3.4299
  6.914   3.4196
  6.905   3.4505
  6.896   3.4505
  6.886   3.4917
  6.877   3.4711
  6.868   3.5226
  6.859   3.6256
  6.850   3.5741
  6.841   3.4299
  6.832   3.4505
  6.823   3.4402
  6.814   3.4402
  6.805   3.4196
  6.796   3.5226
  6.787   3.6050
  6.778   3.5844
  6.770   3.4814
  6.761   3.5329
  6.752   3.4814
  6.743   3.4608
  6.734   3.4402
  6.726   3.4505
  6.717   3.4711
  6.708   3.4814
  6.700   3.4608
  6.691   3.4196
  6.682   3.4505
  6.674   3.5432
  6.665   3.5020
  6.657   3.4917
  6.648   3.5123
  6.640   3.6153
  6.631   3.6462
  6.623   3.5535
  6.614   3.5123
  6.606   3.5123
  6.597   3.4917
  6.589   3.5741
  6.581   3.5741
  6.572   3.6050
  6.564   3.6153
  6.556   3.5432
  6.547   3.5123
  6.539   3.5020
  6.531   3.5020
  6.523   3.5329
  6.514   3.5432
  6.506   3.5020
  6.498   3.4814
  6.490   3.5432
  6.482   3.5638
  6.474   3.5741
  6.466   3.4608
  6.458   3.4299
  6.450   3.4917
  6.442   3.4917
  6.434   3.5123
  6.426   3.5329
  6.418   3.5020
  6.410   3.6462
  6.402   3.5844
  6.394   3.4299
  6.386   3.3990
  6.378   3.4505
  6.370   3.4917
  6.363   3.4608
  6.355   3.3887
  6.347   3.4196
  6.339   3.4814
  6.332   3.5123
  6.324   3.4917
  6.316   3.4299
  6.308   3.3784
  6.301   3.4093
  6.293   3.3681
  6.286   3.3681
  6.278   3.4093
  6.270   3.4093
  6.263   3.3269
  6.255   3.3063
  6.248   3.3063
  6.240   3.3269
  6.233   3.3372
  6.225   3.3475
  6.218   3.3269
  6.210   3.3166
  6.203   3.3372
  6.195   3.2960
  6.188   3.2445
  6.181   3.2445
  6.173   3.1724
  6.166   3.1827
  6.159   3.2239
  6.151   3.2033
  6.144   3.1312
  6.137   3.1827
  6.130   3.1724
  6.122   3.1106
  6.115   3.1518
  6.108   3.2136
  6.101   3.2033
  6.094   3.1724
  6.086   3.1106
  6.079   3.0591
  6.072   3.1106
  6.065   3.1209
  6.058   3.0591
  6.051   3.1930
  6.044   3.3681
  6.037   3.2342
  6.030   3.1106
  6.023   3.1209
  6.016   3.1621
  6.009   3.1415
  6.002   3.1312
  5.995   3.2136
  5.988   3.2445
  5.981   3.2548
  5.974   3.2239
  5.967   3.2651
  5.960   3.3063
  5.954   3.3063
  5.947   3.3269
  5.940   3.3990
  5.933   3.5226
  5.926   3.5329
  5.920   3.4196
  5.913   3.4196
  5.906   3.4608
  5.899   3.5535
  5.893   3.6462
  5.886   3.6050
  5.879   3.6462
  5.873   3.6462
  5.866   3.5123
  5.859   3.5844
  5.853   3.6462
  5.846   3.6668
  5.840   3.6977
  5.833   3.7389
  5.827   3.7595
  5.820   3.8007
  5.813   3.7492
  5.807   3.7389
  5.800   3.7183
  5.794   3.6977
  5.788   3.6771
  5.781   3.7595
  5.775   3.8316
  5.768   3.8419
  5.762   3.8419
  5.755   3.8007
  5.749   3.7595
  5.743   3.8522
  5.736   3.8728
  5.730   3.8213
  5.724   3.7801
  5.717   3.8110
  5.711   3.8316
  5.705   3.8625
  5.698   3.8522
  5.692   3.8213
  5.686   3.8316
  5.680   3.8522
  5.674   3.8831
  5.667   3.8934
  5.661   3.8625
  5.655   3.9037
  5.649   3.8831
  5.643   3.8419
  5.637   3.9140
  5.630   3.9552
  5.624   3.9140
  5.618   3.8625
  5.612   3.8728
  5.606   3.9243
  5.600   3.9037
  5.594   3.8934
  5.588   3.8728
  5.582   3.8831
  5.576   3.9140
  5.570   3.9758
  5.564   3.9655
  5.558   3.9552
  5.552   3.9346
  5.546   3.9346
  5.540   3.9861
  5.534   3.9964
  5.528   4.0273
  5.523   4.0479
  5.517   4.0273
  5.511   3.9964
  5.505   3.9655
  5.499   3.9964
  5.493   4.0067
  5.487   3.9964
  5.482   4.0376
  5.476   4.0891
  5.470   4.0891
  5.464   4.0994
  5.459   4.1097
  5.453   4.1097
  5.447   4.0994
  5.441   4.0891
  5.436   4.0582
  5.430   4.0582
  5.424   4.0685
  5.419   4.1200
  5.413   4.1612
  5.407   4.1200
  5.402   4.0994
  5.396   4.1303
  5.390   4.1818
  5.385   4.2230
  5.379   4.1509
  5.374   4.1097
  5.368   4.1406
  5.363   4.1303
  5.357   4.1612
  5.352   4.1715
  5.346   4.1612
  5.341   4.1612
  5.335   4.1406
  5.330   4.1818
  5.324   4.2230
  5.319   4.2436
  5.313   4.2436
  5.308   4.2539
  5.302   4.2127
  5.297   4.1509
  5.291   4.1200
  5.286   4.1715
  5.281   4.1509
  5.275   4.1303
  5.270   4.2230
  5.265   4.2539
  5.259   4.2436
  5.254   4.2230
  5.249   4.2024
  5.243   4.1921
  5.238   4.2436
  5.233   4.2951
  5.227   4.2951
  5.222   4.3363
  5.217   4.3260
  5.212   4.2951
  5.206   4.2333
  5.201   4.1715
  5.196   4.2024
  5.191   4.2230
  5.186   4.2230
  5.180   4.2333
  5.175   4.2745
  5.170   4.2951
  5.165   4.2848
  5.160   4.2951
  5.155   4.3054
  5.150   4.2951
  5.145   4.2848
  5.139   4.2951
  5.134   4.3157
  5.129   4.2642
  5.124   4.2024
  5.119   4.2951
  5.114   4.3569
  5.109   4.2848
  5.104   4.2642
  5.099   4.3157
  5.094   4.3569
  5.089   4.3054
  5.084   4.2951
  5.079   4.3260
  5.074   4.3054
  5.069   4.2745
  5.064   4.2848
  5.059   4.3054
  5.054   4.3157
  5.049   4.3157
  5.044   4.2951
  5.040   4.2642
  5.035   4.2745
  5.030   4.3054
  5.025   4.3466
  5.020   4.3157
  5.015   4.3054
  5.010   4.3363
  5.005   4.3569
  5.001   4.3672
  4.996   4.3569
  4.991   4.3260
  4.986   4.3054
  4.981   4.3054
  4.977   4.3260
  4.972   4.3466
  4.967   4.3569
  4.962   4.3569
  4.958   4.3260
  4.953   4.3260
  4.948   4.3260
  4.943   4.3363
  4.939   4.3363
  4.934   4.3569
  4.929   4.3878
  4.925   4.4290
  4.920   4.3775
  4.915   4.3981
  4.911   4.4187
  4.906   4.3569
  4.901   4.3569
  4.897   4.3466
  4.892   4.3260
  4.888   4.3466
  4.883   4.3878
  4.878   4.4496
  4.874   4.4393
  4.869   4.4290
  4.865   4.4187
  4.860   4.4290
  4.856   4.4702
  4.851   4.4805
  4.846   4.4702
  4.842   4.4599
  4.837   4.4290
  4.833   4.3981
  4.828   4.3878
  4.824   4.3981
  4.819   4.4599
  4.815   4.5217
  4.810   4.5011
  4.806   4.4084
  4.802   4.3363
  4.797   4.3466
  4.793   4.4393
  4.788   4.4599
  4.784   4.4805
  4.779   4.4805
  4.775   4.4290
  4.771   4.4393
  4.766   4.4805
  4.762   4.4805
  4.758   4.4702
  4.753   4.4908
  4.749   4.4805
  4.744   4.4702
  4.740   4.5011
  4.736   4.5011
  4.731   4.5114
  4.727   4.5011
  4.723   4.5320
  4.719   4.5526
  4.714   4.5011
  4.710   4.4393
  4.706   4.4393
  4.701   4.5011
  4.697   4.5114
  4.693   4.5114
  4.689   4.5011
  4.684   4.4908
  4.680   4.4599
  4.676   4.5011
  4.672   4.6041
  4.668   4.6453
  4.663   4.5320
  4.659   4.5423
  4.655   4.5938
  4.651   4.5629
  4.647   4.5526
  4.643   4.6041
  4.638   4.6762
  4.634   4.6453
  4.630   4.6350
  4.626   4.5732
  4.622   4.5217
  4.618   4.5526
  4.614   4.5320
  4.610   4.5835
  4.605   4.6350
  4.601   4.5732
  4.597   4.5835
  4.593   4.5938
  4.589   4.5629
  4.585   4.6041
  4.581   4.6144
  4.577   4.6144
  4.573   4.6453
  4.569   4.6350
  4.565   4.5732
  4.561   4.5732
  4.557   4.6144
  4.553   4.6556
  4.549   4.6350
  4.545   4.5526
  4.541   4.6041
  4.537   4.6968
  4.533   4.6453
  4.529   4.7483
  4.525   4.9131
  4.521   4.8101
  4.517   4.6762
  4.513   4.6762
  4.509   4.6968
  4.505   4.6968
  4.502   4.7174
  4.498   4.7277
  4.494   4.6762
  4.490   4.6865
  4.486   4.6762
  4.482   4.7277
  4.478   4.7998
  4.474   4.7586
  4.470   4.7689
  4.467   4.8101
  4.463   4.7277
  4.459   4.6762
  4.455   4.7792
  4.451   4.8307
  4.447   4.7380
  4.444   4.6865
  4.440   4.6865
  4.436   4.6659
  4.432   4.7071
  4.428   4.7174
  4.425   4.7174
  4.421   4.8101
  4.417   4.8513
  4.413   4.8101
  4.410   4.8204
  4.406   4.8101
  4.402   4.8204
  4.398   4.7998
  4.395   4.7792
  4.391   4.7483
  4.387   4.7380
  4.384   4.7689
  4.380   4.7071
  4.376   4.6865
  4.372   4.8513
  4.369   4.8513
  4.365   4.7071
  4.361   4.6968
  4.358   4.7689
  4.354   4.7689
  4.350   4.7689
  4.347   4.7792
  4.343   4.7895
  4.340   4.7483
  4.336   4.7792
  4.332   4.8616
  4.329   4.8307
  4.325   4.6968
  4.321   4.6968
  4.318   4.7998
  4.314   4.8513
  4.311   4.8307
  4.307   4.7483
  4.304   4.6968
  4.300   4.7380
  4.296   4.8719
  4.293   4.9440
  4.289   4.8925
  4.286   4.7895
  4.282   4.7792
  4.279   4.8101
  4.275   4.7998
  4.272   4.7998
  4.268   4.8925
  4.265   4.9543
  4.261   4.9646
  4.258   4.8925
  4.254   4.7895
  4.251   4.7895
  4.247   4.7380
  4.244   4.7380
  4.240   4.8101
  4.237   4.8513
  4.233   4.8101
  4.230   4.8719
  4.226   4.9749
  4.223   4.9543
  4.219   4.9028
  4.216   4.8616
  4.213   4.8307
  4.209   4.8719
  4.206   4.9234
  4.202   4.9131
  4.199   4.8307
  4.196   4.7483
  4.192   4.7380
  4.189   4.7380
  4.185   4.7998
  4.182   4.8204
  4.179   4.7689
  4.175   4.7998
  4.172   4.8101
  4.169   4.8410
  4.165   4.9234
  4.162   4.9646
  4.159   4.8925
  4.155   4.8307
  4.152   4.7998
  4.149   4.7998
  4.145   4.7586
  4.142   4.7483
  4.139   4.7689
  4.135   4.7792
  4.132   4.8410
  4.129   4.8307
  4.126   4.7689
  4.122   4.7689
  4.119   4.7998
  4.116   4.8410
  4.112   4.7998
  4.109   4.7586
  4.106   4.7071
  4.103   4.7998
  4.099   4.8719
  4.096   4.7689
  4.093   4.7380
  4.090   4.7792
  4.086   4.7998
  4.083   4.8204
  4.080   4.8410
  4.077   4.8307
  4.074   4.9234
  4.070   4.9749
  4.067   4.8925
  4.064   4.9028
  4.061   4.8616
  4.058   4.8410
  4.055   4.7792
  4.051   4.7998
  4.048   4.8204
  4.045   4.8101
  4.042   4.7998
  4.039   4.8410
  4.036   4.8513
  4.032   4.8925
  4.029   4.9955
  4.026   4.9131
  4.023   4.7792
  4.020   4.7792
  4.017   4.7895
  4.014   4.7586
  4.011   4.7277
  4.008   4.8204
  4.004   4.9028
  4.001   4.9234
  3.998   4.8822
  3.995   4.7895
  3.992   4.7277
  3.989   4.7277
  3.986   4.7895
  3.983   4.8822
  3.980   4.8925
  3.977   4.8307
  3.974   4.8410
  3.971   4.8822
  3.968   4.8410
  3.965   4.8307
  3.962   4.8410
  3.959   4.8616
  3.956   4.8204
  3.953   4.8616
  3.950   4.8204
  3.947   4.6968
  3.944   4.6968
  3.941   4.8513
  3.938   4.9543
  3.935   4.9440
  3.932   4.8204
  3.929   4.7071
  3.926   4.6968
  3.923   4.8101
  3.920   4.9234
  3.917   4.9543
  3.914   4.9234
  3.911   4.9131
  3.908   4.7380
  3.905   4.6453
  3.902   4.7895
  3.899   4.8616
  3.896   4.7380
  3.893   4.8513
  3.890   4.9131
  3.887   4.7689
  3.884   4.7277
  3.882   4.7174
  3.879   4.7380
  3.876   4.8410
  3.873   4.9028
  3.870   4.8307
  3.867   4.7895
  3.864   4.7895
  3.861   4.7483
  3.858   4.7380
  3.856   4.6968
  3.853   4.7792
  3.850   4.7895
  3.847   4.7689
  3.844   4.7998
  3.841   4.8204
  3.838   4.7895
  3.836   4.8204
  3.833   4.7895
  3.830   4.7586
  3.827   4.7792
  3.824   4.8101
  3.822   4.7792
  3.819   4.7380
  3.816   4.7071
  3.813   4.7277
  3.810   4.8101
  3.807   4.7895
  3.805   4.7071
  3.802   4.6762
  3.799   4.6556
  3.796   4.6762
  3.794   4.7586
  3.791   4.9131
  3.788   4.9543
  3.785   4.8719
  3.782   4.8410
  3.780   4.8925
  3.777   4.8410
  3.774   4.6865
  3.771   4.7071
  3.769   4.8513
  3.766   4.8513
  3.763   4.7277
  3.761   4.6865
  3.758   4.7895
  3.755   4.7998
  3.752   4.8101
  3.750   4.7689
  3.747   4.7792
  3.744   4.8719
  3.742   4.8925
  3.739   4.7792
  3.736   4.7071
  3.733   4.6865
  3.731   4.7483
  3.728   4.7483
  3.725   4.7586
  3.723   4.8101
  3.720   4.7998
  3.717   4.7998
  3.715   4.8101
  3.712   4.7586
  3.709   4.7174
  3.707   4.7380
  3.704   4.7998
  3.702   4.7792
  3.699   4.8410
  3.696   4.8307
  3.694   4.7277
  3.691   4.7792
  3.688   4.7998
  3.686   4.8101
  3.683   4.7380
  3.680   4.7174
  3.678   4.7174
  3.675   4.6865
  3.673   4.6865
  3.670   4.7174
  3.667   4.7998
  3.665   4.8101
  3.662   4.7586
  3.660   4.7277
  3.657   4.7689
  3.655   4.7998
  3.652   4.8307
  3.649   4.8410
  3.647   4.8101
  3.644   4.7483
  3.642   4.7586
  3.639   4.7689
  3.637   4.7277
  3.634   4.6144
  3.632   4.6453
  3.629   4.7483
  3.626   4.8410
  3.624   4.8616
  3.621   4.8410
  3.619   4.6865
  3.616   4.5835
  3.614   4.6144
  3.611   4.7174
  3.609   4.7174
  3.606   4.8101
  3.604   4.8616
  3.601   4.7483
  3.599   4.6659
  3.596   4.6762
  3.594   4.7586
  3.591   4.9131
  3.589   4.7895
  3.586   4.6865
  3.584   4.6659
  3.581   4.6350
  3.579   4.7380
  3.576   4.8410
  3.574   4.7895
  3.571   4.7277
  3.569   4.6247
  3.567   4.6247
  3.564   4.6762
  3.562   4.6453
  3.559   4.5835
  3.557   4.6762
  3.554   4.6453
  3.552   4.6453
  3.549   4.6762
  3.547   4.7277
  3.545   4.7380
  3.542   4.5629
  3.540   4.5526
  3.537   4.7277
  3.535   4.7483
  3.533   4.6762
  3.530   4.6659
  3.528   4.6968
  3.525   4.6659
  3.523   4.7586
  3.521   4.7586
  3.518   4.6659
  3.516   4.6865
  3.513   4.6968
  3.511   4.4908
  3.509   4.5217
  3.506   4.6968
  3.504   4.7071
  3.502   4.6453
  3.499   4.6968
  3.497   4.6659
  3.494   4.6144
  3.492   4.5835
  3.490   4.6659
  3.487   4.7277
  3.485   4.6762
  3.483   4.6041
  3.480   4.5320
  3.478   4.5629
  3.476   4.6659
  3.473   4.6865
  3.471   4.5938
  3.469   4.5011
  3.466   4.5938
  3.464   4.6762
  3.462   4.6453
  3.460   4.6968
  3.457   4.6968
  3.455   4.6041
  3.453   4.6041
  3.450   4.6968
  3.448   4.6968
  3.446   4.5732
  3.443   4.5938
  3.441   4.6556
  3.439   4.7277
  3.437   4.7277
  3.434   4.6968
  3.432   4.6453
  3.430   4.6350
  3.428   4.4908
  3.425   4.4599
  3.423   4.4084
  3.421   4.5114
  3.418   4.4908
  3.416   4.4908
  3.414   4.5732
  3.412   4.5526
  3.409   4.3775
  3.407   4.3775
  3.405   4.4908
  3.403   4.5629
  3.401   4.5320
  3.398   4.5629
  3.396   4.5835
  3.394   4.5526
  3.392   4.4805
  3.389   4.5629
  3.387   4.5835
  3.385   4.5938
  3.383   4.6247
  3.381   4.6453
  3.378   4.5423
  3.376   4.5320
  3.374   4.4908
  3.372   4.4393
  3.370   4.5011
  3.367   4.5423
  3.365   4.5011
  3.363   4.4599
  3.361   4.4702
  3.359   4.5835
  3.357   4.6762
  3.354   4.6453
  3.352   4.6041
  3.350   4.6041
  3.348   4.5835
  3.346   4.5423
  3.344   4.4805
  3.341   4.5011
  3.339   4.4702
  3.337   4.4599
  3.335   4.3981
  3.333   4.4702
  3.331   4.6041
  3.329   4.6144
  3.326   4.4496
  3.324   4.3672
  3.322   4.4805
  3.320   4.4908
  3.318   4.3672
  3.316   4.3672
  3.314   4.4702
  3.312   4.5011
  3.309   4.3775
  3.307   4.3981
  3.305   4.5114
  3.303   4.6041
  3.301   4.4496
  3.299   4.2745
  3.297   4.2642
  3.295   4.3672
  3.293   4.3363
  3.291   4.3878
  3.288   4.4908
  3.286   4.5114
  3.284   4.4496
  3.282   4.5217
  3.280   4.5011
  3.278   4.4393
  3.276   4.3466
  3.274   4.4496
  3.272   4.4187
  3.270   4.3363
  3.268   4.4187
  3.266   4.4290
  3.264   4.2333
  3.262   4.2848
  3.259   4.3466
  3.257   4.3363
  3.255   4.2642
  3.253   4.3878
  3.251   4.3672
  3.249   4.3878
  3.247   4.5423
  3.245   4.6041
  3.243   4.4702
  3.241   4.3672
  3.239   4.1818
  3.237   4.1612
  3.235   4.2745
  3.233   4.2951
  3.231   4.2951
  3.229   4.3775
  3.227   4.2951
  3.225   4.3260
  3.223   4.3878
  3.221   4.3466
  3.219   4.3878
  3.217   4.4599
  3.215   4.3981
  3.213   4.2127
  3.211   4.1303
  3.209   4.1921
  3.207   4.2230
  3.205   4.3157
  3.203   4.3363
  3.201   4.3672
  3.199   4.4084
  3.197   4.3054
  3.195   4.1715
  3.193   4.2127
  3.191   4.3054
  3.189   4.2848
  3.187   4.2024
  3.185   4.3054
  3.183   4.3466
  3.182   4.2951
  3.180   4.2539
  3.178   4.2333
  3.176   4.2024
  3.174   4.1612
  3.172   4.0479
  3.170   4.1406
  3.168   4.3569
  3.166   4.4702
  3.164   4.3260
  3.162   4.2848
  3.160   4.2436
  3.158   4.0994
  3.156   3.9758
  3.154   4.0376
  3.152   4.1818
  3.151   4.3672
  3.149   4.3981
  3.147   4.3569
  3.145   4.2436
  3.143   4.2436
  3.141   4.3466
  3.139   4.4084
  3.137   4.2642
  3.135   4.2642
  3.133   4.3363
  3.132   4.2127
  3.130   4.1097
  3.128   4.2333
  3.126   4.2951
  3.124   4.1509
  3.122   4.0891
  3.120   4.2230
  3.118   4.2436
  3.117   4.2951
  3.115   4.3466
  3.113   4.2539
  3.111   4.1715
  3.109   4.2230
  3.107   4.2127
  3.105   4.2436
  3.103   4.2024
  3.102   4.1406
  3.100   4.1715
  3.098   4.2230
  3.096   4.2127
  3.094   4.0582
  3.092   3.9037
  3.091   4.2127
  3.089   4.3775
  3.087   4.2745
  3.085   4.1200
  3.083   4.1715
  3.081   4.2642
  3.079   4.3466
  3.078   4.3569
  3.076   4.3878
  3.074   4.2127
  3.072   4.1097
  3.070   4.0479
  3.069   4.1097
  3.067   4.1509
  3.065   4.1406
  3.063   3.9964
  3.061   4.0788
  3.060   4.2436
  3.058   4.2745
  3.056   4.2127
  3.054   4.0891
  3.052   4.1715
  3.051   4.3157
  3.049   4.2848
  3.047   4.3054
  3.045   4.2127
  3.043   4.3569
  3.042   4.3775
  3.040   4.2436
  3.038   4.0685
  3.036   4.0994
  3.034   4.1406
  3.033   4.2642
  3.031   4.2848
  3.029   4.2642
  3.027   4.2230
  3.026   4.1303
  3.024   4.0376
  3.022   4.2230
  3.020   4.2230
  3.019   4.2230
  3.017   4.1818
  3.015   4.0067
  3.013   4.0788
  3.012   4.3260
  3.010   4.2745
  3.008   4.0685
  3.006   4.0376
  3.005   4.1818
  3.003   4.3981
  3.001   4.5526
  2.999   4.3878
  2.998   4.2436
  2.996   4.2127
  2.994   4.2230
  2.992   4.1303
  2.991   4.1406
  2.989   4.2745
  2.987   4.2745
  2.986   3.9140
  2.984   3.9552
  2.982   4.1509
  2.980   4.1200
  2.979   4.0582
  2.977   4.1303
  2.975   4.1818
  2.974   4.4290
  2.972   4.3157
  2.970   4.2024
  2.968   4.1818
  2.967   4.2436
  2.965   4.2333
  2.963   4.3466
  2.962   4.2539
  2.960   4.1509
  2.958   4.0685
  2.957   3.9964
  2.955   4.1406
  2.953   4.2436
  2.952   4.1921
  2.950   4.3157
  2.948   4.3569
  2.947   4.2951
  2.945   4.1200
  2.943   4.1200
  2.942   4.1509
  2.940   4.2539
  2.938   4.1921
  2.937   4.1303
  2.935   4.0994
  2.933   4.0376
  2.932   4.0170
  2.930   4.1200
  2.928   4.2951
  2.927   4.4290
  2.925   4.2127
  2.923   4.0582
  2.922   4.3054
  2.920   4.6453
  2.918   4.3981
  2.917   4.2436
  2.915   4.2745
  2.913   4.2642
  2.912   4.0273
  2.910   4.0994
  2.909   4.0376
  2.907   3.9243
  2.905   3.9655
  2.904   4.1406
  2.902   4.2848
  2.900   4.4496
  2.899   4.4084
  2.897   4.3878
  2.896   4.2436
  2.894   4.2333
  2.892   4.3157
  2.891   4.4187
  2.889   4.1509
  2.887   4.1818
  2.886   4.3260
  2.884   4.1921
  2.883   4.2333
  2.881   4.2539
  2.879   4.0479
  2.878   4.1406
  2.876   4.2642
  2.875   4.2024
  2.873   4.2539
  2.871   4.3878
  2.870   4.2333
  2.868   4.0273
  2.867   3.9861
  2.865   4.0891
  2.864   4.1303
  2.862   4.2848
  2.860   4.3157
  2.859   4.2436
  2.857   4.0685
  2.856   4.2024
  2.854   4.4908
  2.853   4.2951
  2.851   4.1818
  2.849   4.4702
  2.848   4.4908
  2.846   4.2539
  2.845   4.1406
  2.843   4.2127
  2.842   4.0685
  2.840   4.3775
  2.838   4.3878
  2.837   4.3569
  2.835   4.4084
  2.834   4.1818
  2.832   4.0582
  2.831   4.0582
  2.829   4.2436
  2.828   4.2848
  2.826   4.1612
  2.825   4.0582
  2.823   4.0582
  2.821   4.4702
  2.820   4.4290
  2.818   4.2951
  2.817   4.5114
  2.815   4.4599
  2.814   4.2745
  2.812   4.3363
  2.811   4.3466
  2.809   4.3981
  2.808   4.2333
  2.806   4.0891
  2.805   4.0891
  2.803   4.3981
  2.802   4.5835
  2.800   4.6144
  2.799   4.4084
  2.797   4.3157
  2.796   4.3981
  2.794   4.2745
  2.793   4.1818
  2.791   4.2333
  2.790   4.1818
  2.788   4.3672
  2.787   4.2642
  2.785   4.1509
  2.784   4.2848
  2.782   4.3569
  2.781   4.3878
  2.779   4.4599
  2.778   4.5011
  2.776   4.5629
  2.775   4.3569
  2.773   4.0376
  2.772   4.1818
  2.770   4.5011
  2.769   4.4290
  2.767   4.4393
  2.766   4.4084
  2.764   4.5732
  2.763   4.3672
  2.761   4.3157
  2.760   4.3672
  2.758   4.4393
  2.757   4.4290
  2.756   4.3363
  2.754   4.1303
  2.753   4.4187
  2.751   4.6762
  2.750   4.6968
  2.748   4.3981
  2.747   4.2127
  2.745   4.5526
  2.744   4.6762
  2.742   4.5526
  2.741   4.7895
  2.740   4.8822
  2.738   4.9852
  2.737   4.6350
  2.735   4.3466
  2.734   4.5938
  2.732   4.7174
  2.731   4.5217
  2.729   4.6762
  2.728   4.7380
  2.727   4.8101
  2.725   4.9028
  2.724   4.9028
  2.722   5.0058
  2.721   5.3663
  2.719   5.4178
  2.718   5.2118
  2.717   5.0161
  2.715   4.9131
  2.714   4.9028
  2.712   5.3045
  2.711   5.4281
  2.709   5.3457
  2.708   5.4384
  2.707   5.3251
  2.705   5.1294
  2.704   5.2942
  2.702   5.5002
  2.701   5.5517
  2.700   5.6444
  2.698   5.5826
  2.697   5.3869
  2.695   5.5826
  2.694   5.5826
  2.693   5.7474
  2.691   5.7989
  2.690   5.9225
  2.688   5.5929
  2.687   5.4384
  2.686   5.6135
  2.684   5.7783
  2.683   5.5208
  2.681   5.4281
  2.680   5.7474
  2.679   5.8195
  2.677   5.5311
  2.676   5.5929
  2.675   5.7886
  2.673   5.6856
  2.672   5.3869
  2.670   5.5620
  2.669   5.5723
  2.668   5.7371
  2.666   6.2109
  2.665   6.4581
  2.664   5.8607
  2.662   5.5620
  2.661   5.7371
  2.659   5.6856
  2.658   5.4796
  2.657   5.6856
  2.655   5.8195
  2.654   6.0564
  2.653   6.2212
  2.651   5.9637
  2.650   5.5208
  2.649   5.6341
  2.647   5.6650
  2.646   5.6650
  2.645   5.9637
  2.643   5.9637
  2.642   5.5826
  2.640   5.7989
  2.639   5.7577
  2.638   5.8401
  2.636   6.0152
  2.635   6.0049
  2.634   5.7783
  2.632   5.5311
  2.631   5.7680
  2.630   6.2109
  2.628   6.2109
  2.627   6.2830
  2.626   6.3242
  2.624   6.1491
  2.623   5.6959
  2.622   5.7577
  2.620   6.0461
  2.619   6.0049
  2.618   5.7989
  2.617   5.9431
  2.615   5.9843
  2.614   6.0873
  2.613   6.1594
  2.611   6.1079
  2.610   5.8092
  2.609   5.6341
  2.607   5.6444
  2.606   5.9740
  2.605   5.7989
  2.603   5.7371
  2.602   5.6135
  2.601   5.6650
  2.599   6.0255
  2.598   6.0152
  2.597   5.7783
  2.596   5.6547
  2.594   5.7268
  2.593   6.0049
  2.592   6.0667
  2.590   6.0049
  2.589   5.7165
  2.588   5.8092
  2.586   6.1388
  2.585   6.3860
  2.584   6.0461
  2.583   5.8195
  2.581   5.9843
  2.580   5.9946
  2.579   5.5826
  2.577   5.6032
  2.576   5.5517
  2.575   5.4590
  2.574   5.7577
  2.572   6.1079
  2.571   6.1388
  2.570   6.1079
  2.569   5.9740
  2.567   5.9637
  2.566   5.7886
  2.565   5.6547
  2.563   5.7680
  2.562   5.7783
  2.561   5.7577
  2.560   6.0461
  2.558   6.1182
  2.557   5.7577
  2.556   5.5002
  2.555   5.8298
  2.553   5.8607
  2.552   5.7989
  2.551   5.6650
  2.550   6.0564
  2.548   6.1800
  2.547   5.5517
  2.546   5.1603
  2.545   5.3354
  2.543   5.5929
  2.542   5.9122
  2.541   5.8298
  2.540   5.7371
  2.538   5.6341
  2.537   5.4899
  2.536   5.5414
  2.535   5.8813
  2.533   6.0049
  2.532   6.1800
  2.531   5.9019
  2.530   5.6341
  2.528   5.4384
  2.527   5.5105
  2.526   5.6650
  2.525   5.7886
  2.524   5.7783
  2.522   5.8092
  2.521   5.8504
  2.520   5.9431
  2.519   5.4899
  2.517   5.5826
  2.516   5.7371
  2.515   5.6959
  2.514   5.7577
  2.513   5.6341
  2.511   5.9225
  2.510   6.1594
  2.509   5.8092
  2.508   5.8916
  2.506   5.9328
  2.505   6.0667
  2.504   5.8195
  2.503   5.6547
  2.502   6.2109
  2.500   6.2830
  2.496   6.7866
  2.492   5.9104
  2.488   5.8151
  2.484   6.1994
  2.480   5.8614
  2.476   5.6452
  2.472   5.8571
  2.468   6.2115
  2.464   6.5361
  2.460   5.5666
  2.456   5.6178
  2.452   6.2553
  2.448   5.9557
  2.444   6.0713
  2.440   5.7066
  2.436   5.9907
  2.432   6.5097
  2.428   5.8996
  2.424   6.2912
  2.420   6.4136
  2.416   6.3902
  2.412   5.6093
  2.408   6.3136
  2.404   6.0977
  2.400   6.5002
  2.396   6.3161
  2.392   6.3403
  2.388   5.8961
  2.384   6.0504
  2.380   6.5021
  2.376   6.5236
  2.372   6.4858
  2.368   6.4145
  2.364   6.2707
  2.360   6.4633
  2.356   6.1373
  2.352   6.0374
  2.348   6.3387
  2.344   5.9891
  2.340   6.3481
  2.336   6.0674
  2.332   6.4391
  2.328   6.5174
  2.324   6.4098
  2.320   6.5726
  2.316   6.3144
  2.312   6.3740
  2.308   6.2842
  2.304   6.2874
  2.300   6.5447
  2.296   6.4037
  2.292   6.5406
  2.288   6.4574
  2.284   6.2995
  2.280   6.2479
  2.276   6.3022
  2.272   6.4684
  2.268   6.4671
  2.264   6.5199
  2.260   6.5124
  2.256   6.4205
  2.252   6.4713
  2.248   6.5925
  2.244   6.6392
  2.240   6.4662
  2.236   6.5094
  2.232   6.4108
  2.228   6.4806
  2.224   6.5544
  2.220   6.5550
  2.216   6.8118
  2.212   6.5945
  2.208   6.4433
  2.204   6.6236
  2.200   6.6428
  2.196   6.7253
  2.192   6.7367
  2.188   6.7750
  2.184   6.9083
  2.180   6.7231
  2.176   6.7350
  2.172   6.9459
  2.168   6.8286
  2.164   6.8336
  2.160   6.8634
  2.156   6.7633
  2.152   6.9232
  2.148   6.9335
  2.144   6.8912
  2.140   6.8401
  2.136   6.7775
  2.132   6.8229
  2.128   6.8580
  2.124   6.8480
  2.120   6.8014
  2.116   6.8481
  2.112   6.8508
  2.108   6.8178
  2.104   6.8233
  2.100   6.7249
  2.096   6.8085
  2.092   6.8504
  2.088   6.8104
  2.084   6.7845
  2.080   6.9059
  2.076   6.9004
  2.072   6.8954
  2.068   6.9318
  2.064   6.9095
  2.060   6.8853
  2.056   6.9656
  2.052   6.9882
  2.048   6.9094
  2.044   6.9385
  2.040   6.9874
  2.036   7.0321
  2.032   6.9984
  2.028   6.9992
  2.024   7.0530
  2.020   7.0444
  2.016   7.0120
  2.012   7.0317
  2.008   7.0530
  2.004   7.0791
  2.000   7.0801
  1.996   7.0896
  1.992   7.1165
  1.988   7.0918
  1.984   7.1060
  1.980   7.1489
  1.976   7.1736
  1.972   7.1732
  1.968   7.1594
  1.964   7.1633
  1.960   7.1790
  1.956   7.1585
  1.952   7.1522
  1.948   7.1897
  1.944   7.2423
  1.940   7.1804
  1.936   7.1874
  1.932   7.1794
  1.928   7.0561
  1.924   7.0702
  1.920   7.0278
  1.916   6.9138
  1.912   6.9109
  1.908   6.9655
  1.904   6.9179
  1.900   6.8889
  1.896   6.9813
  1.892   7.0090
  1.888   6.9806
  1.884   6.9891
  1.880   7.0650
  1.876   7.1307
  1.872   7.1606
  1.868   7.1307
  1.864   7.1654
  1.860   7.1657
  1.856   7.1496
  1.852   7.2038
  1.848   7.2393
  1.844   7.2377
  1.840   7.2152
  1.836   7.2189
  1.832   7.2242
  1.828   7.2259
  1.824   7.2064
  1.820   7.2064
  1.816   7.2389
  1.812   7.2823
  1.808   7.2795
  1.804   7.2522
  1.800   7.2672
  1.796   7.3010
  1.792   7.3473
  1.788   7.3782
  1.784   7.3812
  1.780   7.4194
  1.776   7.4762
  1.772   7.4480
  1.768   7.4051
  1.764   7.4113
  1.760   7.3901
  1.756   7.3797
  1.752   7.3879
  1.748   7.4066
  1.744   7.4159
  1.740   7.4034
  1.736   7.4100
  1.732   7.3889
  1.728   7.4118
  1.724   7.4336
  1.720   7.4237
  1.716   7.4282
  1.712   7.4456
  1.708   7.4371
  1.704   7.4471
  1.700   7.4368
  1.696   7.4478
  1.692   7.4818
  1.688   7.4961
  1.684   7.5041
  1.680   7.5566
  1.676   7.5229
  1.672   7.4558
  1.668   7.4479
  1.664   7.4951
  1.660   7.4508
  1.656   7.4137
  1.652   7.4108
  1.648   7.4355
  1.644   7.4715
  1.640   7.4869
  1.636   7.4756
  1.632   7.4311
  1.628   7.3857
  1.624   7.4442
  1.620   7.4577
  1.616   7.4666
  1.612   7.4921
  1.608   7.4641
  1.604   7.4433
  1.600   7.4790
  1.596   7.4627
  1.592   7.4446
  1.588   7.4751
  1.584   7.4789
  1.580   7.5170
  1.576   7.4889
  1.572   7.4413
  1.568   7.4478
  1.564   7.4777
  1.560   7.5275
  1.556   7.5062
  1.552   7.5113
  1.548   7.5128
  1.544   7.5091
  1.540   7.4751
  1.536   7.5063
  1.532   7.5560
  1.528   7.5199
  1.524   7.4646
  1.520   7.5400
  1.516   7.5453
  1.512   7.5344
  1.508   7.5171
  1.504   7.5410
  1.500   7.5006
  1.496   7.5489
  1.492   7.5409
  1.488   7.5380
  1.484   7.6028
  1.480   7.5894
  1.476   7.5538
  1.472   7.5582
  1.468   7.5692
  1.464   7.5694
  1.460   7.5865
  1.456   7.5805
  1.452   7.5891
  1.448   7.5855
  1.444   7.5464
  1.440   7.5527
  1.436   7.5706
  1.432   7.6032
  1.428   7.5912
  1.424   7.5968
  1.420   7.6053
  1.416   7.6037
  1.412   7.5901
  1.408   7.6183
  1.404   7.6197
  1.400   7.6109
  1.396   7.5785
  1.392   7.6126
  1.388   7.6224
  1.384   7.6718
  1.380   7.6470
  1.376   7.6035
  1.372   7.6089
  1.368   7.6489
  1.364   7.7226
  1.360   7.6623
  1.356   7.6126
  1.352   7.5826
  1.348   7.6018
  1.344   7.6395
  1.340   7.7169
  1.336   7.7512
  1.332   7.7237
  1.328   7.6881
  1.324   7.6428
  1.320   7.6290
  1.316   7.6095
  1.312   7.6595
  1.308   7.6799
  1.304   7.6687
  1.300   7.7257
  1.296   7.7285
  1.292   7.7247
  1.288   7.6903
  1.284   7.7193
  1.280   7.6874
  1.276   7.7547
  1.272   7.7509
  1.268   7.7224
  1.264   7.6848
  1.260   7.7723
  1.256   7.8052
  1.252   7.7792
  1.248   7.8245
  1.244   7.8066
  1.240   7.7450
  1.236   7.7678
  1.232   7.7595
  1.228   7.8426
  1.224   7.7794
  1.220   7.8223
  1.216   7.8352
  1.212   7.8265
  1.208   7.7895
  1.204   7.8524
  1.200   7.8503
  1.196   7.8282
  1.192   7.8326
  1.188   7.8978
  1.184   7.8550
  1.180   7.9171
  1.176   7.9184
  1.172   7.9020
  1.168   7.9476
  1.164   7.9466
  1.160   7.9276
  1.156   7.9942
  1.152   7.9881
  1.148   7.9801
  1.144   8.0213
  1.140   8.0028
  1.136   7.9821
  1.132   8.0103
  1.128   7.9928
  1.124   7.9837
  1.120   8.0608
  1.116   8.0684
  1.112   8.0258
  1.108   8.0787
  1.104   8.0794
  1.100   8.0239
  1.096   8.0917
  1.092   8.1216
  1.088   8.1153
  1.084   8.0646
  1.080   8.1126
  1.076   8.1202
  1.072   8.1264
  1.068   8.1480
  1.064   8.1634
  1.060   8.1979
  1.056   8.1684
  1.052   8.2227
  1.048   8.2481
  1.044   8.2409
  1.040   8.2686
  1.036   8.2653
  1.032   8.3078
  1.028   8.3490
  1.024   8.3458
  1.020   8.3435
  1.016   8.4240
  1.012   8.4618
  1.008   8.4672
  1.004   8.4635
  1.000   8.5096
  0.996   8.5494
  0.992   8.5317
  0.988   8.5364
  0.984   8.6509
  0.980   8.7058
  0.976   8.6942
  0.972   8.7198
  0.968   8.7645
  0.964   8.8276
  0.960   8.8573
  0.956   8.8859
  0.952   8.9089
  0.948   8.9877
  0.944   9.0889
  0.940   9.0835
  0.936   9.1299
  0.932   9.2064
  0.928   9.3201
  0.924   9.4328
  0.920   9.5482
  0.916   9.5547
  0.912   9.5850
  0.908   9.6721
  0.904   9.6947
  0.900   9.7787
  0.896   9.7644
  0.892   9.7085
  0.888   9.7030
  0.884   9.8459
  0.880   9.8302
  0.876   9.9725
  0.872   9.9911
  0.868   9.9363
  0.864   9.9036
  0.860   9.8921
  0.856   9.8795
  0.852   9.9326
  0.848   9.8547
  0.844   9.9271
  0.840   9.9866
  0.836   9.9570
  0.832   9.9687
  0.828  10.0092
  0.824  10.0917
  0.820  10.0969
  0.816  10.0927
  0.812  10.1092
  0.808  10.1423
  0.804  10.1138
  0.800  10.1509
  0.796  10.1528
  0.792  10.1402
  0.788  10.1546
  0.784  10.1779
  0.780  10.2520
  0.776  10.2834
  0.772  10.2976
  0.768  10.3410
  0.764  10.3575
  0.760  10.3699
  0.756  10.3773
  0.752  10.3908
  0.748  10.4140
  0.744  10.4432
  0.740  10.4847
  0.736  10.5100
  0.732  10.5271
  0.728  10.5378
  0.724  10.5433
  0.720  10.5678
  0.716  10.6157
  0.712  10.6253
  0.708  10.6228
  0.704  10.6601
  0.700  10.6880
  0.696  10.7055
  0.692  10.7091
  0.688  10.7192
  0.684  10.7671
  0.680  10.7889
  0.676  10.7948
  0.672  10.8028
  0.668  10.8474
  0.664  10.8561
  0.660  10.8864
  0.656  10.9222
  0.652  10.9355
  0.648  10.9786
  0.644  11.0087
  0.640  11.0340
  0.636  11.0618
  0.632  11.0861
  0.628  11.1071
  0.624  11.1430
  0.620  11.1670
  0.616  11.1975
  0.612  11.2397
  0.608  11.2686
  0.604  11.2943
  0.600  11.3178
  0.596  11.3637
  0.592  11.3997
  0.588  11.4401
  0.584  11.4613
  0.580  11.4858
  0.576  11.5420
  0.572  11.5635
  0.568  11.5952
  0.564  11.6419
  0.560  11.6843
  0.556  11.7391
  0.552  11.7788
  0.548  11.8128
  0.544  11.8679
  0.540  11.8994
  0.536  11.9425
  0.532  11.9789
  0.528  12.0087
  0.524  12.0558
  0.520  12.0968
  0.516  12.1300
  0.512  12.1765
  0.508  12.2324
  0.504  12.2687
  0.500  12.2905
  0.496  12.3224
  0.492  12.3437
  0.488  12.3491
  0.484  12.3714
  0.480  12.4414
  0.476  12.5083
  0.472  12.5663
  0.468  12.6157
  0.464  12.6667
  0.460  12.7193
  0.456  12.7478
  0.452  12.7887
  0.448  12.8410
  0.444  12.8852
  0.440  12.9635
  0.436  13.0109
  0.432  13.0572
  0.428  13.1105
  0.424  13.1583
  0.420  13.1814
  0.416  13.2226
  0.412  13.2737
  0.408  13.3149
  0.404  13.3454
  0.400  13.3480
