Name: Rhyolite
Type: Rock
Class: Igneous
Subclass: Felsic
Particle Size: Whole Rock Chips
Sample No.: AP-936-194
Owner: United States Geological Survey, L. C. Rowan
Wavelength range: 0.405 - 14.05 um
Origin: Iberian Pyrite Belt, Spain

Description: Rhyolite, fresh





Measurement: Directional Hemispherical Reflectance
First Column: X
Second Column: Y
X Units: Wavelength (micrometers)
Y Units: Reflectance (percent)
First X Value: 14.05105
Last X Value: 0.40500
Number of X Values: 2530
Additional Information: rhy194a.txt

 14.051   1.4523
 14.013   1.3493
 13.975   1.4008
 13.938   1.1742
 13.900   1.1021
 13.863   1.2360
 13.826   1.4214
 13.790   1.2978
 13.753   1.3596
 13.717   1.4008
 13.680   1.4111
 13.644   1.2257
 13.609   1.2875
 13.573   1.3699
 13.538   1.4626
 13.502   1.4626
 13.467   1.5244
 13.432   1.5038
 13.398   1.6377
 13.363   1.5965
 13.329   1.5450
 13.295   1.6068
 13.261   1.6377
 13.227   1.5656
 13.193   1.5965
 13.160   1.5244
 13.126   1.5656
 13.093   1.5244
 13.060   1.6171
 13.027   1.6686
 12.995   1.7098
 12.962   1.6789
 12.930   1.7922
 12.898   1.8437
 12.866   1.9776
 12.834   1.9673
 12.802   2.0188
 12.771   1.9261
 12.739   1.9158
 12.708   1.8334
 12.677   1.8025
 12.646   1.7407
 12.616   1.8334
 12.585   1.7407
 12.554   1.7613
 12.524   1.7510
 12.494   1.7613
 12.464   1.7716
 12.434   1.8231
 12.404   1.6583
 12.375   1.6686
 12.345   1.6995
 12.316   1.7304
 12.287   1.7098
 12.258   1.7716
 12.229   1.8643
 12.200   1.9879
 12.171   1.9261
 12.143   1.9982
 12.115   2.0806
 12.086   2.1115
 12.058   2.0291
 12.030   2.1115
 12.002   2.1115
 11.975   2.1733
 11.947   2.2351
 11.920   2.3381
 11.892   2.3175
 11.865   2.3793
 11.838   2.4205
 11.811   2.5441
 11.784   2.5750
 11.757   2.5750
 11.731   2.5235
 11.704   2.5956
 11.678   2.6368
 11.652   2.6574
 11.626   2.7604
 11.600   2.8634
 11.574   2.7604
 11.548   2.7501
 11.522   2.7501
 11.497   2.9046
 11.471   2.9664
 11.446   3.0797
 11.421   3.0900
 11.396   3.1003
 11.371   3.0179
 11.346   2.9458
 11.321   2.9252
 11.297   3.0282
 11.272   3.1003
 11.248   3.1930
 11.223   3.2445
 11.199   3.3681
 11.175   3.3784
 11.151   3.4814
 11.127   3.5844
 11.103   3.7286
 11.079   3.8007
 11.056   3.8522
 11.032   3.9655
 11.009   4.1715
 10.985   4.2436
 10.962   4.3775
 10.939   4.3569
 10.916   4.2333
 10.893   3.9964
 10.870   3.8110
 10.848   3.5329
 10.825   3.3578
 10.802   3.1415
 10.780   3.0797
 10.758   2.9767
 10.735   2.9355
 10.713   2.8943
 10.691   2.8840
 10.669   2.7398
 10.647   2.7089
 10.625   2.6986
 10.604   2.7398
 10.582   2.7398
 10.560   2.6986
 10.539   2.6368
 10.518   2.6574
 10.496   2.6574
 10.475   2.6883
 10.454   2.6677
 10.433   2.8222
 10.412   2.9252
 10.391   3.0591
 10.370   3.1209
 10.350   3.1930
 10.329   3.2754
 10.309   3.4608
 10.288   3.5432
 10.268   3.6874
 10.247   3.7904
 10.227   3.9243
 10.207   4.0685
 10.187   4.2230
 10.167   4.3260
 10.147   4.5011
 10.127   4.6247
 10.108   4.8307
 10.088   5.0161
 10.068   5.1603
 10.049   5.3972
 10.029   5.7783
 10.010   6.0770
  9.991   6.4375
  9.972   6.7259
  9.952   7.0761
  9.933   7.3439
  9.914   7.6735
  9.895   7.9825
  9.877   7.9928
  9.858   7.7147
  9.839   7.5602
  9.821   7.3233
  9.802   7.1070
  9.783   6.9319
  9.765   7.1276
  9.747   7.4881
  9.728   7.9310
  9.710   8.4872
  9.692   9.2082
  9.674   9.8880
  9.656  10.3824
  9.638  10.7223
  9.620  11.0622
  9.602  11.3815
  9.585  11.7317
  9.567  11.9789
  9.549  12.2055
  9.532  12.3394
  9.514  12.5969
  9.497  12.7926
  9.479  12.8956
  9.462  12.9471
  9.445  13.1016
  9.428  13.1943
  9.411  13.3282
  9.394  13.3591
  9.377  13.4209
  9.360  13.4106
  9.343  13.4209
  9.326  13.3900
  9.309  13.2870
  9.293  13.1222
  9.276  13.0398
  9.259  12.8956
  9.243  12.7617
  9.226  12.5557
  9.210  12.3497
  9.194  12.0304
  9.178  11.6802
  9.161  11.2270
  9.145  10.8356
  9.129  10.3618
  9.113   9.7747
  9.097   9.1464
  9.081   8.4666
  9.065   7.6632
  9.049   6.8598
  9.034   6.1903
  9.018   5.6650
  9.002   5.0882
  8.987   4.8513
  8.971   4.8513
  8.956   5.1706
  8.940   5.5517
  8.925   6.0770
  8.909   6.5405
  8.894   6.9113
  8.879   7.1894
  8.864   7.5499
  8.849   7.7868
  8.834   7.8589
  8.819   7.8486
  8.804   7.8898
  8.789   7.7559
  8.774   7.6735
  8.759   7.4778
  8.744   7.2924
  8.730   7.0246
  8.715   6.7259
  8.700   6.3448
  8.686   6.0255
  8.671   5.7062
  8.657   5.4075
  8.642   5.0985
  8.628   4.8410
  8.614   4.5835
  8.599   4.5114
  8.585   4.4805
  8.571   4.5526
  8.557   4.5423
  8.543   4.4805
  8.529   4.4908
  8.515   4.5011
  8.501   4.4187
  8.487   4.3363
  8.473   4.2127
  8.459   4.1097
  8.445   4.0479
  8.431   4.0273
  8.418   4.0067
  8.404   4.0479
  8.391   4.0067
  8.377   3.9552
  8.363   3.9243
  8.350   3.8934
  8.337   3.8110
  8.323   3.7904
  8.310   3.7698
  8.297   3.7904
  8.283   3.7595
  8.270   3.7492
  8.257   3.6874
  8.244   3.6874
  8.231   3.6771
  8.218   3.7492
  8.205   3.7698
  8.192   3.7801
  8.179   3.6874
  8.166   3.6565
  8.153   3.6050
  8.140   3.4711
  8.128   3.3475
  8.115   3.2445
  8.102   3.0385
  8.090   2.8943
  8.077   2.6986
  8.064   2.5235
  8.052   2.4308
  8.039   2.4102
  8.027   2.3072
  8.015   2.2763
  8.002   2.2042
  7.990   2.1527
  7.978   2.0085
  7.965   1.9158
  7.953   1.8128
  7.941   1.7510
  7.929   1.6274
  7.917   1.6686
  7.905   1.7098
  7.893   1.6789
  7.881   1.5450
  7.869   1.5141
  7.857   1.4523
  7.845   1.4420
  7.833   1.4214
  7.821   1.4008
  7.809   1.3802
  7.798   1.3905
  7.786   1.4008
  7.774   1.4420
  7.763   1.4420
  7.751   1.4523
  7.739   1.3699
  7.728   1.3287
  7.716   1.3596
  7.705   1.4111
  7.694   1.4008
  7.682   1.3905
  7.671   1.3802
  7.659   1.4214
  7.648   1.3699
  7.637   1.3596
  7.626   1.3596
  7.614   1.3699
  7.603   1.2875
  7.592   1.3184
  7.581   1.3802
  7.570   1.3699
  7.559   1.3802
  7.548   1.4729
  7.537   1.4008
  7.526   1.3596
  7.515   1.3699
  7.504   1.4523
  7.493   1.5244
  7.483   1.5038
  7.472   1.3802
  7.461   1.3390
  7.450   1.3905
  7.440   1.4523
  7.429   1.4214
  7.418   1.4420
  7.408   1.4729
  7.397   1.4935
  7.387   1.4729
  7.376   1.5038
  7.366   1.5141
  7.355   1.5038
  7.345   1.4523
  7.334   1.4523
  7.324   1.4626
  7.314   1.4832
  7.303   1.5038
  7.293   1.5965
  7.283   1.5759
  7.273   1.5553
  7.263   1.6274
  7.252   1.6377
  7.242   1.5656
  7.232   1.6274
  7.222   1.6686
  7.212   1.6274
  7.202   1.6480
  7.192   1.6686
  7.182   1.6583
  7.172   1.6995
  7.162   1.7510
  7.152   1.7922
  7.143   1.7819
  7.133   1.7716
  7.123   1.7098
  7.113   1.7098
  7.103   1.7819
  7.094   1.8849
  7.084   1.8540
  7.074   1.8128
  7.065   1.7716
  7.055   1.7922
  7.046   1.7922
  7.036   1.8231
  7.026   1.8952
  7.017   1.9364
  7.007   1.8849
  6.998   1.8540
  6.989   1.8540
  6.979   1.8952
  6.970   1.8746
  6.960   1.8643
  6.951   1.8643
  6.942   1.9467
  6.932   1.9158
  6.923   1.9261
  6.914   1.9879
  6.905   2.0394
  6.896   2.0085
  6.886   2.0188
  6.877   2.0291
  6.868   2.0291
  6.859   2.1115
  6.850   2.1630
  6.841   2.1012
  6.832   2.0600
  6.823   2.0497
  6.814   2.1733
  6.805   2.2248
  6.796   2.2557
  6.787   2.3072
  6.778   2.3690
  6.770   2.4411
  6.761   2.5235
  6.752   2.4617
  6.743   2.4617
  6.734   2.4720
  6.726   2.5750
  6.717   2.6265
  6.708   2.6265
  6.700   2.6265
  6.691   2.6677
  6.682   2.6677
  6.674   2.6677
  6.665   2.6368
  6.657   2.7089
  6.648   2.7604
  6.640   2.7501
  6.631   2.7501
  6.623   2.7913
  6.614   2.7913
  6.606   2.8119
  6.597   2.7913
  6.589   2.8016
  6.581   2.8119
  6.572   2.8222
  6.564   2.8119
  6.556   2.8119
  6.547   2.7604
  6.539   2.7707
  6.531   2.8222
  6.523   2.8222
  6.514   2.8016
  6.506   2.8119
  6.498   2.7913
  6.490   2.7913
  6.482   2.7707
  6.474   2.8428
  6.466   2.8737
  6.458   2.8531
  6.450   2.8119
  6.442   2.8325
  6.434   2.8428
  6.426   2.8840
  6.418   2.8943
  6.410   2.8840
  6.402   2.8428
  6.394   2.8428
  6.386   2.8428
  6.378   2.8737
  6.370   2.8531
  6.363   2.8531
  6.355   2.7810
  6.347   2.7398
  6.339   2.7604
  6.332   2.7501
  6.324   2.7295
  6.316   2.6986
  6.308   2.6368
  6.301   2.6162
  6.293   2.6368
  6.286   2.6059
  6.278   2.5956
  6.270   2.5956
  6.263   2.5338
  6.255   2.5132
  6.248   2.5132
  6.240   2.5132
  6.233   2.4205
  6.225   2.3999
  6.218   2.4102
  6.210   2.2969
  6.203   2.1939
  6.195   2.1836
  6.188   2.1733
  6.181   2.1630
  6.173   2.1527
  6.166   2.1630
  6.159   2.1527
  6.151   2.1836
  6.144   2.1218
  6.137   2.1218
  6.130   2.0806
  6.122   2.0291
  6.115   2.0085
  6.108   2.0497
  6.101   2.0703
  6.094   2.0497
  6.086   2.0085
  6.079   2.0291
  6.072   2.0085
  6.065   1.9879
  6.058   2.0291
  6.051   2.0497
  6.044   2.0497
  6.037   2.1115
  6.030   2.1218
  6.023   2.1939
  6.016   2.2763
  6.009   2.3072
  6.002   2.2763
  5.995   2.2763
  5.988   2.3587
  5.981   2.4617
  5.974   2.5235
  5.967   2.5338
  5.960   2.4720
  5.954   2.5132
  5.947   2.5544
  5.940   2.5235
  5.933   2.5647
  5.926   2.6574
  5.920   2.6883
  5.913   2.7089
  5.906   2.7810
  5.899   2.8531
  5.893   2.8840
  5.886   2.9252
  5.879   2.9870
  5.873   3.0488
  5.866   3.0797
  5.859   3.1724
  5.853   3.2136
  5.846   3.2239
  5.840   3.2548
  5.833   3.2857
  5.827   3.2754
  5.820   3.3372
  5.813   3.3887
  5.807   3.4093
  5.800   3.4402
  5.794   3.4917
  5.788   3.4917
  5.781   3.5638
  5.775   3.5844
  5.768   3.5947
  5.762   3.6771
  5.755   3.7389
  5.749   3.7389
  5.743   3.7595
  5.736   3.7801
  5.730   3.7595
  5.724   3.7492
  5.717   3.8007
  5.711   3.8522
  5.705   3.8934
  5.698   3.8831
  5.692   3.8934
  5.686   3.9861
  5.680   4.0376
  5.674   4.0479
  5.667   4.0685
  5.661   4.0582
  5.655   4.0994
  5.649   4.1303
  5.643   4.1200
  5.637   4.1200
  5.630   4.1612
  5.624   4.1715
  5.618   4.1715
  5.612   4.2024
  5.606   4.2539
  5.600   4.2745
  5.594   4.2951
  5.588   4.2848
  5.582   4.2848
  5.576   4.2745
  5.570   4.2642
  5.564   4.2951
  5.558   4.3054
  5.552   4.2436
  5.546   4.2333
  5.540   4.2127
  5.534   4.1406
  5.528   4.0685
  5.523   4.0170
  5.517   3.9655
  5.511   3.9346
  5.505   3.9346
  5.499   3.8625
  5.493   3.7904
  5.487   3.7904
  5.482   3.8110
  5.476   3.8316
  5.470   3.8316
  5.464   3.9037
  5.459   3.9758
  5.453   4.0067
  5.447   4.0273
  5.441   4.0891
  5.436   4.1303
  5.430   4.1509
  5.424   4.2230
  5.419   4.3054
  5.413   4.2951
  5.407   4.3054
  5.402   4.2848
  5.396   4.2642
  5.390   4.2848
  5.385   4.2745
  5.379   4.3157
  5.374   4.3981
  5.368   4.4084
  5.363   4.3775
  5.357   4.3981
  5.352   4.4599
  5.346   4.5114
  5.341   4.5217
  5.335   4.5629
  5.330   4.6144
  5.324   4.6041
  5.319   4.6350
  5.313   4.6659
  5.308   4.7483
  5.302   4.7792
  5.297   4.7689
  5.291   4.7483
  5.286   4.7277
  5.281   4.7380
  5.275   4.7792
  5.270   4.7998
  5.265   4.8307
  5.259   4.8925
  5.254   4.9131
  5.249   4.8925
  5.243   4.8925
  5.238   4.9440
  5.233   5.0470
  5.227   5.0573
  5.222   5.0058
  5.217   5.0264
  5.212   5.0779
  5.206   5.0882
  5.201   5.0882
  5.196   5.1191
  5.191   5.1088
  5.186   5.0779
  5.180   5.0779
  5.175   5.1603
  5.170   5.2324
  5.165   5.2324
  5.160   5.2324
  5.155   5.2633
  5.150   5.3045
  5.145   5.3560
  5.139   5.4075
  5.134   5.4384
  5.129   5.4796
  5.124   5.5826
  5.119   5.7062
  5.114   5.8092
  5.109   5.9122
  5.104   6.0461
  5.099   6.1182
  5.094   6.1182
  5.089   6.1697
  5.084   6.2521
  5.079   6.3551
  5.074   6.4272
  5.069   6.4890
  5.064   6.5920
  5.059   6.7053
  5.054   6.8083
  5.049   6.9010
  5.044   6.9422
  5.040   7.0349
  5.035   7.0967
  5.030   7.1688
  5.025   7.2615
  5.020   7.4057
  5.015   7.4778
  5.010   7.4984
  5.005   7.5499
  5.001   7.6735
  4.996   7.7559
  4.991   7.8280
  4.986   7.9413
  4.981   8.0546
  4.977   8.1988
  4.972   8.2606
  4.967   8.3224
  4.962   8.4254
  4.958   8.5078
  4.953   8.6108
  4.948   8.7447
  4.943   8.8374
  4.939   8.8992
  4.934   8.9404
  4.929   8.9198
  4.925   9.0022
  4.920   9.0846
  4.915   9.1567
  4.911   9.2597
  4.906   9.4039
  4.901   9.5481
  4.897   9.6717
  4.892   9.7850
  4.888   9.9189
  4.883  10.0837
  4.878  10.1970
  4.874  10.2588
  4.869  10.3824
  4.865  10.5163
  4.860  10.6502
  4.856  10.8047
  4.851  10.9180
  4.846  10.9901
  4.842  11.0828
  4.837  11.1755
  4.833  11.1549
  4.828  11.2167
  4.824  11.3712
  4.819  11.4639
  4.815  11.5360
  4.810  11.6184
  4.806  11.6905
  4.802  11.7832
  4.797  11.8965
  4.793  11.9686
  4.788  11.9480
  4.784  12.0098
  4.779  12.1746
  4.775  12.2673
  4.771  12.2879
  4.766  12.3703
  4.762  12.4527
  4.758  12.4527
  4.753  12.4733
  4.749  12.5454
  4.744  12.6072
  4.740  12.6587
  4.736  12.7514
  4.731  12.7617
  4.727  12.7411
  4.723  12.7926
  4.719  12.8338
  4.714  12.7926
  4.710  12.7411
  4.706  12.7102
  4.701  12.6484
  4.697  12.7102
  4.693  12.7720
  4.689  12.7720
  4.684  12.7617
  4.680  12.8029
  4.676  12.8132
  4.672  12.7823
  4.668  12.8853
  4.663  13.0398
  4.659  13.1016
  4.655  13.1737
  4.651  13.2870
  4.647  13.4209
  4.643  13.5548
  4.638  13.6475
  4.634  13.7196
  4.630  13.8432
  4.626  13.9462
  4.622  14.0801
  4.618  14.2346
  4.614  14.3582
  4.610  14.4921
  4.605  14.6054
  4.601  14.7084
  4.597  14.8526
  4.593  14.9659
  4.589  15.1101
  4.585  15.2543
  4.581  15.3367
  4.577  15.3882
  4.573  15.4397
  4.569  15.5324
  4.565  15.6766
  4.561  15.8105
  4.557  15.8517
  4.553  15.8826
  4.549  15.9959
  4.545  16.0371
  4.541  16.0577
  4.537  16.1092
  4.533  16.1607
  4.529  16.1916
  4.525  16.1813
  4.521  16.1916
  4.517  16.1916
  4.513  16.1607
  4.509  16.1710
  4.505  16.1813
  4.502  16.1710
  4.498  16.1813
  4.494  16.2328
  4.490  16.2431
  4.486  16.2225
  4.482  16.2328
  4.478  16.3255
  4.474  16.4285
  4.470  16.5315
  4.467  16.6551
  4.463  16.7581
  4.459  16.8302
  4.455  16.8405
  4.451  16.9023
  4.447  17.1083
  4.444  17.3143
  4.440  17.4276
  4.436  17.5203
  4.432  17.5512
  4.428  17.5821
  4.425  17.7057
  4.421  17.7881
  4.417  17.9220
  4.413  18.0353
  4.410  18.1692
  4.406  18.3237
  4.402  18.3649
  4.398  18.3340
  4.395  18.4679
  4.391  18.6224
  4.387  18.7254
  4.384  18.8181
  4.380  18.9314
  4.376  19.0962
  4.372  19.2404
  4.369  19.3537
  4.365  19.4361
  4.361  19.4567
  4.358  19.5494
  4.354  19.7142
  4.350  19.7863
  4.347  19.8584
  4.343  20.0026
  4.340  20.0644
  4.336  20.1262
  4.332  20.3219
  4.329  20.4558
  4.325  20.4455
  4.321  20.5176
  4.318  20.6000
  4.314  20.6412
  4.311  20.7030
  4.307  20.8987
  4.304  20.9914
  4.300  21.0120
  4.296  21.0326
  4.293  21.1459
  4.289  21.3107
  4.286  21.3931
  4.282  21.3519
  4.279  21.4034
  4.275  21.4652
  4.272  21.5270
  4.268  21.6094
  4.265  21.7639
  4.261  21.7639
  4.258  21.8360
  4.254  21.8875
  4.251  21.8257
  4.247  21.9287
  4.244  22.1038
  4.240  22.1553
  4.237  22.2274
  4.233  22.2583
  4.230  22.2686
  4.226  22.2686
  4.223  22.3407
  4.219  22.3819
  4.216  22.3201
  4.213  22.3098
  4.209  22.2892
  4.206  22.2686
  4.202  22.3201
  4.199  22.3922
  4.196  22.3922
  4.192  22.3510
  4.189  22.3510
  4.185  22.4334
  4.182  22.4952
  4.179  22.5158
  4.175  22.5158
  4.172  22.5879
  4.169  22.6394
  4.165  22.6806
  4.162  22.7733
  4.159  22.8248
  4.155  22.8248
  4.152  22.8145
  4.149  22.8145
  4.145  22.8660
  4.142  22.9690
  4.139  22.9999
  4.135  23.0514
  4.132  23.0823
  4.129  23.0926
  4.126  23.1132
  4.122  23.0823
  4.119  23.1544
  4.116  23.2780
  4.112  23.2574
  4.109  23.2471
  4.106  23.3089
  4.103  23.3604
  4.099  23.4325
  4.096  23.4737
  4.093  23.4943
  4.090  23.5149
  4.086  23.4325
  4.083  23.4943
  4.080  23.6076
  4.077  23.6282
  4.074  23.6076
  4.070  23.6694
  4.067  23.7209
  4.064  23.7003
  4.061  23.6797
  4.058  23.7209
  4.055  23.7518
  4.051  23.7724
  4.048  23.7724
  4.045  23.7621
  4.042  23.7518
  4.039  23.7621
  4.036  23.7827
  4.032  23.7930
  4.029  23.7930
  4.026  23.7827
  4.023  23.8239
  4.020  23.9475
  4.017  23.9269
  4.014  23.8342
  4.011  23.8651
  4.008  23.9475
  4.004  23.9269
  4.001  23.9887
  3.998  24.0196
  3.995  24.0711
  3.992  24.0196
  3.989  23.9372
  3.986  23.9269
  3.983  24.0093
  3.980  24.0196
  3.977  24.0093
  3.974  24.0711
  3.971  24.1329
  3.968  24.0814
  3.965  24.0402
  3.962  24.1226
  3.959  24.1638
  3.956  24.1329
  3.953  24.1741
  3.950  24.2462
  3.947  24.2050
  3.944  24.1638
  3.941  24.2565
  3.938  24.2771
  3.935  24.2874
  3.932  24.2359
  3.929  24.2668
  3.926  24.2668
  3.923  24.2668
  3.920  24.2256
  3.917  24.2050
  3.914  24.2874
  3.911  24.3801
  3.908  24.2874
  3.905  24.2668
  3.902  24.2771
  3.899  24.1741
  3.896  24.1020
  3.893  24.0917
  3.890  24.0608
  3.887  24.1123
  3.884  24.1638
  3.882  24.1947
  3.879  24.1638
  3.876  24.0711
  3.873  24.0505
  3.870  24.0608
  3.867  24.0608
  3.864  24.0505
  3.861  23.9681
  3.858  23.9475
  3.856  23.9063
  3.853  23.8136
  3.850  23.8136
  3.847  23.8857
  3.844  23.8239
  3.841  23.8033
  3.838  23.8548
  3.836  23.8960
  3.833  23.9269
  3.830  23.8960
  3.827  23.7621
  3.824  23.7312
  3.822  23.7209
  3.819  23.7312
  3.816  23.7415
  3.813  23.6385
  3.810  23.5252
  3.807  23.5870
  3.805  23.5767
  3.802  23.5046
  3.799  23.4943
  3.796  23.4531
  3.794  23.3192
  3.791  23.3398
  3.788  23.3810
  3.785  23.3398
  3.782  23.1956
  3.780  23.1544
  3.777  23.0823
  3.774  23.0823
  3.771  23.1029
  3.769  23.1029
  3.766  22.9896
  3.763  22.8969
  3.761  22.8660
  3.758  22.7733
  3.755  22.7115
  3.752  22.7630
  3.750  22.6600
  3.747  22.4952
  3.744  22.4231
  3.742  22.2892
  3.739  22.1553
  3.736  22.2274
  3.733  22.2995
  3.731  22.2480
  3.728  22.0935
  3.725  22.0626
  3.723  22.0420
  3.720  21.9493
  3.717  21.9081
  3.715  21.8566
  3.712  21.7227
  3.709  21.6506
  3.707  21.5064
  3.704  21.3519
  3.702  21.1871
  3.699  21.0120
  3.696  20.9193
  3.694  20.9296
  3.691  20.8781
  3.688  20.9090
  3.686  20.8575
  3.683  20.7648
  3.680  20.8369
  3.678  20.9090
  3.675  20.8060
  3.673  20.8987
  3.670  20.9296
  3.667  20.8987
  3.665  20.9502
  3.662  20.9914
  3.660  20.9193
  3.657  20.8884
  3.655  20.8060
  3.652  20.7442
  3.649  20.7442
  3.647  20.7339
  3.644  20.6206
  3.642  20.6309
  3.639  20.6515
  3.637  20.6206
  3.634  20.4970
  3.632  20.5691
  3.629  20.5073
  3.626  20.3322
  3.624  20.3116
  3.621  20.2601
  3.619  20.1674
  3.616  20.1468
  3.614  20.0953
  3.611  20.0232
  3.609  19.8790
  3.606  19.7863
  3.604  19.6936
  3.601  19.6833
  3.599  19.6421
  3.596  19.5803
  3.594  19.4670
  3.591  19.4567
  3.589  19.3537
  3.586  19.3331
  3.584  19.2610
  3.581  19.1271
  3.579  19.0550
  3.576  18.9623
  3.574  18.8284
  3.571  18.6842
  3.569  18.6018
  3.567  18.5400
  3.564  18.4988
  3.562  18.3958
  3.559  18.2928
  3.557  18.2825
  3.554  18.1692
  3.552  18.0971
  3.549  18.0147
  3.547  17.9220
  3.545  17.7572
  3.542  17.7263
  3.540  17.6130
  3.537  17.3555
  3.535  17.2216
  3.533  17.2731
  3.530  17.1907
  3.528  16.9126
  3.525  16.7272
  3.523  16.6860
  3.521  16.4903
  3.518  16.1916
  3.516  15.9135
  3.513  15.6560
  3.511  15.3985
  3.509  15.1822
  3.506  14.8938
  3.504  14.7496
  3.502  14.6569
  3.499  14.5848
  3.497  14.5848
  3.494  14.6981
  3.492  14.7290
  3.490  14.6775
  3.487  14.6466
  3.485  14.7084
  3.483  14.7290
  3.480  14.7084
  3.478  14.6363
  3.476  14.6569
  3.473  14.7187
  3.471  14.6878
  3.469  14.6466
  3.466  14.7187
  3.464  14.6466
  3.462  14.6054
  3.460  14.5745
  3.457  14.5436
  3.455  14.4612
  3.453  14.3891
  3.450  14.3067
  3.448  14.1831
  3.446  14.0080
  3.443  13.9977
  3.441  13.8741
  3.439  13.8020
  3.437  13.7402
  3.434  13.5033
  3.432  13.1531
  3.430  12.9780
  3.428  12.8647
  3.425  12.6690
  3.423  12.4321
  3.421  12.2879
  3.418  12.1128
  3.416  12.0716
  3.414  11.9995
  3.412  11.9171
  3.409  11.8038
  3.407  11.8656
  3.405  12.0407
  3.403  12.1334
  3.401  12.1231
  3.398  12.1849
  3.396  12.2261
  3.394  12.3291
  3.392  12.3394
  3.389  12.2364
  3.387  12.2261
  3.385  12.2776
  3.383  12.1952
  3.381  12.0510
  3.378  11.9377
  3.376  11.9583
  3.374  12.0510
  3.372  12.0613
  3.370  12.0819
  3.367  12.1643
  3.365  12.3085
  3.363  12.3188
  3.361  12.3806
  3.359  12.4012
  3.357  12.4115
  3.354  12.5145
  3.352  12.4939
  3.350  12.4424
  3.348  12.4115
  3.346  12.4630
  3.344  12.4630
  3.341  12.2776
  3.339  12.2261
  3.337  12.3291
  3.335  12.2982
  3.333  12.2879
  3.331  12.2364
  3.329  12.2879
  3.326  12.2879
  3.324  12.2158
  3.322  12.0922
  3.320  12.0201
  3.318  11.9686
  3.316  11.9789
  3.314  11.9274
  3.312  11.8244
  3.309  11.7420
  3.307  11.6802
  3.305  11.5772
  3.303  11.5669
  3.301  11.5154
  3.299  11.5154
  3.297  11.5360
  3.295  11.4639
  3.293  11.3918
  3.291  11.3815
  3.288  11.2476
  3.286  11.1549
  3.284  11.0313
  3.282  10.9283
  3.280  10.9077
  3.278  10.9180
  3.276  10.8871
  3.274  10.8974
  3.272  10.8562
  3.270  10.7841
  3.268  10.6399
  3.266  10.5472
  3.264  10.4751
  3.262  10.5369
  3.259  10.5163
  3.257  10.3721
  3.255  10.2588
  3.253  10.3206
  3.251  10.3618
  3.249  10.3206
  3.247  10.1867
  3.245  10.0940
  3.243   9.9807
  3.241   9.9395
  3.239   9.8674
  3.237   9.9086
  3.235  10.0219
  3.233  10.0322
  3.231   9.8262
  3.229   9.7541
  3.227   9.8159
  3.225   9.8262
  3.223   9.6923
  3.221   9.5790
  3.219   9.5790
  3.217   9.5584
  3.215   9.4451
  3.213   9.4245
  3.211   9.4554
  3.209   9.4554
  3.207   9.3524
  3.205   9.3421
  3.203   9.2803
  3.201   9.1258
  3.199   8.9713
  3.197   9.0228
  3.195   8.9404
  3.193   8.9301
  3.191   8.9301
  3.189   8.8889
  3.187   8.6520
  3.185   8.5284
  3.183   8.6108
  3.182   8.6829
  3.180   8.6005
  3.178   8.4460
  3.176   8.3121
  3.174   8.3430
  3.172   8.3430
  3.170   8.2812
  3.168   8.0855
  3.166   7.9928
  3.164   7.9413
  3.162   8.0443
  3.160   8.0443
  3.158   7.9516
  3.156   7.7559
  3.154   7.7147
  3.152   7.7353
  3.151   7.7662
  3.149   7.6220
  3.147   7.5190
  3.145   7.3954
  3.143   7.3027
  3.141   7.2821
  3.139   7.2512
  3.137   7.2203
  3.135   7.2409
  3.133   7.1791
  3.132   7.1894
  3.130   7.0967
  3.128   6.9216
  3.126   6.9113
  3.124   6.9319
  3.122   6.8186
  3.120   6.7774
  3.118   6.6641
  3.117   6.6641
  3.115   6.5714
  3.113   6.5714
  3.111   6.5508
  3.109   6.5302
  3.107   6.5302
  3.105   6.5817
  3.103   6.4787
  3.102   6.3963
  3.100   6.3242
  3.098   6.3654
  3.096   6.3242
  3.094   6.2830
  3.092   6.1697
  3.091   6.0564
  3.089   6.1388
  3.087   6.1697
  3.085   6.0564
  3.083   6.0255
  3.081   5.9122
  3.079   5.8504
  3.078   5.7474
  3.076   5.7886
  3.074   5.8916
  3.072   5.9122
  3.070   5.8401
  3.069   5.8092
  3.067   5.8401
  3.065   5.9122
  3.063   5.8607
  3.061   5.7577
  3.060   5.6444
  3.058   5.6650
  3.056   5.6856
  3.054   5.7989
  3.052   5.8195
  3.051   5.7165
  3.049   5.4899
  3.047   5.4796
  3.045   5.5826
  3.043   5.5208
  3.042   5.3766
  3.040   5.4590
  3.038   5.5002
  3.036   5.3560
  3.034   5.3457
  3.033   5.4899
  3.031   5.5826
  3.029   5.6238
  3.027   5.5002
  3.026   5.3457
  3.024   5.2633
  3.022   5.3972
  3.020   5.2530
  3.019   5.1603
  3.017   5.2324
  3.015   5.2118
  3.013   5.2118
  3.012   5.2942
  3.010   5.1809
  3.008   5.1191
  3.006   5.2427
  3.005   5.3457
  3.003   5.0985
  3.001   5.0779
  2.999   5.1088
  2.998   5.0573
  2.996   5.1088
  2.994   5.1603
  2.992   5.1603
  2.991   5.0367
  2.989   4.9955
  2.987   4.9543
  2.986   4.9234
  2.984   4.9440
  2.982   4.9955
  2.980   5.0161
  2.979   5.1088
  2.977   5.0985
  2.975   4.8822
  2.974   4.8410
  2.972   4.9852
  2.970   4.8822
  2.968   4.5011
  2.967   4.5217
  2.965   4.7483
  2.963   4.7998
  2.962   4.7998
  2.960   4.8101
  2.958   4.7792
  2.957   4.7895
  2.955   4.6144
  2.953   4.5217
  2.952   4.5732
  2.950   4.5835
  2.948   4.5011
  2.947   4.5011
  2.945   4.4908
  2.943   4.5423
  2.942   4.5526
  2.940   4.4599
  2.938   4.4702
  2.937   4.6247
  2.935   4.6041
  2.933   4.6144
  2.932   4.5526
  2.930   4.3157
  2.928   4.1406
  2.927   4.3569
  2.925   4.4805
  2.923   4.3363
  2.922   4.4908
  2.920   4.7483
  2.918   4.4908
  2.917   4.2745
  2.915   4.2436
  2.913   4.4187
  2.912   4.4393
  2.910   4.5114
  2.909   4.3981
  2.907   4.2436
  2.905   4.1509
  2.904   4.3878
  2.902   4.6144
  2.900   4.7071
  2.899   4.4290
  2.897   4.1406
  2.896   4.2642
  2.894   4.4393
  2.892   4.3157
  2.891   4.2436
  2.889   4.2848
  2.887   4.3981
  2.886   4.3054
  2.884   4.2436
  2.883   4.1303
  2.881   4.2436
  2.879   4.3878
  2.878   4.4290
  2.876   4.4393
  2.875   4.4702
  2.873   4.3569
  2.871   4.2230
  2.870   4.1715
  2.868   4.2848
  2.867   4.4187
  2.865   4.4084
  2.864   4.1715
  2.862   4.1303
  2.860   4.3569
  2.859   4.3775
  2.857   4.3775
  2.856   4.5320
  2.854   4.4805
  2.853   4.1509
  2.851   4.1509
  2.849   4.3157
  2.848   4.2436
  2.846   4.0273
  2.845   3.9346
  2.843   4.0685
  2.842   4.1097
  2.840   4.1509
  2.838   4.0788
  2.837   3.9346
  2.835   3.9552
  2.834   4.0685
  2.832   3.7389
  2.831   3.6256
  2.829   3.8110
  2.828   3.8522
  2.826   3.8110
  2.825   3.6874
  2.823   3.4711
  2.821   3.3578
  2.820   3.3372
  2.818   3.4917
  2.817   3.5741
  2.815   3.5844
  2.814   3.3475
  2.812   3.2651
  2.811   3.3166
  2.809   3.4711
  2.808   3.3990
  2.806   3.2754
  2.805   3.3063
  2.803   3.5226
  2.802   3.4814
  2.800   3.2651
  2.799   3.0385
  2.797   3.0591
  2.796   3.1209
  2.794   3.1312
  2.793   3.0488
  2.791   3.0385
  2.790   2.9561
  2.788   3.1312
  2.787   2.9870
  2.785   2.7295
  2.784   2.7089
  2.782   2.7398
  2.781   2.5544
  2.779   2.5647
  2.778   2.6059
  2.776   2.5853
  2.775   2.4411
  2.773   2.4205
  2.772   2.3278
  2.770   2.3896
  2.769   2.3072
  2.767   2.6059
  2.766   2.5441
  2.764   1.9158
  2.763   1.6995
  2.761   1.7613
  2.760   1.7407
  2.758   1.5553
  2.757   1.4729
  2.756   1.6274
  2.754   1.6789
  2.753   1.8540
  2.751   2.0291
  2.750   2.0394
  2.748   1.9982
  2.747   2.0085
  2.745   1.9776
  2.744   1.9776
  2.742   1.9261
  2.741   2.2145
  2.740   2.4102
  2.738   2.4823
  2.737   2.2763
  2.735   2.0497
  2.734   1.8746
  2.732   1.9158
  2.731   1.8540
  2.729   1.8128
  2.728   1.8746
  2.727   1.9467
  2.725   1.7304
  2.724   1.6583
  2.722   1.6583
  2.721   1.8643
  2.719   2.0085
  2.718   2.1836
  2.717   2.0909
  2.715   2.1321
  2.714   2.0394
  2.712   1.9364
  2.711   2.0085
  2.709   2.1630
  2.708   2.0909
  2.707   2.1733
  2.705   2.0806
  2.704   1.9467
  2.702   1.7922
  2.701   1.9158
  2.700   1.9982
  2.698   2.2454
  2.697   2.1733
  2.695   2.0909
  2.694   2.3175
  2.693   2.6986
  2.691   2.8531
  2.690   3.2445
  2.688   3.6668
  2.687   4.0376
  2.686   4.4702
  2.684   5.0367
  2.683   5.3354
  2.681   5.7783
  2.680   6.2418
  2.679   6.5302
  2.677   6.8392
  2.676   7.4675
  2.675   7.5602
  2.673   7.6529
  2.672   8.0443
  2.670   8.4460
  2.669   8.9404
  2.668   9.3524
  2.666   9.5275
  2.665   9.9498
  2.664  10.5575
  2.662  10.7944
  2.661  10.8459
  2.659  11.2888
  2.658  11.5669
  2.657  11.4845
  2.655  11.6184
  2.654  12.0098
  2.653  12.6175
  2.651  13.0089
  2.650  13.0398
  2.649  13.0707
  2.647  13.2767
  2.646  13.5445
  2.645  13.7196
  2.643  13.7505
  2.642  13.7093
  2.640  13.9977
  2.639  14.4097
  2.638  14.7084
  2.636  14.8011
  2.635  14.9865
  2.634  15.0792
  2.632  15.1513
  2.631  15.2234
  2.630  15.4603
  2.628  15.5839
  2.627  15.7590
  2.626  15.7693
  2.624  15.7487
  2.623  16.0268
  2.622  16.4491
  2.620  16.5418
  2.619  16.8199
  2.618  16.7375
  2.617  16.6448
  2.615  16.6345
  2.614  16.4285
  2.613  16.5727
  2.611  16.8714
  2.610  17.0156
  2.609  17.0053
  2.607  17.1598
  2.606  17.0980
  2.605  16.9641
  2.603  17.0259
  2.602  17.2525
  2.601  17.4276
  2.599  17.3967
  2.598  17.3246
  2.597  17.4276
  2.596  17.6439
  2.594  17.3967
  2.593  17.4070
  2.592  17.7881
  2.590  17.9941
  2.589  17.8293
  2.588  17.6645
  2.586  17.7675
  2.585  18.0971
  2.584  18.0559
  2.583  18.0250
  2.581  18.2310
  2.580  18.3031
  2.579  18.3031
  2.577  18.4988
  2.576  18.5503
  2.575  18.6739
  2.574  18.5915
  2.572  18.5709
  2.571  18.4061
  2.570  18.4885
  2.569  18.8181
  2.567  19.0344
  2.566  18.9005
  2.565  18.7666
  2.563  18.9520
  2.562  19.1065
  2.561  19.1683
  2.560  19.7245
  2.558  19.6524
  2.557  19.2816
  2.556  19.1477
  2.555  19.2713
  2.553  19.2713
  2.552  19.5082
  2.551  19.6112
  2.550  19.6833
  2.548  19.6421
  2.547  19.7863
  2.546  19.6524
  2.545  19.5082
  2.543  19.7245
  2.542  19.6318
  2.541  19.3537
  2.540  19.7451
  2.538  20.0438
  2.537  19.8481
  2.536  19.8687
  2.535  20.4455
  2.533  20.6515
  2.532  20.5794
  2.531  20.6206
  2.530  20.8060
  2.528  20.8369
  2.527  20.8472
  2.526  20.5382
  2.525  20.5176
  2.524  20.8266
  2.522  21.0738
  2.521  21.0841
  2.520  21.0326
  2.519  21.0017
  2.517  21.1562
  2.516  21.4240
  2.515  21.4446
  2.514  21.2695
  2.513  21.3416
  2.511  21.3622
  2.510  21.3622
  2.509  21.2798
  2.508  21.4961
  2.506  21.6094
  2.505  21.6506
  2.504  21.5991
  2.503  21.7536
  2.502  22.0008
  2.500  22.2789
  2.497  22.2789
  2.493  21.8789
  2.489  21.8789
  2.485  21.8789
  2.481  21.7789
  2.477  21.6789
  2.473  21.8789
  2.469  21.6789
  2.465  21.7789
  2.461  21.7789
  2.457  21.7789
  2.453  21.8789
  2.449  21.8789
  2.445  21.9789
  2.441  22.3789
  2.437  22.3789
  2.433  22.3789
  2.429  22.6789
  2.425  22.7789
  2.421  22.9789
  2.417  22.8789
  2.413  23.0789
  2.409  23.0789
  2.405  23.3789
  2.401  23.2789
  2.397  23.3789
  2.393  23.2789
  2.389  23.3789
  2.385  23.2789
  2.381  23.3789
  2.377  23.3789
  2.373  23.4789
  2.369  23.0789
  2.365  22.8789
  2.361  22.9789
  2.357  22.9789
  2.353  22.8789
  2.349  22.8789
  2.345  22.7789
  2.341  22.6789
  2.337  22.4789
  2.333  22.2789
  2.329  21.9789
  2.325  21.6789
  2.321  21.6789
  2.317  21.2789
  2.313  21.2789
  2.309  21.3789
  2.305  21.7789
  2.301  22.9789
  2.297  22.9789
  2.293  22.9789
  2.289  23.5789
  2.285  24.1789
  2.281  24.9789
  2.277  25.0789
  2.273  25.0789
  2.269  24.9789
  2.265  24.7789
  2.261  24.6789
  2.257  24.3789
  2.253  24.3789
  2.249  24.4789
  2.245  24.1789
  2.241  24.0789
  2.237  23.6789
  2.233  23.6789
  2.229  23.3789
  2.225  23.2789
  2.221  23.2789
  2.217  22.8789
  2.213  22.8789
  2.209  22.9789
  2.205  23.0789
  2.201  23.4789
  2.197  23.4789
  2.193  23.6789
  2.189  24.0789
  2.185  24.3789
  2.181  24.3789
  2.177  24.4789
  2.173  24.3789
  2.169  24.3789
  2.165  24.3789
  2.161  24.4789
  2.157  24.3789
  2.153  24.4789
  2.149  24.5789
  2.145  24.6789
  2.141  24.9789
  2.137  25.4789
  2.133  25.2789
  2.129  25.2789
  2.125  25.2789
  2.121  25.5789
  2.117  25.8789
  2.113  26.2789
  2.109  26.3789
  2.105  26.2789
  2.101  26.3789
  2.097  26.3789
  2.093  26.5789
  2.089  26.5789
  2.085  26.5789
  2.081  26.3789
  2.077  26.2789
  2.073  26.2789
  2.069  26.3789
  2.065  26.3789
  2.061  26.3789
  2.057  26.5789
  2.053  26.5789
  2.049  26.6789
  2.045  26.5789
  2.041  26.2789
  2.037  26.2789
  2.033  26.2789
  2.029  26.3789
  2.025  26.5789
  2.021  26.2789
  2.017  26.2789
  2.013  26.2789
  2.009  26.1789
  2.005  26.0789
  2.001  26.0789
  1.997  26.0789
  1.993  25.8789
  1.989  26.0789
  1.985  25.8789
  1.981  26.0789
  1.977  25.8789
  1.973  25.6789
  1.969  25.7789
  1.965  25.6789
  1.961  25.5789
  1.957  25.2789
  1.953  25.1789
  1.949  25.0789
  1.945  24.9789
  1.941  24.6789
  1.937  24.5789
  1.933  24.4789
  1.929  24.6789
  1.925  24.4789
  1.921  24.1789
  1.917  24.3789
  1.913  24.5789
  1.909  24.7789
  1.905  25.2789
  1.901  25.5789
  1.897  25.7789
  1.893  26.2789
  1.889  26.5789
  1.885  26.3789
  1.881  26.5789
  1.877  26.5789
  1.873  26.3789
  1.869  26.3789
  1.865  26.3789
  1.861  26.6789
  1.857  26.8789
  1.853  26.8789
  1.849  26.9789
  1.845  26.9789
  1.841  27.1789
  1.837  27.2789
  1.833  27.1789
  1.829  26.9789
  1.825  27.1789
  1.821  27.2789
  1.817  27.3789
  1.813  27.1789
  1.809  27.2789
  1.805  27.3789
  1.801  27.2789
  1.797  27.3789
  1.793  27.3789
  1.789  27.4789
  1.785  27.3789
  1.781  27.3789
  1.777  27.4789
  1.773  27.4789
  1.769  27.4789
  1.765  27.6789
  1.761  27.6789
  1.757  27.4789
  1.753  27.3789
  1.749  27.2789
  1.745  27.4789
  1.741  27.4789
  1.737  27.4789
  1.733  27.6789
  1.729  27.7789
  1.725  27.7789
  1.721  27.6789
  1.717  27.8789
  1.713  27.8789
  1.709  27.8789
  1.705  27.9789
  1.701  28.0789
  1.697  27.9789
  1.693  28.0789
  1.689  27.9789
  1.685  28.0789
  1.681  28.0789
  1.677  28.0789
  1.673  28.3789
  1.669  28.3789
  1.665  28.2789
  1.661  28.0789
  1.657  28.2789
  1.653  28.0789
  1.649  28.2789
  1.645  28.2789
  1.641  28.2789
  1.637  28.3789
  1.633  28.4789
  1.629  28.4789
  1.625  28.3789
  1.621  28.4789
  1.617  28.4789
  1.613  28.4789
  1.609  28.4789
  1.605  28.4789
  1.601  28.5789
  1.597  28.7789
  1.593  28.8789
  1.589  28.7789
  1.585  28.5789
  1.581  28.7789
  1.577  28.7789
  1.573  28.7789
  1.569  28.7789
  1.565  28.7789
  1.561  28.8789
  1.557  28.8789
  1.553  28.5789
  1.549  28.5789
  1.545  28.7789
  1.541  28.8789
  1.537  28.7789
  1.533  28.8789
  1.529  28.9789
  1.525  28.9789
  1.521  29.0789
  1.517  29.0789
  1.513  29.0789
  1.509  28.9789
  1.505  28.7789
  1.501  28.2789
  1.497  28.2789
  1.493  28.0789
  1.489  28.2789
  1.485  28.2789
  1.481  28.2789
  1.477  28.2789
  1.473  28.3789
  1.469  28.2789
  1.465  28.3789
  1.461  28.2789
  1.457  28.0789
  1.453  28.2789
  1.449  28.2789
  1.445  28.3789
  1.441  28.2789
  1.437  27.9789
  1.433  27.8789
  1.429  27.7789
  1.425  27.4789
  1.421  27.4789
  1.417  27.3789
  1.413  26.7789
  1.409  26.5789
  1.405  26.2789
  1.401  26.3789
  1.397  26.7789
  1.393  26.9789
  1.389  26.7789
  1.385  27.3789
  1.381  27.3789
  1.377  27.1789
  1.373  27.9789
  1.369  28.9789
  1.365  29.0789
  1.361  28.4789
  1.357  28.0789
  1.353  28.7789
  1.349  29.0789
  1.345  29.5789
  1.341  29.6789
  1.337  29.9789
  1.333  30.0789
  1.329  29.9789
  1.325  29.9789
  1.321  30.0789
  1.317  30.1789
  1.313  30.2789
  1.309  30.4789
  1.305  30.4789
  1.301  30.4789
  1.297  30.4789
  1.293  30.5789
  1.289  30.6789
  1.285  30.6789
  1.281  30.6789
  1.277  30.4789
  1.273  30.4789
  1.269  30.2789
  1.265  30.1789
  1.261  30.1789
  1.257  30.1789
  1.253  30.1789
  1.249  30.0789
  1.245  29.9789
  1.241  30.0789
  1.237  30.4789
  1.233  30.5789
  1.229  30.5789
  1.225  30.4789
  1.221  30.5789
  1.217  30.2789
  1.213  30.4789
  1.209  30.5789
  1.205  30.5789
  1.201  30.5789
  1.197  30.6789
  1.193  30.6789
  1.189  30.7789
  1.185  30.7789
  1.181  30.9789
  1.177  31.0789
  1.173  31.1789
  1.169  31.1789
  1.165  31.2789
  1.161  31.3789
  1.157  31.2789
  1.153  31.2789
  1.149  31.2789
  1.145  31.2789
  1.141  31.1789
  1.137  31.2789
  1.133  31.2789
  1.129  31.2789
  1.125  31.3789
  1.121  31.5789
  1.117  31.5789
  1.113  31.3789
  1.109  31.5789
  1.105  31.5789
  1.101  31.7789
  1.097  31.7789
  1.093  31.6789
  1.089  31.6789
  1.085  31.5789
  1.081  31.8789
  1.077  31.7789
  1.073  31.6789
  1.069  32.2789
  1.065  32.2789
  1.061  32.3789
  1.057  32.3789
  1.053  32.1789
  1.049  32.2789
  1.045  32.1789
  1.041  32.1789
  1.037  32.2789
  1.033  32.3789
  1.029  32.3789
  1.025  32.3789
  1.021  32.2789
  1.017  32.3789
  1.013  32.3789
  1.009  32.4789
  1.005  32.3789
  1.001  32.3789
  0.997  32.1789
  0.993  32.2789
  0.989  32.1789
  0.985  32.0789
  0.981  31.7789
  0.977  31.7789
  0.973  31.3789
  0.969  31.1789
  0.965  31.1789
  0.961  31.1789
  0.957  30.7789
  0.953  30.7789
  0.949  30.5789
  0.945  30.2789
  0.941  30.1789
  0.937  29.9789
  0.933  29.9789
  0.929  29.6789
  0.925  29.5789
  0.921  29.3789
  0.917  29.0789
  0.913  28.7789
  0.909  28.5789
  0.905  28.4789
  0.901  28.0789
  0.897  27.8789
  0.893  27.7789
  0.889  27.4789
  0.885  26.9789
  0.881  26.6789
  0.877  26.6789
  0.873  26.5789
  0.869  26.2789
  0.865  26.0789
  0.861  25.6789
  0.857  25.5789
  0.853  25.5789
  0.849  25.0789
  0.845  25.2789
  0.841  25.2789
  0.837  25.4789
  0.833  25.6789
  0.829  25.4789
  0.825  25.7789
  0.821  25.7789
  0.817  26.1789
  0.813  26.3789
  0.809  26.3789
  0.805  26.6789
  0.804  28.4789
  0.803  26.4789
  0.802  26.4789
  0.801  26.3789
  0.800  26.4789
  0.799  26.3789
  0.798  26.4789
  0.797  26.5789
  0.796  26.4789
  0.795  26.4789
  0.794  26.4789
  0.793  26.3789
  0.792  26.5789
  0.791  26.5789
  0.790  26.5789
  0.789  26.3789
  0.788  26.3789
  0.787  26.3789
  0.786  26.5789
  0.785  26.3789
  0.784  26.3789
  0.783  26.2789
  0.782  26.3789
  0.781  26.3789
  0.780  26.3789
  0.779  26.3789
  0.778  26.2789
  0.777  26.4789
  0.776  26.3789
  0.775  26.3789
  0.774  26.4789
  0.773  26.5789
  0.772  26.3789
  0.771  26.2789
  0.770  26.2789
  0.769  26.2789
  0.768  26.3789
  0.767  26.2789
  0.766  26.2789
  0.765  26.2789
  0.764  26.5789
  0.763  26.3789
  0.762  26.2789
  0.761  26.5789
  0.760  26.4789
  0.759  26.3789
  0.758  26.2789
  0.757  26.2789
  0.756  26.2789
  0.755  26.2789
  0.754  25.9789
  0.753  26.0789
  0.752  25.9789
  0.751  26.0789
  0.750  26.0789
  0.749  26.0789
  0.748  26.0789
  0.747  26.0789
  0.746  26.3789
  0.745  25.9789
  0.744  25.9789
  0.743  25.6789
  0.742  25.6789
  0.741  25.8789
  0.740  25.7789
  0.739  25.9789
  0.738  25.8789
  0.737  25.8789
  0.736  25.6789
  0.735  25.6789
  0.734  25.6789
  0.733  25.7789
  0.732  25.6789
  0.731  25.7789
  0.730  25.6789
  0.729  25.7789
  0.728  25.8789
  0.727  25.4789
  0.726  25.3789
  0.725  25.4789
  0.724  25.3789
  0.723  25.4789
  0.722  25.4789
  0.721  25.6789
  0.720  25.1789
  0.719  25.1789
  0.718  24.9789
  0.717  25.1789
  0.716  25.1789
  0.715  24.9789
  0.714  25.2789
  0.713  24.8789
  0.712  24.7789
  0.711  24.6789
  0.710  24.6789
  0.709  24.6789
  0.708  24.8789
  0.707  24.8789
  0.706  24.6789
  0.705  24.3789
  0.704  24.6789
  0.703  24.1789
  0.702  24.1789
  0.701  24.3789
  0.700  24.1789
  0.699  24.1789
  0.698  23.7789
  0.697  23.7789
  0.696  23.7789
  0.695  23.6789
  0.694  23.4789
  0.693  23.4789
  0.692  23.6789
  0.691  23.6789
  0.690  23.5789
  0.689  23.6789
  0.688  23.6789
  0.687  23.5789
  0.686  23.4789
  0.685  23.4789
  0.684  23.2789
  0.683  23.2789
  0.682  23.0789
  0.681  23.2789
  0.680  23.4789
  0.679  23.4789
  0.678  22.9789
  0.677  23.1789
  0.676  23.1789
  0.675  22.9789
  0.674  22.9789
  0.673  23.0789
  0.672  22.9789
  0.671  22.6789
  0.670  22.5789
  0.669  22.6789
  0.668  23.0789
  0.667  23.1789
  0.666  22.9789
  0.665  22.9789
  0.664  22.9789
  0.663  22.7789
  0.662  22.5789
  0.661  22.5789
  0.660  22.6789
  0.659  22.5789
  0.658  22.6789
  0.657  22.6789
  0.656  22.5789
  0.655  22.6789
  0.654  22.4789
  0.653  22.3789
  0.652  22.1789
  0.651  22.3789
  0.650  22.3789
  0.649  22.1789
  0.648  22.1789
  0.647  22.0789
  0.646  22.0789
  0.645  22.1789
  0.644  22.1789
  0.643  22.1789
  0.642  21.9789
  0.641  22.1789
  0.640  22.1789
  0.639  22.1789
  0.638  21.6789
  0.637  21.8789
  0.636  21.9789
  0.635  22.0789
  0.634  21.8789
  0.633  21.8789
  0.632  21.6789
  0.631  21.9789
  0.630  21.6789
  0.629  21.8789
  0.628  21.6789
  0.627  21.6789
  0.626  21.6789
  0.625  21.6789
  0.624  21.5789
  0.623  21.5789
  0.622  21.5789
  0.621  21.6789
  0.620  21.4789
  0.619  21.5789
  0.618  21.6789
  0.617  21.6789
  0.616  21.4789
  0.615  21.5789
  0.614  21.5789
  0.613  21.5789
  0.612  21.3789
  0.611  21.4789
  0.610  21.3789
  0.609  21.3789
  0.608  21.3789
  0.607  21.3789
  0.606  21.2789
  0.605  21.2789
  0.604  21.0789
  0.603  21.2789
  0.602  20.8789
  0.601  21.0789
  0.600  21.3789
  0.599  21.3789
  0.598  21.2789
  0.597  21.2789
  0.596  21.0789
  0.595  20.8789
  0.594  20.8789
  0.593  20.6789
  0.592  20.3789
  0.591  20.1789
  0.590  20.2789
  0.589  20.3789
  0.588  20.4789
  0.587  20.3789
  0.586  19.8789
  0.585  19.8789
  0.584  19.8789
  0.583  19.5789
  0.582  19.7789
  0.581  19.5789
  0.580  19.2789
  0.579  19.2789
  0.578  19.0789
  0.577  19.1789
  0.576  19.1789
  0.575  19.2789
  0.574  19.1789
  0.573  19.2789
  0.572  19.0789
  0.571  18.7789
  0.570  18.7789
  0.569  18.6789
  0.568  18.5789
  0.567  18.2789
  0.566  18.4789
  0.565  18.1789
  0.564  18.0789
  0.563  19.7789
  0.562  19.8789
  0.561  19.7789
  0.560  19.7789
  0.559  19.7789
  0.558  19.7789
  0.557  19.6789
  0.556  19.3789
  0.555  19.3789
  0.554  19.1789
  0.553  19.1789
  0.552  19.0789
  0.551  18.8789
  0.550  18.8789
  0.549  18.7789
  0.548  18.6789
  0.547  18.5789
  0.546  18.4789
  0.545  18.4789
  0.544  18.2789
  0.543  18.0789
  0.542  18.1789
  0.541  18.1789
  0.540  18.1789
  0.539  17.9789
  0.538  18.1789
  0.537  18.0789
  0.536  18.2789
  0.535  18.2789
  0.534  17.9789
  0.533  18.0789
  0.532  17.7789
  0.531  17.7789
  0.530  17.6789
  0.529  17.5789
  0.528  17.5789
  0.527  17.4789
  0.526  17.4789
  0.525  17.5789
  0.524  17.5789
  0.523  17.5789
  0.522  17.4789
  0.521  17.5789
  0.520  17.3789
  0.519  17.3789
  0.518  17.4789
  0.517  17.3789
  0.516  17.0789
  0.515  17.1789
  0.514  17.3789
  0.513  17.4789
  0.512  17.5789
  0.511  17.3789
  0.510  17.0789
  0.509  17.0789
  0.508  17.0789
  0.507  17.0789
  0.506  17.4789
  0.505  17.1789
  0.504  17.0789
  0.503  17.1789
  0.502  17.1789
  0.501  17.0789
  0.500  16.6789
  0.499  16.8789
  0.498  16.8789
  0.497  16.8789
  0.496  16.6789
  0.495  16.9789
  0.494  17.0789
  0.493  17.0789
  0.492  17.1789
  0.491  16.5789
  0.490  16.4789
  0.489  16.5789
  0.488  16.4789
  0.487  16.8789
  0.486  16.9789
  0.485  16.9789
  0.484  16.5789
  0.483  16.5789
  0.482  16.4789
  0.481  16.5789
  0.480  16.5789
  0.479  16.5789
  0.478  16.4789
  0.477  16.3789
  0.476  16.6789
  0.475  16.6789
  0.474  16.5789
  0.473  16.4789
  0.472  16.4789
  0.471  16.5789
  0.470  16.5789
  0.469  16.5789
  0.468  16.5789
  0.467  16.3789
  0.466  16.5789
  0.465  16.4789
  0.464  15.9789
  0.463  16.8789
  0.462  16.5789
  0.461  16.4789
  0.460  16.2789
  0.459  16.3789
  0.458  16.3789
  0.457  16.2789
  0.456  16.0789
  0.455  16.0789
  0.454  15.8789
  0.453  16.2789
  0.452  16.0789
  0.451  15.8789
  0.450  15.9789
  0.449  16.0789
  0.448  15.8789
  0.447  15.7789
  0.446  15.7789
  0.445  15.7789
  0.444  16.0789
  0.443  16.0789
  0.442  15.9789
  0.441  15.8789
  0.440  15.8789
  0.439  15.5789
  0.438  15.5789
  0.437  15.5789
  0.436  15.4789
  0.435  15.3789
  0.434  15.3789
  0.433  15.7789
  0.432  15.7789
  0.431  15.5789
  0.430  15.3789
  0.429  15.3789
  0.428  15.4789
  0.427  15.7789
  0.426  15.4789
  0.425  15.2789
  0.424  14.9789
  0.423  15.2789
  0.422  15.3789
  0.421  14.9789
  0.420  15.1789
  0.419  15.1789
  0.418  15.3789
  0.417  14.9789
  0.416  14.9789
  0.415  14.7789
  0.414  14.7789
  0.413  14.8789
  0.412  14.8789
  0.411  15.2789
  0.410  14.8789
  0.409  14.8789
  0.408  14.7789
  0.407  14.7789
  0.406  14.3789
  0.405  14.3789
